File: 01_Data/Engineered_Flooring/Cone/Engineered_Flooring_Cone_HF25Scan_220524_R1.csv
Names,Time,Stack TC,Smoke TC,Exh Press,Smoke Comp,Smoke Meas,CO Meter,CO2 Meter,O2 Meter,Sample Mass,Ext Coeff,Start Test,Flame Verif
Chan Gain,,500,500,1,1,1,1,1,1,1,1,1.0,1.0
Offset,,0,0,0.13752,0,0,0,0,0,0,0,0.0,0.0
Gain,,1,1,25.011,13.8491,15.2622,1,1,1,1.00087,1.03118,1.0,1.0
Units,sec,C,C,Pa,%,%,%,%,%,g,/m,,
Baseline,,28.0288,28.4677,141.802,105.165,105.962,0.00162866,0.0498932,20.9853,-451.504,-0.0682116,,
7,1.5,24.6109,25.4971,139.813,105.392,105.711,0.000592866,0.046284,20.9942,121.786,-0.0273283,0.0,0.0
14,3.25,24.2912,24.7291,146.493,105.385,105.565,0.000647735,0.045761,20.9949,121.776,-0.0153827,0.0,0.0
21,5,24.1186,24.8939,141.402,105.4,105.862,0.000542096,0.0452035,20.9952,121.836,-0.0395393,0.0,0.0
28,6.75,24.4914,25.0949,139.734,105.398,105.775,0.000392818,0.0445857,20.9963,121.856,-0.0322757,0.0,0.0
35,8.5,24.3753,24.8329,143.605,105.41,105.758,0.000325014,0.0439279,20.9971,121.846,-0.0298655,0.0,0.0
42,10.25,25.0052,24.9353,146.987,105.413,105.981,0.000305653,0.0433536,20.9981,121.796,-0.0485579,0.0,0.0
49,12,24.8992,25.4174,141.572,105.414,105.88,0.000290418,0.0428137,20.9991,121.836,-0.0398913,0.0,0.0
56,13.75,24.7344,25.8225,144.103,105.419,105.694,0.00035868,0.0423205,20.9996,121.836,-0.0235652,0.0,0.0
63,15.5,24.9227,25.4318,141.088,105.441,105.497,0.00045565,0.0421646,20.9997,121.846,-0.00480674,0.0,0.0
70,17.25,24.9583,25.9733,144.046,105.429,105.132,0.000536699,0.042149,20.9996,121.776,0.0255015,0.0,0.0
77,19,24.9519,25.496,141.563,105.438,105.514,0.000607599,0.0421126,20.9995,121.756,-0.00657358,0.0,0.0
84,20.75,24.6351,25.4164,143.36,105.469,105.78,0.000567911,0.0421314,20.9995,121.786,-0.0265853,0.0,0.0
91,22.5,24.4672,25.4294,138.694,105.441,105.345,0.000456683,0.0421416,20.9995,121.786,0.00822588,0.0,0.0
98,24.25,25.0481,25.539,144.476,105.439,105.288,0.000334415,0.0421376,20.9995,121.796,0.013037,0.0,0.0
105,26,24.6616,25.0142,141.276,105.432,105.347,0.000235109,0.0421631,20.9995,121.766,0.00734028,0.0,0.0
112,27.75,24.9885,25.5614,145.494,105.429,105.848,0.00019643,0.0423149,20.9985,121.816,-0.0358827,0.0,0.0
119,29.5,25.0617,25.7045,141.063,105.427,105.46,0.000215057,0.042453,20.9978,121.806,-0.00284771,0.0,0.0
126,31.25,24.7665,25.452,145.387,105.407,105.746,0.000219161,0.0424747,20.9975,121.776,-0.0290476,0.0,0.0
133,33,25.1228,25.7443,140.068,105.386,105.651,0.000147759,0.0424555,20.9973,121.756,-0.0227301,0.0,0.0
140,34.75,24.9464,25.7153,144.465,105.355,105.567,3.65368e-05,0.042408,20.9972,121.816,-0.0182342,0.0,0.0
147,36.5,24.8507,26.162,144.096,105.332,105.802,5.4385e-05,0.0424593,20.9972,121.766,-0.040246,0.0,0.0
154,38.25,25.2284,26.0018,142.717,105.294,105.495,0.000187199,0.0425421,20.9972,121.746,-0.0172326,0.0,0.0
161,40,25.3813,25.7581,140.897,105.253,105.791,0.00038787,0.0425617,20.9972,121.716,-0.0461157,0.0,0.0
168,41.75,25.0858,25.7772,140.501,105.207,105.189,0.000508307,0.0426879,20.9964,121.686,0.00159791,0.0,0.0
175,43.5,25.1804,25.8733,142.181,105.174,105.779,0.000498137,0.0428798,20.9956,121.716,-0.0518422,0.0,0.0
182,45.25,25.2469,25.3426,143.108,105.14,105.263,0.00038763,0.0429725,20.9961,121.716,-0.0105482,0.0,0.0
189,47,25.3975,25.9445,141.915,105.092,105.555,0.000328802,0.0429683,20.9967,121.716,-0.0397949,0.0,0.0
196,48.75,25.421,26.1608,143.47,105.051,105.244,0.000327248,0.0431148,20.9969,121.646,-0.0165828,0.0,0.0
203,50.5,24.8424,25.9989,142.835,105.023,104.574,0.000343241,0.0432085,20.9977,121.666,0.0387638,0.0,0.0
210,52.25,25.0367,25.5139,141.519,104.972,105.104,0.00036027,0.0432976,20.9986,121.696,-0.0114135,0.0,0.0
217,54,25.1527,25.8426,141.339,104.913,105.267,0.000353739,0.043486,20.9984,121.626,-0.0304162,0.0,0.0
224,55.75,25.1126,25.9741,140.785,104.881,104.774,0.000301984,0.0435712,20.9978,121.596,0.00925467,0.0,0.0
231,57.5,25.5659,25.8849,140.3,104.851,105.261,0.000260824,0.0435794,20.9974,121.586,-0.0352905,0.0,0.0
238,59.25,24.9076,25.4685,141.659,104.817,105.069,0.000232855,0.0436415,20.9973,121.546,-0.0216659,0.0,0.0
245,61,25.0099,25.87,143.86,104.781,105.029,0.000236262,0.043649,20.9972,121.496,-0.0213541,0.0,0.0
252,62.75,25.3368,26.0433,144.437,104.749,104.816,0.000254949,0.0439267,20.9972,121.506,-0.00577994,0.0,0.0
259,64.5,25.2664,26.2144,140.362,104.707,104.823,0.000265489,0.0440072,20.9972,121.496,-0.0100333,0.0,0.0
266,66.25,25.052,25.7921,142.552,104.684,104.818,0.000301701,0.0440913,20.9972,121.486,-0.0115231,0.0,0.0
273,68,25.068,25.685,140.911,104.677,104.524,0.000334424,0.0441739,20.9972,121.536,0.0132179,0.0,0.0
280,69.75,25.2057,25.6874,140.626,104.652,104.635,0.000358642,0.0442461,20.9972,121.536,0.00151166,0.0,0.0
287,71.5,25.2925,26.0005,139.649,104.627,104.744,0.000443226,0.044407,20.9972,121.496,-0.0101385,0.0,0.0
294,73.25,25.0021,26.2252,139.52,104.606,104.84,0.000525045,0.0444431,20.9972,121.526,-0.0201744,0.0,0.0
301,75,25.4157,25.8107,142.846,104.596,104.829,0.00053686,0.0447483,20.9972,121.496,-0.0200869,0.0,0.0
308,76.75,25.7545,25.8943,145.448,104.57,104.841,0.000492408,0.0452051,20.9972,121.476,-0.0234382,0.0,0.0
315,78.5,25.5186,25.9881,141.825,104.551,105.013,0.000438622,0.0456164,20.9972,121.486,-0.0398231,0.0,0.0
322,80.25,25.2221,25.757,143.803,104.581,104.772,0.000372463,0.0459991,20.9972,121.436,-0.0165752,0.0,0.0
329,82,25.2907,26.1187,137.889,104.621,104.694,0.000304453,0.0463985,20.9972,121.466,-0.00630867,0.0,0.0
336,83.75,25.3009,26.0089,142.625,104.65,104.219,0.00028668,0.0469368,20.9967,121.446,0.0373529,0.0,0.0
343,85.5,25.1957,26.0254,147.137,104.677,104.471,0.00035467,0.0473643,20.996,121.436,0.0178101,0.0,0.0
350,87.25,24.8716,26.2406,143.002,104.685,104.419,0.000522411,0.0477505,20.9966,121.376,0.0230582,0.0,0.0
357,89,25.461,25.9973,138.277,104.701,104.657,0.000671092,0.0483887,20.9969,121.346,0.00381101,0.0,0.0
364,90.75,25.4808,25.6039,137.619,104.731,104.967,0.000715049,0.0490155,20.997,121.336,-0.0203262,0.0,0.0
371,92.5,25.8071,26.4268,139.81,104.701,104.467,0.000738932,0.0494405,20.9971,121.346,0.0202183,0.0,0.0
378,94.25,25.3092,26.5579,141.837,104.694,103.951,0.0007935,0.0499089,20.9975,121.296,0.0643888,0.0,0.0
385,96,25.2462,26.3568,145.197,104.679,104.038,0.000832612,0.0503633,20.9977,121.256,0.0555719,0.0,0.0
392,97.75,25.5555,26.0249,141.474,104.678,104.19,0.00097218,0.05102,20.9979,121.276,0.0422741,0.0,0.0
399,99.5,26.0571,26.3928,142.129,104.664,104.019,0.00111884,0.0515695,20.9979,121.246,0.0558806,0.0,0.0
406,101.25,25.3385,26.1574,142.704,104.655,103.085,0.00117904,0.0521608,20.9968,121.226,0.136766,0.0,0.0
413,103,26.0425,26.7198,142.041,104.614,103.485,0.00117674,0.0526095,20.9962,121.125,0.0980688,0.0,0.0
420,104.75,25.9182,26.2372,139.811,104.595,103.165,0.00121242,0.0531187,20.9956,121.125,0.124436,0.0,0.0
427,106.5,25.6794,26.4101,139.43,104.567,102.957,0.00128361,0.0534938,20.9952,121.135,0.140333,0.0,0.0
434,108.25,25.9661,26.4795,141.694,104.573,102.427,0.00137735,0.0537439,20.9951,121.075,0.18761,0.0,0.0
441,110,26.4911,26.6748,141.472,104.571,101.786,0.00151269,0.0539767,20.9957,120.965,0.244167,0.0,0.0
448,111.75,26.0809,26.5001,142.884,104.575,101.539,0.00160254,0.054097,20.9959,120.945,0.266501,0.0,0.0
455,113.5,25.668,26.7206,140.248,104.593,100.73,0.00158473,0.0541632,20.9972,120.925,0.340387,0.0,0.0
462,115.25,26.3993,26.7925,143.824,104.608,100.402,0.00149155,0.0542235,20.9978,120.885,0.371206,0.0,0.0
469,117,26.2764,26.817,139.878,104.622,100.273,0.00143133,0.0544611,20.9974,120.805,0.384075,0.0,0.0
476,118.75,26.2753,26.6261,141.952,104.637,100.804,0.00143739,0.0545856,20.9972,120.745,0.337587,0.0,0.0
483,120.5,25.8875,26.9717,139.259,104.659,100.582,0.00145159,0.0545241,20.9971,120.705,0.35944,0.0,0.0
490,122.25,26.3691,27.0416,142.089,104.675,100.334,0.00147275,0.0544214,20.996,120.685,0.383144,0.0,0.0
497,124,26.2519,26.9944,140.326,104.694,99.9839,0.00149748,0.0545686,20.9954,120.625,0.416378,0.0,0.0
504,125.75,26.2547,27.0898,143.87,104.702,100.182,0.00158208,0.0550757,20.9946,120.485,0.39918,0.0,0.0
511,127.5,26.1093,26.4845,141.945,104.728,102.404,0.00176418,0.0568592,20.9911,120.515,0.20296,0.0,0.0
518,129.25,25.7916,27.2085,135.246,104.756,105.319,0.00201305,0.0702985,20.9686,120.425,-0.0485026,0.0,1.0
525,131,26.6329,27.0716,130.612,104.787,106.721,0.0022739,0.10984,20.9266,120.225,-0.165414,0.0,1.0
532,132.75,26.9736,27.092,131.424,104.798,106.338,0.00261665,0.171919,20.8803,120.085,-0.13192,0.0,1.0
539,134.5,27.2082,26.5563,129.36,104.801,107.157,0.00310669,0.235817,20.7902,119.834,-0.201049,0.0,0.0
546,136.25,28.9325,27.9984,126.598,104.829,107.713,0.00357043,0.305135,20.6767,119.574,-0.245501,0.0,0.0
553,138,31.041,28.8503,127.695,104.844,107.673,0.00389391,0.368174,20.6044,119.324,-0.240827,0.0,0.0
560,139.75,32.1921,30.6521,127.262,104.856,107.779,0.00407614,0.399819,20.5686,119.134,-0.24872,0.0,0.0
567,141.5,34.0563,31.7105,124.356,104.881,107.484,0.00410186,0.408381,20.5555,118.823,-0.221791,0.0,0.0
574,143.25,34.7923,32.3044,128.903,104.893,106.049,0.00399176,0.39857,20.5706,118.593,-0.0991181,0.0,0.0
581,145,35.7493,33.5901,128.655,104.937,107.264,0.00382115,0.379326,20.5933,118.393,-0.198424,0.0,0.0
588,146.75,36.7568,34.5813,131.091,104.95,107.419,0.00370351,0.357803,20.6176,118.223,-0.210402,0.0,0.0
595,148.5,37.1784,35.1817,134.335,104.969,107.553,0.00364025,0.341145,20.6386,117.993,-0.220015,0.0,0.0
602,150.25,37.9171,35.6121,127.388,104.992,108.306,0.00359383,0.328804,20.6537,117.773,-0.281129,0.0,0.0
609,152,38.3415,36.7974,128.482,105.026,107.934,0.00352718,0.321532,20.6613,117.602,-0.247011,0.0,0.0
616,153.75,39.5295,37.4952,128.603,105.033,107.981,0.00340562,0.318102,20.6654,117.412,-0.250366,0.0,0.0
623,155.5,39.2552,37.3059,130.236,105.046,107.016,0.00321089,0.317082,20.6679,117.172,-0.167995,0.0,0.0
630,157.25,39.6482,38.049,129.003,105.06,108.778,0.00288364,0.315435,20.6697,116.972,-0.314627,0.0,0.0
637,159,39.9744,38.6951,128.171,105.086,108.1,0.00264698,0.312372,20.6729,116.792,-0.255764,0.0,0.0
644,160.75,41.4585,39.6809,135.785,105.118,107.713,0.00262218,0.310575,20.6753,116.581,-0.220629,0.0,0.0
651,162.5,41.3336,40.267,134.275,105.13,108.659,0.00267071,0.310381,20.6774,116.371,-0.298668,0.0,0.0
658,164.25,41.586,40.7769,126.093,105.174,107.603,0.00266137,0.310416,20.6786,116.181,-0.206522,0.0,0.0
665,166,42.1096,41.2231,127.236,105.177,108.332,0.00259819,0.308651,20.6812,115.961,-0.267336,0.0,0.0
672,167.75,42.4503,41.9154,126.068,105.223,108.926,0.00246467,0.30534,20.6851,115.771,-0.312861,0.0,0.0
679,169.5,42.6139,41.9506,133.443,105.253,107.218,0.00237728,0.300089,20.6899,115.581,-0.167363,0.0,0.0
686,171.25,43.0719,42.6956,126.67,105.291,107.998,0.00236508,0.295043,20.6967,115.38,-0.229673,0.0,0.0
693,173,43.5045,42.5864,131.543,105.301,108.417,0.00237647,0.290997,20.7026,115.15,-0.263729,0.0,0.0
700,174.75,43.2345,42.7732,129.31,105.349,108.829,0.00236075,0.288524,20.7065,114.99,-0.294029,0.0,0.0
707,176.5,44.0542,43.1335,129.67,105.365,110.001,0.00230025,0.285619,20.7095,114.83,-0.389458,0.0,0.0
714,178.25,44.0181,43.3557,129.848,105.399,108.504,0.00221931,0.283444,20.712,114.61,-0.262613,0.0,0.0
721,180,44.2301,43.9363,131.142,105.415,109.277,0.00212552,0.282529,20.7133,114.4,-0.325462,0.0,0.0
728,181.75,44.2687,44.0658,131.11,105.425,108.697,0.00208754,0.282266,20.7139,114.209,-0.276462,0.0,0.0
735,183.5,44.7952,44.4494,131.31,105.441,108.979,0.00218292,0.28183,20.7149,114.059,-0.29854,0.0,0.0
742,185.25,44.4873,44.5722,127.506,105.454,109.192,0.00232072,0.280934,20.7163,113.849,-0.315143,0.0,0.0
749,187,44.8898,44.6423,129.509,105.457,108.889,0.00243765,0.279608,20.7177,113.639,-0.289697,0.0,0.0
756,188.75,44.4779,44.8908,128.092,105.456,108.862,0.00258066,0.277935,20.7199,113.389,-0.287565,0.0,0.0
763,190.5,44.6649,45.3356,131.472,105.479,108.664,0.00271812,0.276176,20.7227,113.289,-0.269108,0.0,0.0
770,192.25,44.9417,45.2994,131.32,105.475,108.418,0.00283338,0.274051,20.7254,113.098,-0.248901,0.0,0.0
777,194,44.9792,45.2951,129.155,105.483,110.063,0.00286333,0.272782,20.7273,112.938,-0.384395,0.0,0.0
784,195.75,45.0313,45.803,130.366,105.467,109.226,0.00280448,0.271275,20.7294,112.668,-0.316799,0.0,0.0
791,197.5,45.2601,45.7442,131.664,105.474,108.434,0.00266699,0.269778,20.7314,112.528,-0.250294,0.0,0.0
798,199.25,45.1634,46.654,128.267,105.478,109.279,0.00251081,0.268399,20.7326,112.358,-0.32025,0.0,0.0
805,201,44.8898,46.2692,132.453,105.471,108.801,0.00241662,0.266808,20.7325,112.168,-0.281224,0.0,0.0
812,202.75,44.9819,46.5726,124.743,105.462,108.9,0.00244704,0.265777,20.7321,111.947,-0.290116,0.0,0.0
819,204.5,45.403,46.6314,135.159,105.462,108.374,0.00255057,0.26523,20.732,111.797,-0.246407,0.0,0.0
826,206.25,45.1938,46.5713,130.957,105.475,109.179,0.00264359,0.265889,20.7314,111.637,-0.312137,0.0,0.0
833,208,45.3819,46.5969,130.644,105.466,109.383,0.00267,0.266778,20.7304,111.477,-0.329822,0.0,0.0
840,209.75,45.7002,46.3092,134.103,105.457,109.111,0.00267239,0.267311,20.729,111.267,-0.308098,0.0,0.0
847,211.5,45.3589,46.809,132.886,105.448,109.77,0.0026617,0.268915,20.7273,111.047,-0.36333,0.0,0.0
854,213.25,45.5843,46.8586,132.537,105.457,108.815,0.00263242,0.271345,20.7242,110.907,-0.283546,0.0,0.0
861,215,45.3122,46.9274,129.557,105.453,108.615,0.002646,0.273676,20.7211,110.716,-0.267245,0.0,0.0
868,216.75,45.5966,47.0999,131.468,105.456,108.818,0.00267427,0.275687,20.7195,110.516,-0.28389,0.0,0.0
875,218.5,45.7446,47.4545,126.482,105.442,108.97,0.0026606,0.276564,20.7189,110.306,-0.297699,0.0,0.0
882,220.25,45.6075,47.4693,128.486,105.442,108.659,0.00262673,0.275944,20.7201,110.126,-0.271871,0.0,0.0
889,222,45.6366,47.5831,130.324,105.455,108.308,0.00257604,0.273916,20.7221,109.986,-0.241427,0.0,0.0
896,223.75,45.6785,47.5432,131.708,105.47,108.221,0.00250909,0.272133,20.7233,109.816,-0.232958,0.0,0.0
903,225.5,45.5832,47.7291,129.899,105.451,108.653,0.00245536,0.270896,20.725,109.635,-0.27057,0.0,0.0
910,227.25,45.8803,47.7595,130.676,105.441,109.128,0.00240627,0.269787,20.7258,109.405,-0.310829,0.0,0.0
917,229,45.8532,47.6224,134.018,105.443,109.555,0.00234818,0.269117,20.7262,109.255,-0.346018,0.0,0.0
924,230.75,45.8346,48.0677,131.283,105.452,109.052,0.00229437,0.268182,20.727,109.075,-0.303591,0.0,0.0
931,232.5,45.9639,48.0066,129.58,105.453,108.65,0.00226716,0.266821,20.729,108.915,-0.270192,0.0,0.0
938,234.25,46.1042,48.1598,132.03,105.444,108.595,0.00226592,0.265215,20.7306,108.695,-0.266412,0.0,0.0
945,236,46.1257,48.5114,129.965,105.439,108.493,0.00223956,0.263965,20.7313,108.565,-0.258275,0.0,0.0
952,237.75,45.8597,48.4703,124.348,105.45,109.12,0.00219798,0.26201,20.7335,108.384,-0.309412,0.0,0.0
959,239.5,45.9467,48.5052,131.098,105.442,108.788,0.00216606,0.261091,20.7351,108.214,-0.282569,0.0,0.0
966,241.25,46.0419,48.4739,124.833,105.437,109.58,0.00213324,0.262113,20.7344,108.034,-0.348602,0.0,0.0
973,243,45.9898,48.1721,132.087,105.426,109.295,0.0020876,0.263696,20.7339,107.824,-0.32602,0.0,0.0
980,244.75,46.0805,48.1943,129.712,105.44,108.541,0.00211529,0.264473,20.7337,107.684,-0.262238,0.0,0.0
987,246.5,45.8896,48.549,137.515,105.435,108.972,0.00213617,0.263873,20.7335,107.494,-0.298469,0.0,0.0
994,248.25,45.918,48.7765,135.193,105.436,109.696,0.00209206,0.26193,20.7353,107.323,-0.358241,0.0,0.0
1001,250,45.839,48.6563,133.848,105.424,108.312,0.00203419,0.259887,20.7382,107.123,-0.244498,0.0,0.0
1008,251.75,46.0806,48.9031,131.432,105.422,108.683,0.0020209,0.25778,20.7402,106.993,-0.275516,0.0,0.0
1015,253.5,45.6255,48.1639,130.827,105.434,108.513,0.00205478,0.256274,20.743,106.853,-0.26038,0.0,0.0
1022,255.25,45.6199,48.6604,131.183,105.419,108.001,0.00205799,0.254651,20.7453,106.673,-0.218876,0.0,0.0
1029,257,45.7263,48.6344,132.939,105.417,109.651,0.00200856,0.25363,20.7472,106.433,-0.356259,0.0,0.0
1036,258.75,45.6334,48.2919,132.968,105.401,108.41,0.00198376,0.252262,20.7489,106.273,-0.254585,0.0,0.0
1043,260.5,45.5659,48.2871,134.853,105.414,109.455,0.00207842,0.250704,20.7513,106.182,-0.340248,0.0,0.0
1050,262.25,45.4249,48.552,132.739,105.407,108.583,0.00222086,0.248839,20.7539,106.012,-0.268522,0.0,0.0
1057,264,45.4301,48.309,128.402,105.401,108.326,0.00227816,0.246955,20.7563,105.832,-0.247585,0.0,0.0
1064,265.75,45.5889,48.4141,131.152,105.389,107.832,0.00218764,0.244119,20.7598,105.612,-0.207316,0.0,0.0
1071,267.5,45.3052,48.2752,129.931,105.415,107.491,0.00205897,0.241539,20.7627,105.502,-0.176383,0.0,0.0
1078,269.25,45.4217,48.4955,134.535,105.397,108.408,0.00200976,0.238876,20.7646,105.362,-0.254792,0.0,0.0
1085,271,45.4517,48.075,131.247,105.389,108.466,0.00208567,0.236179,20.7671,105.232,-0.260374,0.0,0.0
1092,272.75,45.0694,48.0637,134.083,105.37,109.049,0.00224027,0.233177,20.7687,105.001,-0.310507,0.0,0.0
1099,274.5,44.8674,47.8489,130.355,105.361,108.222,0.0023066,0.230667,20.7725,104.891,-0.242357,0.0,0.0
1106,276.25,44.7277,48.0826,133.929,105.365,109.12,0.00231403,0.227996,20.7761,104.741,-0.316775,0.0,0.0
1113,278,44.6155,48.0928,138.465,105.348,108.587,0.00238321,0.225629,20.7806,104.571,-0.273909,0.0,0.0
1120,279.75,44.7148,47.9166,132.905,105.329,107.591,0.00251422,0.222503,20.7844,104.451,-0.192172,0.0,0.0
1127,281.5,44.5146,47.7871,139.134,105.309,107.426,0.00263045,0.219129,20.7878,104.261,-0.180004,0.0,0.0
1134,283.25,44.3633,47.6539,133.348,105.313,107.981,0.00264233,0.216242,20.7918,104.171,-0.22623,0.0,0.0
1141,285,43.8863,47.2301,131.705,105.316,108.938,0.00260496,0.213021,20.7957,104.031,-0.305878,0.0,0.0
1148,286.75,43.8308,47.2505,135.843,105.29,107.774,0.00255508,0.209263,20.8001,103.88,-0.210887,0.0,0.0
1155,288.5,43.7112,47.2384,132.715,105.258,108.322,0.0025202,0.206573,20.8037,103.7,-0.259539,0.0,0.0
1162,290.25,43.428,46.9977,132.975,105.248,108.072,0.00253208,0.204835,20.8066,103.58,-0.239506,0.0,0.0
1169,292,43.7502,46.9158,135.664,105.243,107.892,0.00254162,0.203259,20.8089,103.49,-0.224878,0.0,0.0
1176,293.75,42.4918,47.2995,132.995,105.217,108.037,0.00246508,0.201589,20.8111,103.36,-0.239194,0.0,0.0
1183,295.5,43.4967,45.7565,130.194,105.185,108.21,0.0023423,0.200221,20.812,103.17,-0.256487,0.0,0.0
1190,297.25,43.2986,46.5891,137.224,105.158,107.884,0.00235077,0.197899,20.8139,103.04,-0.231483,0.0,0.0
1197,299,42.7364,46.2591,135.659,105.146,107.512,0.00247208,0.195327,20.8171,102.92,-0.201283,0.0,0.0
1204,300.75,42.2763,46.2932,136.956,105.123,107.342,0.00253293,0.192998,20.82,102.83,-0.188966,0.0,0.0
1211,302.5,42.4438,46.0776,130.918,105.099,107.424,0.00251518,0.191534,20.8218,102.679,-0.197947,0.0,0.0
1218,304.25,43.2546,45.2185,132.685,105.064,107.553,0.00246335,0.190154,20.8237,102.529,-0.211746,0.0,0.0
1225,306,42.1486,45.7091,132.585,105.041,107.749,0.00242682,0.188385,20.8256,102.429,-0.230223,0.0,0.0
1232,307.75,42.2209,45.8481,135.155,105.022,107.591,0.0024212,0.187065,20.8271,102.339,-0.2186,0.0,0.0
1239,309.5,42.2433,45.5978,134.673,104.989,108.127,0.00240689,0.185871,20.8288,102.219,-0.26636,0.0,0.0
1246,311.25,41.6692,45.4944,136.044,104.958,107.56,0.00239271,0.184631,20.8314,102.049,-0.221549,0.0,0.0
1253,313,41.699,44.9986,130.617,104.913,108.138,0.00242145,0.183394,20.8332,101.969,-0.273926,0.0,0.0
1260,314.75,41.5641,45.3645,134.806,104.893,107.053,0.0024706,0.18153,20.8352,101.839,-0.184404,0.0,0.0
1267,316.5,41.5049,44.7629,134.509,104.857,107.332,0.00244674,0.180044,20.8362,101.729,-0.211046,0.0,0.0
1274,318.25,41.3378,44.6621,135.893,104.835,107.118,0.00238279,0.179172,20.838,101.588,-0.194831,0.0,0.0
1281,320,41.2899,44.3922,133.651,104.791,107.969,0.00232369,0.17849,20.8395,101.478,-0.270237,0.0,0.0
1288,321.75,40.8864,44.6071,136.034,104.78,108.019,0.00224079,0.177852,20.8411,101.408,-0.275393,0.0,0.0
1295,323.5,40.7099,44.1926,134.005,104.747,107.165,0.00216001,0.176942,20.8428,101.308,-0.206503,0.0,0.0
1302,325.25,40.801,44.294,133.442,104.748,106.79,0.00215847,0.175758,20.8441,101.178,-0.174576,0.0,0.0
1309,327,40.5221,43.8892,131.306,104.733,107.947,0.00220286,0.175229,20.8448,100.928,-0.2734,0.0,0.0
1316,328.75,40.2715,43.9391,131.252,104.736,107.774,0.00226992,0.17454,20.8453,100.848,-0.258651,0.0,0.0
1323,330.5,40.2867,43.7291,132.04,104.721,106.929,0.00231338,0.173667,20.8466,100.778,-0.188699,0.0,0.0
1330,332.25,40.3669,43.7882,128.607,104.701,107.878,0.00231788,0.173013,20.8478,100.718,-0.270397,0.0,0.0
1337,334,40.4633,43.6188,137.794,104.687,108.207,0.0022913,0.172423,20.8489,100.497,-0.299169,0.0,0.0
1344,335.75,40.1066,43.1601,131.583,104.674,107.597,0.00222868,0.172104,20.8495,100.427,-0.249117,0.0,0.0
1351,337.5,39.8641,43.042,134.532,104.6875,107.751,0.00218669,0.171769,20.8497,100.307,-0.260897,0.0,0.0
1358,339.25,39.7037,43.3181,134.885,104.678,107.201,0.00212192,0.171462,20.8496,100.297,-0.215405,0.0,0.0
1365,341,39.8605,42.789,133.872,104.68,106.912,0.00206294,0.171735,20.8491,100.187,-0.190784,0.0,0.0
1372,342.75,39.8423,42.9861,135.513,104.66,108.449,0.00204563,0.171974,20.8492,99.977,-0.321729,0.0,0.0
1379,344.5,39.5062,42.815,136.688,104.674,107.379,0.00209964,0.171367,20.8499,99.957,-0.230734,0.0,0.0
1386,346.25,39.6985,43.0548,136.432,104.693,108.277,0.00218767,0.170908,20.8508,99.8669,-0.304422,0.0,0.0
1393,348,39.5084,42.6829,133.893,104.718,107.454,0.00222696,0.170723,20.8512,99.7468,-0.233324,0.0,0.0
1400,349.75,39.2225,42.6082,134.151,104.738,106.672,0.00211939,0.170657,20.8515,99.5967,-0.165504,0.0,0.0
1407,351.5,39.8322,42.4505,141.105,104.755,107.773,0.00199596,0.170467,20.8515,99.4966,-0.256893,0.0,0.0
1414,353.25,39.4213,42.354,134.65,104.795,107.866,0.00191625,0.170999,20.8516,99.4065,-0.261278,0.0,0.0
1421,355,39.2909,41.9625,135.196,104.82,107.381,0.00191966,0.17115,20.8516,99.2364,-0.218376,0.0,0.0
1428,356.75,39.409,42.0519,139.486,104.84,107.157,0.00194249,0.170598,20.8516,99.1964,-0.197694,0.0,0.0
1435,358.5,39.0721,41.8474,136.589,104.861,107.892,0.00194539,0.170457,20.8516,99.0262,-0.257737,0.0,0.0
1442,360.25,38.9092,41.8029,133.283,104.906,108.66,0.00193199,0.170931,20.8516,98.9762,-0.31804,0.0,0.0
1449,362,38.9184,41.6851,134.355,104.963,107.482,0.00193613,0.171186,20.8516,98.8561,-0.214454,0.0,0.0
1456,363.75,38.7217,41.7608,135.354,104.997,108.079,0.00198539,0.171514,20.8514,98.7259,-0.261692,0.0,0.0
1463,365.5,38.8565,41.5113,136.527,105.044,107.761,0.00214429,0.172109,20.8499,98.5558,-0.230949,0.0,0.0
1470,367.25,38.3151,41.5198,132.615,105.094,108.487,0.00221905,0.172943,20.8482,98.5358,-0.287439,0.0,0.0
1477,369,39.133,41.5779,138.816,105.146,107.429,0.00215793,0.174078,20.8464,98.4557,-0.1943,0.0,0.0
1484,370.75,38.731,41.4071,134.315,105.199,107.801,0.00209715,0.174978,20.8455,98.3456,-0.221039,0.0,0.0
1491,372.5,38.7552,41.0963,136.218,105.234,107.705,0.00213419,0.175626,20.8451,98.2055,-0.20993,0.0,0.0
1498,374.25,38.6763,41.5618,136.57,105.288,107.714,0.00220633,0.176109,20.8445,98.0554,-0.206063,0.0,0.0
1505,376,38.594,41.0072,133.79,105.329,107.315,0.00226745,0.1767,20.8434,98.0554,-0.168957,0.0,0.0
1512,377.75,38.6189,41.1815,133.971,105.34,107.124,0.00231493,0.177534,20.842,97.9653,-0.151906,0.0,0.0
1519,379.5,38.2592,41.126,133.175,105.391,108.386,0.00236686,0.178632,20.8411,97.7951,-0.253474,0.0,0.0
1526,381.25,38.648,41.3258,131.534,105.4,108.606,0.00238052,0.179679,20.8394,97.635,-0.271077,0.0,0.0
1533,383,38.4951,41.3228,132.575,105.413,107.933,0.00230932,0.180512,20.8386,97.585,-0.213683,0.0,0.0
1540,384.75,38.6861,41.1721,132.539,105.438,108.068,0.00219237,0.181683,20.8376,97.4949,-0.222858,0.0,0.0
1547,386.5,38.759,40.9043,133.689,105.451,107.926,0.00214243,0.18332,20.8357,97.3848,-0.209835,0.0,0.0
1554,388.25,38.8845,40.6405,135.026,105.433,108.517,0.00223888,0.184503,20.8333,97.2246,-0.260763,0.0,0.0
1561,390,38.9028,41.2258,130.77,105.415,108.024,0.00231584,0.185367,20.8311,97.0945,-0.221153,0.0,0.0
1568,391.75,38.9982,40.5462,137.129,105.408,107.363,0.00226315,0.186751,20.8294,97.0145,-0.166293,0.0,0.0
1575,393.5,38.7222,41.2098,136.627,105.387,108.33,0.00220796,0.188096,20.8278,96.8643,-0.249095,0.0,0.0
1582,395.25,38.9704,41.1463,134.82,105.36,107.001,0.00221568,0.188666,20.8271,96.7042,-0.139775,0.0,0.0
1589,397,38.8164,41.0781,133.884,105.319,107.251,0.00223296,0.189543,20.8256,96.5941,-0.164414,0.0,0.0
1596,398.75,38.4607,40.6302,137.24,105.288,106.8,0.00219476,0.192675,20.8223,96.534,-0.129032,0.0,0.0
1603,400.5,38.501,41.4078,136.304,105.244,107.828,0.00204991,0.196541,20.8165,96.4139,-0.219379,0.0,0.0
1610,402.25,38.6613,40.8918,133.771,105.203,108.487,0.00192298,0.200348,20.8117,96.2938,-0.278022,0.0,0.0
1617,404,39.0668,40.5638,133.957,105.144,107.835,0.00187182,0.203686,20.8069,96.1637,-0.228579,0.0,0.0
1624,405.75,38.702,41.5082,132.388,105.139,107.951,0.0018838,0.206776,20.8039,96.0536,-0.23874,0.0,0.0
1631,407.5,39.334,41.2971,136.559,105.089,107.92,0.00196081,0.209603,20.8004,95.9135,-0.240414,0.0,0.0
1638,409.25,39.5165,41.0323,131.575,105.042,108.05,0.00204984,0.212734,20.7965,95.7834,-0.255453,0.0,0.0
1645,411,40.0016,41.4555,130.584,105.008,107.277,0.00212368,0.21586,20.7942,95.6333,-0.19337,0.0,0.0
1652,412.75,39.5035,41.6024,132.228,104.964,107.063,0.00214328,0.218772,20.7916,95.4631,-0.17907,0.0,0.0
1659,414.5,39.7871,41.5462,133.394,104.961,106.806,0.00212159,0.222803,20.7862,95.4131,-0.157656,0.0,0.0
1666,416.25,40.1192,41.2471,134.752,104.927,107.239,0.00209857,0.227336,20.7794,95.2429,-0.197178,0.0,0.0
1673,418,39.9265,42.0111,131.917,104.911,107.726,0.0021119,0.231103,20.7748,95.1128,-0.239452,0.0,0.0
1680,419.75,40.0637,41.8389,136.087,104.905,107.963,0.00215066,0.233765,20.7707,94.8826,-0.259883,0.0,0.0
1687,421.5,39.9719,42.2819,133.081,104.892,107.504,0.00219863,0.237355,20.7672,94.8125,-0.222456,0.0,0.0
1694,423.25,40.4696,42.6635,133.296,104.883,107.248,0.00221624,0.241087,20.7622,94.6624,-0.201717,0.0,0.0
1701,425,40.533,42.0728,134.71,104.882,108.096,0.00220098,0.244309,20.7587,94.5223,-0.272965,0.0,0.0
1708,426.75,41.319,42.3082,136.495,104.872,107.686,0.00221962,0.247085,20.7554,94.3621,-0.239516,0.0,0.0
1715,428.5,40.573,42.7395,134.264,104.878,106.813,0.00229795,0.250057,20.7506,94.172,-0.165425,0.0,0.0
1722,430.25,41.1914,42.8553,129.992,104.89,107.729,0.00237882,0.252468,20.7474,94.0619,-0.241547,0.0,0.0
1729,432,41.4274,43.2388,131.233,104.884,106.894,0.00238639,0.253833,20.7456,93.9017,-0.171703,0.0,0.0
1736,433.75,41.677,43.0597,130.031,104.887,108.453,0.00238021,0.255594,20.7441,93.7616,-0.302485,0.0,0.0
1743,435.5,42.088,43.415,134.346,104.905,108.405,0.00243711,0.258673,20.7418,93.5615,-0.296877,0.0,0.0
1750,437.25,42.3286,43.0675,130.895,104.919,108.482,0.00251135,0.261585,20.7383,93.4413,-0.302123,0.0,0.0
1757,439,42.2058,43.8071,134.614,104.918,108.407,0.00253702,0.264275,20.7355,93.2712,-0.295902,0.0,0.0
1764,440.75,42.6955,43.8205,132.184,104.947,108.096,0.00248862,0.265963,20.734,93.1111,-0.267466,0.0,0.0
1771,442.5,42.3492,43.9384,132.823,104.962,107.61,0.00234281,0.266921,20.7329,92.9209,-0.225373,0.0,0.0
1778,444.25,42.3356,44.3616,127.826,104.967,107.433,0.00215705,0.269888,20.7288,92.8208,-0.210009,0.0,0.0
1785,446,43.1839,44.3978,135.98,105.009,108.482,0.00203498,0.272998,20.7254,92.6206,-0.294329,0.0,0.0
1792,447.75,43.1973,44.8136,129.023,105.018,107.562,0.00195183,0.275991,20.7217,92.4905,-0.216496,0.0,0.0
1799,449.5,42.9651,44.9379,127.685,105.037,108.777,0.00193977,0.278927,20.7183,92.2903,-0.316477,0.0,0.0
1806,451.25,43.2675,44.4381,132.748,105.042,108.875,0.00199887,0.282126,20.715,92.0902,-0.324206,0.0,0.0
1813,453,43.7142,44.7786,132.749,105.072,108.73,0.00206437,0.284187,20.7134,91.9901,-0.30958,0.0,0.0
1820,454.75,43.9944,45.4219,134.725,105.095,108.424,0.00220254,0.285404,20.7117,91.7999,-0.282049,0.0,0.0
1827,456.5,43.7772,45.5684,128.713,105.129,107.526,0.00237049,0.286595,20.711,91.6298,-0.203949,0.0,0.0
1834,458.25,44.4427,45.5183,133.628,105.143,107.309,0.00246521,0.287274,20.709,91.3996,-0.184433,0.0,0.0
1841,460,44.3175,45.6583,126.808,105.163,108.803,0.00244173,0.29058,20.7049,91.2594,-0.307806,0.0,0.0
1848,461.75,44.618,46.4331,125.546,105.206,109.592,0.00241608,0.294949,20.7004,91.0693,-0.369418,0.0,0.0
1855,463.5,45.3193,45.6126,127.844,105.239,108.635,0.00247377,0.298128,20.6956,90.8891,-0.2872,0.0,0.0
1862,465.25,44.8947,46.214,128.833,105.248,109.282,0.00246475,0.301907,20.6912,90.6889,-0.340295,0.0,0.0
1869,467,45.4361,46.4737,131.019,105.268,108.208,0.00235875,0.30453,20.6885,90.5288,-0.249174,0.0,0.0
1876,468.75,45.5363,46.605,126.05,105.302,108.983,0.00224336,0.30727,20.6862,90.3887,-0.310751,0.0,0.0
1883,470.5,45.8383,46.9632,129.941,105.341,108.83,0.00221352,0.309411,20.684,90.1985,-0.294721,0.0,0.0
1890,472.25,45.9267,46.83,131.382,105.367,108.79,0.00229319,0.310455,20.6828,90.0084,-0.289179,0.0,0.0
1897,474,46.1731,47.2561,129.203,105.366,108.586,0.00241149,0.311666,20.6814,89.7782,-0.272236,0.0,0.0
1904,475.75,45.9903,47.2415,128.423,105.397,108.396,0.00250549,0.313508,20.6802,89.6681,-0.253818,0.0,0.0
1911,477.5,46.5965,47.6851,130.125,105.42,108.628,0.00253093,0.314885,20.6787,89.4679,-0.271233,0.0,0.0
1918,479.25,46.7451,47.7726,125.23,105.433,109.59,0.00251657,0.316625,20.6772,89.2877,-0.34981,0.0,0.0
1925,481,46.4176,48.2821,131.824,105.452,108.543,0.00245288,0.318487,20.6751,89.0675,-0.261378,0.0,0.0
1932,482.75,47.2233,48.6782,125.299,105.452,109.145,0.00239884,0.320572,20.672,88.9274,-0.311276,0.0,0.0
1939,484.5,47.2016,48.4813,129.398,105.466,108.495,0.00244663,0.324042,20.6669,88.7172,-0.256144,0.0,0.0
1946,486.25,47.1786,48.721,131.782,105.471,109.234,0.00254665,0.327592,20.6627,88.5371,-0.317129,0.0,0.0
1953,488,47.6906,49.0218,128.345,105.472,109.379,0.00261725,0.330337,20.6607,88.3169,-0.329041,0.0,0.0
1960,489.75,47.9992,48.8816,129.328,105.463,110.523,0.00261569,0.331944,20.6592,88.0667,-0.423839,0.0,0.0
1967,491.5,47.8262,49.5238,125.416,105.481,108.159,0.00257354,0.332873,20.6579,87.9265,-0.226798,0.0,0.0
1974,493.25,48.4669,49.6414,130.117,105.465,108.731,0.00250924,0.334266,20.6564,87.7464,-0.275922,0.0,0.0
1981,495,48.3418,49.549,131.996,105.461,109.111,0.00238422,0.335329,20.655,87.5062,-0.307774,0.0,0.0
1988,496.75,49.0878,50.3018,128.97,105.46,109.75,0.00231765,0.337443,20.6518,87.2459,-0.360666,0.0,0.0
1995,498.5,48.7089,50.6754,126.921,105.423,109.439,0.00239447,0.34001,20.6491,87.0858,-0.338179,0.0,0.0
2002,500.25,49.29,50.4489,129.415,105.426,109.67,0.00253687,0.342355,20.6467,86.8856,-0.357,0.0,0.0
2009,502,49.1702,50.8572,128.632,105.403,108.741,0.00265616,0.344567,20.6445,86.7055,-0.282065,0.0,0.0
2016,503.75,49.9549,51.4142,130.444,105.384,109.036,0.00277246,0.346253,20.6453,86.4753,-0.308078,0.0,0.0
2023,505.5,49.3968,51.5741,130.76,105.353,108.068,0.0028169,0.349022,20.6434,86.215,-0.230148,0.0,0.0
2030,507.25,49.7462,51.5718,129.463,105.346,108.656,0.00275822,0.351411,20.6419,86.0749,-0.279873,0.0,0.0
2037,509,50.1475,51.8022,126.249,105.336,107.677,0.00268592,0.354242,20.6399,85.8247,-0.198835,0.0,0.0
2044,510.75,50.126,51.2842,130.144,105.318,108.211,0.00267791,0.357467,20.6371,85.6345,-0.245084,0.0,0.0
2051,512.5,50.4903,51.9757,129.919,105.284,109.283,0.00272858,0.361509,20.6317,85.3443,-0.337249,0.0,0.0
2058,514.25,50.8662,52.9658,133.049,105.267,108.97,0.00282182,0.365249,20.6268,85.1541,-0.312755,0.0,0.0
2065,516,51.123,52.2197,127.689,105.23,109.623,0.00302303,0.370205,20.6219,84.974,-0.369961,0.0,0.0
2072,517.75,50.8085,52.6949,127.006,105.193,108.128,0.00319844,0.375749,20.6139,84.7538,-0.248867,0.0,0.0
2079,519.5,51.5896,52.9672,126.095,105.164,108.623,0.00325244,0.382956,20.6049,84.4836,-0.292735,0.0,0.0
2086,521.25,51.9071,53.3066,122.468,105.122,108.1,0.00327799,0.391191,20.5948,84.2533,-0.252748,0.0,0.0
2093,523,52.2859,53.395,128.704,105.119,108.551,0.00342144,0.399696,20.5868,83.9631,-0.290576,0.0,0.0
2100,524.75,52.5842,54.1708,126.051,105.066,108.757,0.00361492,0.407944,20.5797,83.7429,-0.312337,0.0,0.0
2107,526.5,52.8899,54.4733,129.038,105.054,108.18,0.0038267,0.417399,20.5681,83.4827,-0.265305,0.0,0.0
2114,528.25,53.3875,55.2334,125.331,105.009,106.566,0.00393617,0.427739,20.5519,83.1624,-0.133164,0.0,0.0
2121,530,54.0437,55.1351,123.624,104.998,107.424,0.00388614,0.440045,20.5357,82.9122,-0.206606,0.0,0.0
2128,531.75,54.3363,55.5487,124.265,104.96,108.189,0.00383346,0.449927,20.5213,82.6419,-0.274053,0.0,0.0
2135,533.5,54.9072,55.9093,126.421,104.926,105.642,0.00398202,0.462535,20.5035,82.3717,-0.0614837,0.0,0.0
2142,535.25,55.6308,56.3385,125.155,104.88,107.03,0.00424148,0.477824,20.4857,82.0114,-0.18353,0.0,0.0
2149,537,55.7852,56.8119,120.624,104.854,106.609,0.00454004,0.493193,20.4656,81.7312,-0.150138,0.0,0.0
2156,538.75,56.2774,57.5665,121.808,104.836,106.118,0.00485722,0.507519,20.4447,81.4409,-0.109915,0.0,0.0
2163,540.5,57.273,58.4625,120.986,104.796,106.319,0.00509325,0.525083,20.4233,81.1306,-0.130514,0.0,0.0
2170,542.25,57.6865,58.8005,120.844,104.764,106.656,0.00518484,0.539774,20.4064,80.8003,-0.161895,0.0,0.0
2177,544,58.6356,59.5544,118.102,104.713,106.184,0.00520382,0.551042,20.3937,80.41,-0.126168,0.0,0.0
2184,545.75,59.3165,60.1436,121.907,104.7,105.24,0.00522822,0.561199,20.3851,80.1598,-0.0465151,0.0,0.0
2191,547.5,60.2603,60.8497,118.49,104.677,107.166,0.00532342,0.569835,20.3763,79.8295,-0.212567,0.0,0.0
2198,549.25,60.8182,61.6726,118.475,104.644,103.702,0.00546566,0.576187,20.3683,79.5192,0.081751,0.0,0.0
2205,551,61.5548,62.3764,118.364,104.604,104.887,0.00564967,0.583596,20.3592,79.1289,-0.024415,0.0,0.0
2212,552.75,62.1258,62.7191,115.874,104.576,104.498,0.0058138,0.589377,20.3511,78.8587,0.00681556,0.0,0.0
2219,554.5,63.1461,63.7052,115.617,104.554,104.976,0.00590034,0.593298,20.3457,78.4983,-0.0364375,0.0,0.0
2226,556.25,63.6535,64.4449,118.942,104.522,104.536,0.00583603,0.594481,20.3431,78.1781,-0.00124715,0.0,0.0
2233,558,64.3403,65.0375,116.699,104.48,105.878,0.00570716,0.592847,20.3425,77.8378,-0.120165,0.0,0.0
2240,559.75,64.3302,65.8669,118.664,104.428,104.893,0.00560743,0.588963,20.3463,77.5275,-0.0402265,0.0,0.0
2247,561.5,64.787,66.0441,122.222,104.406,104.031,0.00545992,0.58221,20.3539,77.2472,0.0324827,0.0,0.0
2254,563.25,64.9608,66.5941,122.393,104.388,105.774,0.00523178,0.57581,20.3602,76.957,-0.119268,0.0,0.0
2261,565,64.9398,67.0419,118.984,104.352,105.519,0.00491598,0.570783,20.3642,76.6367,-0.100604,0.0,0.0
2268,566.75,65.7462,67.069,119.38,104.299,106.527,0.00465463,0.566724,20.3676,76.3465,-0.191176,0.0,0.0
2275,568.5,66.3502,67.8608,116.802,104.275,107.318,0.00447047,0.563529,20.3692,76.0662,-0.260212,0.0,0.0
2282,570.25,66.6257,68.1039,120.226,104.243,106.669,0.00434828,0.560899,20.3699,75.776,-0.208068,0.0,0.0
2289,572,67.1616,68.1371,124.746,104.185,106.7,0.00411079,0.560387,20.3706,75.5057,-0.215815,0.0,0.0
2296,573.75,66.834,68.8129,120.729,104.158,106.248,0.00398454,0.560725,20.37,75.1955,-0.179707,0.0,0.0
2303,575.5,67.4469,69.07,118.659,104.112,106.86,0.00399224,0.560378,20.3695,74.8752,-0.235665,0.0,0.0
2310,577.25,67.2847,69.2942,119.799,104.1,107.506,0.00404489,0.55768,20.3716,74.635,-0.291247,0.0,0.0
2317,579,66.8375,69.6812,117.08,104.06,105.226,0.00403902,0.552439,20.3766,74.3848,-0.100805,0.0,0.0
2324,580.75,67.2664,70.2875,122.854,104.018,105.345,0.00399389,0.548482,20.3798,74.0845,-0.114648,0.0,0.0
2331,582.5,67.8105,69.9239,123.036,103.994,106.446,0.00395559,0.544161,20.3863,73.7842,-0.210832,0.0,0.0
2338,584.25,67.2234,70.2857,123.176,103.964,104.861,0.0039463,0.536016,20.3952,73.5741,-0.0776675,0.0,0.0
2345,586,67.1444,70.1847,121.464,103.939,105.228,0.00394385,0.527788,20.4047,73.2838,-0.111479,0.0,0.0
2352,587.75,67.013,70.2955,126.925,103.929,104.749,0.00387186,0.519358,20.4143,73.0136,-0.0710687,0.0,0.0
2359,589.5,67.3475,70.6357,124.531,103.902,104.265,0.0037606,0.513003,20.4224,72.7533,-0.0315003,0.0,0.0
2366,591.25,66.879,70.3467,122.089,103.89,104.412,0.00369535,0.505654,20.4309,72.4731,-0.0452909,0.0,0.0
2373,593,66.7676,70.3352,118.855,103.866,105.036,0.00370452,0.498634,20.4381,72.3029,-0.101297,0.0,0.0
2380,594.75,67.1991,70.5035,122.215,103.839,104.284,0.00377022,0.490831,20.4453,72.0627,-0.0387184,0.0,0.0
2387,596.5,66.9047,70.5531,122.285,103.814,103.832,0.00386287,0.48301,20.4545,71.8125,-0.00158147,0.0,0.0
2394,598.25,66.3736,70.2646,125.543,103.78,105.537,0.00390336,0.471871,20.4691,71.5423,-0.151862,0.0,0.0
2401,600,66.4725,70.7334,128.627,103.775,104.056,0.00376131,0.460756,20.4815,71.3821,-0.0244583,0.0,0.0
2408,601.75,66.3255,70.1858,124.44,103.767,103.784,0.00350742,0.449406,20.4965,71.182,-0.00140784,0.0,0.0
2415,603.5,65.8629,70.0203,127.309,103.75,105.727,0.00331475,0.43571,20.5127,70.9818,-0.170754,0.0,0.0
2422,605.25,65.5886,69.7757,127.374,103.729,105.021,0.00321316,0.423251,20.5278,70.7216,-0.11202,0.0,0.0
2429,607,65.548,69.5722,122.782,103.698,105.729,0.00316889,0.411701,20.5424,70.5814,-0.175444,0.0,0.0
2436,608.75,64.8422,69.5649,129.307,103.681,106.1,0.00319522,0.398338,20.5588,70.3913,-0.208625,0.0,0.0
2443,610.5,64.6452,68.9835,124.601,103.68,104.988,0.00325806,0.385147,20.574,70.2211,-0.113411,0.0,0.0
2450,612.25,63.6617,68.5111,128.418,103.656,105.965,0.00326279,0.372596,20.5889,70.041,-0.199278,0.0,0.0
2457,614,63.6304,68.4124,125.914,103.633,105.269,0.00311916,0.361016,20.6051,69.8408,-0.141747,0.0,0.0
2464,615.75,63.2605,68.3957,127.619,103.634,106.294,0.00292445,0.346293,20.6216,69.7407,-0.229222,0.0,0.0
2471,617.5,62.4297,67.7488,132.315,103.614,105.72,0.00275731,0.331759,20.6366,69.5806,-0.182029,0.0,0.0
2478,619.25,62.1202,67.5001,126.971,103.599,105.292,0.00265798,0.318718,20.6489,69.4605,-0.146623,0.0,0.0
2485,621,61.2663,66.995,129.849,103.583,105.845,0.00261253,0.305288,20.6652,69.2503,-0.195434,0.0,0.0
2492,622.75,60.9757,66.0097,131.54,103.57,106.066,0.00258519,0.293925,20.6871,69.1902,-0.215425,0.0,0.0
2499,624.5,60.4535,66.1621,130.197,103.578,106.286,0.00260802,0.278817,20.7068,69.0801,-0.233453,0.0,0.0
2506,626.25,59.4267,65.101,132.678,103.562,106.996,0.00269899,0.264304,20.7206,68.97,-0.295067,0.0,0.0
2513,628,59.015,64.5993,133.172,103.543,107.106,0.00287654,0.252643,20.7339,68.8299,-0.306055,0.0,0.0
2520,629.75,58.3966,64.1638,133.397,103.524,107.518,0.00299844,0.242721,20.7473,68.7298,-0.342423,0.0,0.0
2527,631.5,57.2914,63.4221,136.289,103.531,107.219,0.00303931,0.231215,20.7614,68.7098,-0.316641,0.0,0.0
2534,633.25,56.826,63.0042,132.85,103.535,108.129,0.00309961,0.220777,20.7727,68.5897,-0.392765,0.0,0.0
2541,635,56.3805,62.4318,130.281,103.514,107.791,0.00327415,0.211964,20.7843,68.4796,-0.366206,0.0,0.0
2548,636.75,55.3068,61.7033,134.757,103.495,107.459,0.00352794,0.205917,20.7924,68.2794,-0.339994,0.0,0.0
2555,638.5,54.3078,61.2768,136.57,103.509,107.278,0.00372265,0.200051,20.7991,68.2895,-0.323511,0.0,0.0
2562,640.25,54.7346,60.9818,135.275,103.498,106.802,0.00380152,0.193895,20.8055,68.2494,-0.284285,0.0,0.0
2569,642,53.5687,60.1017,133.343,103.493,107.142,0.00386283,0.18857,20.8128,68.1593,-0.313442,0.0,0.0
2576,643.75,52.7776,59.0899,132.271,103.49,107.431,0.00401776,0.181939,20.8226,67.9792,-0.338008,0.0,0.0
2583,645.5,52.5859,59.1452,134.926,103.488,105.755,0.00419217,0.175522,20.8312,68.0492,-0.19598,0.0,0.0
2590,647.25,51.7285,58.0671,131.057,103.497,106.273,0.00429083,0.169286,20.8379,68.0192,-0.239359,0.0,0.0
2597,649,51.2917,57.8551,131.042,103.502,106.82,0.00432009,0.163202,20.8445,67.9391,-0.285451,0.0,0.0
2604,650.75,50.2371,57.2036,135.998,103.494,107.343,0.00438286,0.157453,20.8518,67.8791,-0.330337,0.0,0.0
2611,652.5,49.7745,56.0818,135.059,103.49,106.652,0.00447378,0.152511,20.8581,67.809,-0.272199,0.0,0.0
2618,654.25,49.3289,55.6912,134.573,103.493,106.999,0.00451664,0.147595,20.8647,67.809,-0.301399,0.0,0.0
2625,656,48.3889,55.1874,134.599,103.506,107.328,0.00452827,0.142753,20.8703,67.729,-0.328012,0.0,0.0
2632,657.75,48.4691,54.3015,136.034,103.505,106.259,0.00460346,0.138459,20.8769,67.6889,-0.237504,0.0,0.0
2639,659.5,47.3836,53.0383,134.762,103.505,106.623,0.00474529,0.134754,20.8809,67.5388,-0.268457,0.0,0.0
2646,661.25,47.1276,53.1433,136.073,103.532,107.368,0.00495948,0.130926,20.884,67.5688,-0.329132,0.0,0.0
2653,663,46.6959,53.0064,135.863,103.537,106.521,0.00522594,0.127965,20.8868,67.5788,-0.257029,0.0,0.0
2660,664.75,45.9028,52.4704,133.301,103.537,106.771,0.00538687,0.125483,20.889,67.5288,-0.278204,0.0,0.0
2667,666.5,45.183,51.6211,141.774,103.549,105.664,0.00545885,0.12248,20.8926,67.3987,-0.182892,0.0,0.0
2674,668.25,44.7636,51.2069,138.021,103.558,106.67,0.00557286,0.119902,20.8953,67.3686,-0.267794,0.0,0.0
2681,670,44.4116,50.6981,133.887,103.587,106.737,0.00570605,0.1176,20.8982,67.3887,-0.270972,0.0,0.0
2688,671.75,44.6633,50.0455,138.815,103.606,106.195,0.00583448,0.114997,20.902,67.3286,-0.223211,0.0,0.0
2695,673.5,44.0394,49.6425,136.011,103.648,105.973,0.00598341,0.11201,20.9053,67.3286,-0.200614,0.0,0.0
2702,675.25,43.4141,49.1744,135.34,103.661,106.693,0.00612112,0.109338,20.9079,67.1985,-0.260763,0.0,0.0
2709,677,42.776,48.6852,137.269,103.691,106.848,0.00621728,0.107385,20.9106,67.2085,-0.271248,0.0,0.0
2716,678.75,42.2768,47.845,139.285,103.735,106.339,0.00630416,0.105661,20.9138,67.2185,-0.224251,0.0,0.0
2723,680.5,41.7253,46.9886,136.053,103.761,106.417,0.00636406,0.103861,20.9161,67.1485,-0.228656,0.0,0.0
2730,682.25,41.7908,47.421,138.377,103.809,105.878,0.00637646,0.101822,20.9179,67.1184,-0.178495,0.0,0.0
2737,684,40.6895,45.8995,139.39,103.844,106.164,0.00635093,0.100732,20.9199,67.1184,-0.199841,0.0,0.0
2744,685.75,40.7011,46.3005,141.914,103.892,106.222,0.00636642,0.0997341,20.9211,67.1084,-0.200642,0.0,0.0
2751,687.5,40.7094,45.2239,139.772,103.947,106.843,0.00644413,0.0985064,20.9222,67.1084,-0.248499,0.0,0.0
2758,689.25,40.1381,45.0953,138.454,104.001,106.111,0.00663179,0.0962144,20.9246,67.0484,-0.181708,0.0,0.0
2765,691,39.4458,44.3323,135.449,104.047,106.244,0.00684289,0.0942362,20.9275,66.9883,-0.189008,0.0,0.0
2772,692.75,39.3106,44.0076,136.853,104.111,106.159,0.0069625,0.0923041,20.93,66.9883,-0.176201,0.0,0.0
2779,694.5,38.7786,43.4216,143.792,104.165,106.29,0.00700728,0.0906455,20.9318,67.0284,-0.182651,0.0,0.0
2786,696.25,39.0916,43.7172,138.988,104.218,105.867,0.00710492,0.0886754,20.9333,66.9383,-0.141965,0.0,0.0
2793,698,38.1851,42.5754,136.3,104.28,106.358,0.00721441,0.0872493,20.9348,66.8282,-0.178459,0.0,0.0
2800,699.75,37.4104,42.9626,135.973,104.367,106.597,0.00736693,0.0862952,20.9362,66.9283,-0.191284,0.0,0.0
2807,701.5,38.3755,42.1752,139.723,104.429,106.482,0.00756725,0.0851958,20.9374,66.9082,-0.176133,0.0,0.0
2814,703.25,37.4854,41.6021,137.619,104.509,105.824,0.00777187,0.0841931,20.9385,66.8682,-0.113097,0.0,0.0
2821,705,37.037,41.1883,137.882,104.532,106.851,0.00791724,0.082991,20.9403,66.7981,-0.198524,0.0,0.0
2828,706.75,36.6946,40.8502,139.526,104.592,106.55,0.00803083,0.0813753,20.9437,66.7381,-0.167752,0.0,0.0
2835,708.5,36.7015,40.8631,138,104.674,106.902,0.00812543,0.0797583,20.9462,66.8582,-0.190543,0.0,0.0
2842,710.25,35.6626,40.7334,137.95,104.732,107.211,0.00844215,0.0789647,20.9458,66.7281,-0.211593,0.0,0.0
2849,712,35.7517,40.0398,141.988,104.778,107.146,0.00892258,0.0793792,20.9445,66.7481,-0.202153,0.0,0.0
2856,713.75,35.3497,39.3668,135.714,104.819,106.8,0.00956177,0.0813534,20.942,66.6981,-0.16935,0.0,0.0
2863,715.5,35.612,39.0801,137.233,104.868,106.338,0.0102608,0.08251,20.9402,66.7481,-0.125979,0.0,0.0
2870,717.25,34.5134,38.1702,137.537,104.895,107.238,0.0108062,0.0822158,20.9403,66.7681,-0.199869,0.0,0.0
2877,719,33.4812,37.0485,137.731,104.944,106.741,0.0110394,0.0812094,20.9418,66.688,-0.153549,0.0,0.0
2884,720.75,32.4191,36.3273,140.433,104.996,106.462,0.0110932,0.0796974,20.9445,66.678,-0.125433,0.0,0.0
2891,722.5,32.295,36.4688,139.836,105.004,106.641,0.0111102,0.0781995,20.9474,66.668,-0.139924,0.0,0.0
2898,724.25,32.5591,35.87,141.981,105.035,106.233,0.0110908,0.0768792,20.9488,66.678,-0.102599,0.0,0.0
2905,726,32.4628,35.4143,139.783,105.052,106.547,0.011012,0.0758803,20.9497,66.638,-0.127794,0.0,0.0
2912,727.75,31.8964,35.7976,138.405,105.077,106.37,0.010946,0.0747779,20.9511,66.5579,-0.110645,0.0,0.0
2919,729.5,32.0082,35.3271,140.42,105.065,105.8,0.0109243,0.0736503,20.9522,66.5479,-0.0630933,0.0,0.0
2926,731.25,32.0162,35.3835,137.637,105.085,107.135,0.0108793,0.0729773,20.9535,66.618,-0.174721,0.0,0.0
2933,733,31.7579,34.8766,139.135,105.071,106.48,0.0108035,0.0724691,20.9543,66.598,-0.120497,0.0,0.0
2940,734.75,32.1874,34.3289,138.948,105.08,105.992,0.0108113,0.0721342,20.9547,66.608,-0.0782113,0.0,0.0
2947,736.5,31.6318,34.1876,142.683,105.063,106.668,0.0108941,0.0718734,20.9549,66.4879,-0.137083,0.0,0.0
2954,738.25,31.5517,34.393,137.21,105.067,106.237,0.0109451,0.0717545,20.955,66.5179,-0.10011,0.0,0.0
2961,740,31.3593,33.7279,136.12,105.056,106.539,0.0110033,0.0716255,20.9561,66.578,-0.126798,0.0,0.0
2968,741.75,30.6068,33.6554,142.144,105.054,106.945,0.0110314,0.0713977,20.9567,66.5279,-0.161354,0.0,0.0
2975,743.5,30.5901,33.6597,142.418,105.034,107.08,0.0109975,0.0712645,20.9566,66.5079,-0.174482,0.0,0.0
2982,745.25,30.5648,33.5833,145.637,105.003,106.861,0.0109587,0.071509,20.9558,66.4679,-0.158668,0.0,0.0
2989,747,30.9911,33.0192,139.21,105,107.12,0.0109992,0.0716568,20.9546,66.5079,-0.180777,0.0,0.0
2996,748.75,30.0518,33.2554,135.868,104.988,106.607,0.0110352,0.0719006,20.9532,66.5279,-0.138423,0.0,0.0
3003,750.5,30.4049,33.0074,138.44,104.966,106.612,0.011064,0.072143,20.9525,66.4378,-0.140719,0.0,0.0
3010,752.25,30.3825,32.4028,138.759,104.928,106.196,0.0110973,0.0722127,20.9522,66.3878,-0.108673,0.0,0.0
3017,754,30.0404,32.9733,140.605,104.906,105.681,0.0110469,0.0727388,20.952,66.4278,-0.0665856,0.0,0.0
3024,755.75,29.9839,32.0078,139.551,104.889,106.01,0.0108675,0.0732197,20.9514,66.4478,-0.0962209,0.0,0.0
3031,757.5,29.7852,31.9091,140.544,104.875,106.238,0.010758,0.0734207,20.9511,66.3878,-0.116797,0.0,0.0
3038,759.25,30.3888,31.608,138.996,104.833,106.958,0.0107647,0.0739715,20.95,66.3678,-0.181509,0.0,0.0
3045,761,29.9319,31.6715,141.402,104.792,106.276,0.0108071,0.0748409,20.9495,66.3277,-0.127159,0.0,0.0
3052,762.75,29.7493,31.8221,137.016,104.774,106.73,0.0108136,0.0753882,20.9492,66.3177,-0.167295,0.0,0.0
3059,764.5,29.5979,31.5249,139.265,104.748,106.561,0.0107766,0.075382,20.9491,66.3277,-0.155184,0.0,0.0
3066,766.25,29.4988,31.593,142.097,104.691,105.936,0.010754,0.0751206,20.9491,66.2777,-0.106898,0.0,0.0
3073,768,29.0941,30.9526,138.311,104.642,105.788,0.0107391,0.0750241,20.949,66.1876,-0.0984787,0.0,0.0
3080,769.75,29.4944,30.6409,136.389,104.605,106.181,0.0107213,0.0750383,20.949,66.2076,-0.135321,0.0,0.0
3087,771.5,28.9578,30.9281,138.702,104.57,105.684,0.0107016,0.0748986,20.949,66.2277,-0.095846,0.0,0.0
3094,773.25,28.6353,30.7478,140.817,104.528,105.995,0.0106058,0.0752173,20.949,66.2577,-0.126093,0.0,0.0
3101,775,28.8594,30.7319,138.337,104.478,105.927,0.0104542,0.0755453,20.949,66.1576,-0.124526,0.0,0.0
3108,776.75,28.6593,30.5185,138.691,104.46,105.715,0.0103214,0.0754572,20.949,66.2177,-0.107983,0.0,0.0
3115,778.5,28.8185,30.3488,137.792,104.428,106.646,0.0102266,0.0756696,20.9492,66.2477,-0.19012,0.0,0.0
3122,780.25,28.8556,30.1747,137.431,104.382,105.63,0.0102733,0.0757612,20.9495,66.2177,-0.107538,0.0,0.0
3129,782,28.8736,29.879,141.384,104.343,106.071,0.0103987,0.0759103,20.9497,66.1976,-0.148567,0.0,0.0
3136,783.75,28.9878,30.2751,139.619,104.309,106.103,0.0105225,0.0761641,20.9497,66.1176,-0.154235,0.0,0.0
3143,785.5,28.8024,30.2106,137.284,104.268,105.515,0.0105764,0.075994,20.95,66.1576,-0.107502,0.0,0.0
3150,787.25,28.2731,29.9506,144.171,104.229,105.816,0.0105609,0.0758505,20.9511,66.1276,-0.136633,0.0,0.0
3157,789,28.4449,29.8943,138.811,104.182,105.19,0.0104924,0.0759505,20.9513,66.1176,-0.0871476,0.0,0.0
3164,790.75,27.9542,29.8178,140.113,104.125,105.103,0.0104076,0.0760526,20.9505,66.0675,-0.0845323,0.0,0.0
3171,792.5,28.4929,29.5891,142.148,104.082,105.411,0.0102859,0.0763291,20.9497,66.1176,-0.114817,0.0,0.0
3178,794.25,28.7232,29.4388,141.475,104.049,105.396,0.0102183,0.0768009,20.9493,66.0975,-0.116326,0.0,0.0
3185,796,28.4588,29.0916,140.541,104.007,105.183,0.0102062,0.0770167,20.9491,66.0975,-0.101674,0.0,0.0
3192,797.75,28.2402,29.2356,139.762,103.953,105.346,0.0101784,0.0770516,20.949,66.0875,-0.120392,0.0,0.0
3199,799.5,27.9098,29.1123,140.578,103.915,105.335,0.0101055,0.0771473,20.9491,65.9874,-0.12274,0.0,0.0
3206,801.25,28.4615,29.532,138.003,103.887,105.91,0.0100195,0.0769887,20.9489,66.0475,-0.17447,0.0,0.0
3213,803,28.3104,29.055,136.615,103.835,104.943,0.00994887,0.0767784,20.9485,66.0375,-0.0959588,0.0,0.0
3220,804.75,28.45,29.5402,139.581,103.796,105.002,0.00996938,0.0767157,20.9483,66.0175,-0.104517,0.0,0.0
3227,806.5,28.1797,29.0649,140.468,103.74,105.244,0.0100692,0.076801,20.9482,65.9274,-0.130143,0.0,0.0
3234,808.25,28.6334,28.9249,138.654,103.716,104.624,0.0101297,0.0767704,20.9482,65.9674,-0.0788052,0.0,0.0
3241,810,28.2752,29.0426,137.206,103.676,105.297,0.0100865,0.0766907,20.9482,65.9574,-0.140346,0.0,0.0
3248,811.75,27.999,29.2709,141.435,103.658,105.161,0.00998309,0.0766872,20.9492,65.9674,-0.130245,0.0,0.0
3255,813.5,27.9614,28.6323,139.336,103.61,105.233,0.00985338,0.0767677,20.9499,65.9174,-0.14062,0.0,0.0
3262,815.25,28.3594,28.8005,136.807,103.595,105.013,0.00980932,0.0770328,20.9502,65.8874,-0.122953,0.0,0.0
3269,817,28.0236,28.5676,141.246,103.603,104.669,0.00982071,0.0773291,20.9503,65.9074,-0.0925979,0.0,0.0
3276,818.75,27.6977,28.9594,138.462,103.562,105.141,0.00980507,0.0774641,20.9504,65.8974,-0.136857,0.0,0.0
3283,820.5,27.5659,28.8942,139.591,103.548,105.095,0.00972892,0.0775071,20.9504,65.8874,-0.134108,0.0,0.0
3290,822.25,27.6054,28.7207,138.163,103.528,105.142,0.00967071,0.0774436,20.9504,65.8073,-0.139891,0.0,0.0
3297,824,28.0893,28.7601,137.058,103.53,104.792,0.0097627,0.0772417,20.9508,65.8573,-0.109563,0.0,0.0
3304,825.75,27.9755,28.3865,143.897,103.498,104.86,,0.0772408,,65.8273,-0.118238,0.0,0.0
3311,827.5,27.4681,28.4718,141.907,103.488,104.579,,0.0771812,,65.8173,-0.0949017,0.0,0.0
3318,829.25,27.9941,28.6016,144.352,103.486,104.435,,,,65.7372,-0.0825929,0.0,0.0
3325,831,27.9708,28.4951,138.332,103.473,104.52,,,,65.7172,-0.0910767,0.0,0.0
3332,832.75,27.9808,28.4477,138.52,103.48,104.67,,,,65.7673,-0.103419,0.0,0.0
3339,834.5,27.4981,27.8231,136.407,103.476,105.04,,,,65.7472,-0.135695,0.0,0.0
3346,836.25,27.6935,27.9203,139.515,103.467,104.481,,,,65.6972,-0.0882076,0.0,0.0