File: 01_Data/Engineered_Flooring/Cone/Engineered_Hardwood_Flooring_Cone_HF75Scan_220524_R1.csv
Names,Time,Stack TC,Smoke TC,Exh Press,Smoke Comp,Smoke Meas,CO Meter,CO2 Meter,O2 Meter,Sample Mass,Ext Coeff,Start Test,Flame Verif
Chan Gain,,500,500,1,1,1,1,1,1,1,1,1.0,1.0
Offset,,0,0,0.138596,0,0,0,0,0,0,0,0.0,0.0
Gain,,1,1,25.011,13.8491,15.2622,1,1,1,1.00087,1.03118,1.0,1.0
Units,sec,C,C,Pa,%,%,%,%,%,g,/m,,
Baseline,,44.923,46.3583,132.543,104.817,110.419,0.000611582,0.0455933,20.9939,-452.953,-0.470878,,
16,3.75,39.5789,41.2597,129.746,104.419,109.719,0.000494033,0.0499702,20.9924,118.233,-0.447859,0.0,0.0
32,7.75,40.0703,41.393,131.432,104.44,109.744,0.00062261,0.0496206,20.9934,118.023,-0.448066,0.0,0.0
48,11.75,40.5603,41.6327,131.331,104.474,107.937,0.00121921,0.057061,20.9778,117.953,-0.294909,0.0,0.0
64,15.75,42.7397,43.2325,108.552,104.507,104.892,0.00408268,0.327485,20.6414,117.212,-0.0333027,0.0,1.0
80,19.75,49.8692,46.933,99.3261,104.545,100.069,0.00725358,0.75966,20.1298,116.211,0.395771,0.0,0.0
96,23.75,57.5897,54.3535,107.202,104.559,99.3374,0.0090257,0.830335,20.0214,115.25,0.463435,0.0,0.0
112,27.75,63.0677,59.8763,104.961,104.597,101.951,0.00903296,0.847403,20.0134,114.259,0.231829,0.0,0.0
128,31.75,69.9556,65.4512,104.486,104.623,102.604,0.0088635,0.92558,19.9281,113.159,0.176306,0.0,0.0
144,35.75,75.3653,71.6806,107.119,104.641,102.536,0.00858613,0.929244,19.9172,112.078,0.18376,0.0,0.0
160,39.75,79.4944,76.4722,105.651,104.672,103.227,0.00805446,0.898757,19.9435,111.027,0.125693,0.0,0.0
176,43.75,82.828,80.4991,104.867,104.697,104.956,0.00736688,0.843615,20.0044,110.066,-0.0223609,0.0,0.0
192,47.75,85.0559,83.6534,109.603,104.72,105.994,0.00691142,0.784609,20.0656,109.145,-0.109385,0.0,0.0
208,51.75,86.7516,86.1309,110.201,104.738,106.423,0.00623746,0.735879,20.1322,108.284,-0.144346,0.0,0.0
224,55.75,88.0021,88.5335,106.248,104.768,106.956,0.00564691,0.68133,20.2021,107.474,-0.187009,0.0,0.0
240,59.75,88.6107,89.223,109.338,104.782,107.395,0.00497087,0.628082,20.2684,106.673,-0.222759,0.0,0.0
256,63.75,88.4687,90.5305,110.178,104.804,107.926,0.00476684,0.590976,20.3148,105.912,-0.26555,0.0,0.0
272,67.75,88.95,91.2265,108.592,104.818,108.299,0.00452402,0.559535,20.3519,105.202,-0.295561,0.0,0.0
288,71.75,88.5,91.8796,110.646,104.848,108.453,0.00445423,0.531275,20.3865,104.541,-0.305802,0.0,0.0
304,75.75,88.0043,92.0402,114.271,104.857,109.315,0.00438542,0.505001,20.4225,103.88,-0.376619,0.0,0.0
320,79.75,87.6305,92.386,115.263,104.868,109.328,0.00377962,0.479736,20.4553,103.25,-0.376714,0.0,0.0
336,83.75,86.8419,92.0946,115.034,104.86,109.761,0.00368107,0.460047,20.4783,102.569,-0.413247,0.0,0.0
352,87.75,86.1572,91.9027,115.962,104.867,110.745,0.00372978,0.4455,20.4956,101.929,-0.493372,0.0,0.0
368,91.75,85.6301,91.5335,113.381,104.858,109.739,0.00368952,0.441726,20.5015,101.308,-0.411514,0.0,0.0
384,95.75,85.4579,91.3435,115.819,104.851,110.176,0.00361429,0.432604,20.511,100.648,-0.448037,0.0,0.0
400,99.75,84.4833,91.3122,118.038,104.811,110.507,0.00376513,0.42603,20.5201,100.067,-0.478686,0.0,0.0
416,103.75,84.4113,91.0389,113.313,104.784,111.012,0.00370056,0.42304,20.5243,99.4065,-0.522256,0.0,0.0
432,107.75,84.1153,90.6483,118.152,104.764,110.694,0.00351452,0.419686,20.5294,98.756,-0.498048,0.0,0.0
448,111.75,83.7965,90.5523,117.617,104.754,110.368,0.00336295,0.416507,20.5332,98.1254,-0.472168,0.0,0.0
464,115.75,82.96,90.2803,112.722,104.732,110.588,0.00321426,0.419465,20.5322,97.5249,-0.492104,0.0,0.0
480,119.75,83.3599,90.4838,117.501,104.719,109.957,0.00307958,0.419273,20.5332,96.9144,-0.441504,0.0,0.0
496,123.75,82.4338,89.84,114.005,104.715,108.646,0.00312391,0.419487,20.5333,96.3038,-0.333361,0.0,0.0
512,127.75,82.4758,89.5678,112.049,104.697,110.394,0.00345458,0.420857,20.5335,95.6733,-0.479234,0.0,0.0
528,131.75,82.4831,89.7822,112.077,104.701,110.948,0.00357054,0.421237,20.5326,95.0728,-0.524281,0.0,0.0
544,135.75,82.3114,89.9318,113.465,104.677,110.774,0.00365782,0.421733,20.532,94.4422,-0.512112,0.0,0.0
560,139.75,82.4814,89.7862,113.435,104.653,109.43,0.00350571,0.421782,20.5318,93.7716,-0.40376,0.0,0.0
576,143.75,82.3018,89.5991,115.924,104.647,110.655,0.00350641,0.423697,20.5296,93.2212,-0.505039,0.0,0.0
592,147.75,82.3352,89.7015,122.401,104.632,109.799,0.00351601,0.42499,20.5289,92.5906,-0.436067,0.0,0.0
608,151.75,82.0694,89.4339,114.746,104.619,110.405,0.00357434,0.425601,20.5288,92.0201,-0.486909,0.0,0.0
624,155.75,82.2796,89.5974,112.648,104.603,109.601,0.00367777,0.42409,20.5306,91.3395,-0.422229,0.0,0.0
640,159.75,82.6656,89.6916,113.417,104.57,109.33,0.00378215,0.422319,20.5335,90.8091,-0.402642,0.0,0.0
656,163.75,82.2217,89.2253,116.378,104.53,109.391,0.0034936,0.421483,20.5352,90.1485,-0.411126,0.0,0.0
672,167.75,82.5726,89.3886,116.163,104.478,109.444,0.00359866,0.416762,20.5386,89.598,-0.42009,0.0,0.0
688,171.75,82.2136,89.2964,113.315,104.426,108.877,0.00390243,0.417806,20.5398,88.9875,-0.377547,0.0,0.0
704,175.75,82.2755,88.9486,112.779,104.383,109.27,0.00385658,0.418849,20.54,88.3369,-0.413918,0.0,0.0
720,179.75,82.2264,89.3532,119.69,104.33,109.347,0.00405143,0.420299,20.5385,87.8064,-0.424818,0.0,0.0
736,183.75,82.5292,88.8502,116.12,104.278,108.349,0.00396261,0.420943,20.5361,87.1759,-0.346454,0.0,0.0
752,187.75,82.4501,89.122,114.488,104.224,108.518,0.00402792,0.4232,20.5364,86.6254,-0.365178,0.0,0.0
768,191.75,82.7086,89.2267,115.493,104.27,107.942,0.00426736,0.427046,20.5329,85.9849,-0.313104,0.0,0.0
784,195.75,82.4124,89.5996,115.91,104.493,107.99,0.00428317,0.427522,20.5308,85.3843,-0.297823,0.0,0.0
800,199.75,82.3903,89.5452,114.86,104.691,107.969,0.0043746,0.433075,20.5238,84.8238,-0.278885,0.0,0.0
816,203.75,83.0875,89.0802,120.251,104.856,109.265,0.00444632,0.43691,20.5171,84.2433,-0.372604,0.0,0.0
832,207.75,83.1535,89.6455,115.008,104.958,108.407,0.00462777,0.443149,20.5103,83.6028,-0.292517,0.0,0.0
848,211.75,83.1438,89.7842,113.412,105.047,108.54,0.00461612,0.448311,20.5029,83.0323,-0.295867,0.0,0.0
864,215.75,83.4539,90.1283,117.718,105.108,107.531,0.0046446,0.45833,20.4912,82.4618,-0.206121,0.0,0.0
880,219.75,83.7022,89.8658,114.285,105.129,107.823,0.00470507,0.465768,20.4801,81.8112,-0.228835,0.0,0.0
896,223.75,84.1713,90.3488,114.445,105.121,107.396,0.0050797,0.479098,20.4615,81.2007,-0.193738,0.0,0.0
912,227.75,84.6682,90.5599,111.745,105.056,107.604,0.0050011,0.492902,20.4452,80.6302,-0.216781,0.0,0.0
928,231.75,85.6325,91.5593,113.957,104.932,107.622,0.00526124,0.50173,20.4346,79.9396,-0.228979,0.0,0.0
944,235.75,86.374,92.0783,119.143,104.801,107.391,0.00553423,0.519713,20.4117,79.209,-0.220879,0.0,0.0
960,239.75,87.0441,92.6333,109.214,104.619,106.228,0.00563429,0.535,20.3922,78.5484,-0.138046,0.0,0.0
976,243.75,87.7159,92.9988,112.519,104.679,105.678,0.00574064,0.551605,20.3677,77.8278,-0.0859735,0.0,0.0
992,247.75,88.4443,94.134,109.936,104.73,105.872,0.00623724,0.583926,20.332,77.1171,-0.098125,0.0,0.0
1008,251.75,89.749,94.7217,115.488,104.772,105.512,0.00664631,0.607025,20.3061,76.3264,-0.0636618,0.0,0.0
1024,255.75,90.6885,95.9775,112.742,104.859,103.072,0.00698614,0.62971,20.2837,75.5658,0.155463,0.0,0.0
1040,259.75,91.894,97.2424,109.981,104.939,103.162,0.00748212,0.658081,20.2506,74.7251,0.154539,0.0,0.0
1056,263.75,93.2542,98.084,109.153,105.011,103.877,0.00754163,0.687807,20.2146,73.8343,0.0982214,0.0,0.0
1072,267.75,94.0027,99.6676,107.555,105.096,101.615,0.00775755,0.729255,20.1656,72.8935,0.304704,0.0,0.0
1088,271.75,95.8284,100.89,110.021,105.16,104.156,0.00817333,0.767689,20.122,72.0027,0.0867977,0.0,0.0
1104,275.75,97.4552,102.61,109.93,105.204,101.603,0.00866992,0.803241,20.0805,71.0518,0.315085,0.0,0.0
1120,279.75,98.7475,104.119,104.324,105.269,101.401,0.00958118,0.841702,20.0377,70.101,0.338658,0.0,0.0
1136,283.75,101.617,106.109,103.211,105.362,100.687,0.00973301,0.896474,19.9694,69.0601,0.410556,0.0,0.0
1152,287.75,103.598,108.193,106.604,105.415,99.5437,0.00989532,0.929555,19.9226,68.0392,0.518368,0.0,0.0
1168,291.75,105.503,110.221,106.438,105.469,99.8479,0.0102111,0.949957,19.892,66.9583,0.49545,0.0,0.0
1184,295.75,106.717,111.669,106.333,105.502,98.2149,0.0100402,0.929894,19.9024,65.9975,0.647398,0.0,0.0
1200,299.75,106.861,112.255,108.831,105.488,100.024,0.00935628,0.883626,19.9463,65.0566,0.481146,0.0,0.0
1216,303.75,106.911,113.394,107.613,105.484,99.3928,0.00824824,0.818407,20.0082,64.2259,0.538001,0.0,0.0
1232,307.75,106.231,112.891,106.731,105.467,100.946,0.00748501,0.77243,20.0715,63.4753,0.396322,0.0,0.0
1248,311.75,106.213,112.832,108.231,105.453,102.663,0.00700558,0.727273,20.1212,62.7546,0.242576,0.0,0.0
1264,315.75,105.487,112.481,108.937,105.414,104.664,0.00595481,0.649766,20.2251,62.1141,0.0645644,0.0,0.0
1280,319.75,103.515,111.686,117.213,105.378,107.931,0.0046256,0.541293,20.3572,61.6537,-0.216577,0.0,0.0
1296,323.75,100.802,110.025,117.301,105.332,110.282,0.00364929,0.442338,20.4733,61.1833,-0.415354,0.0,0.0
1312,327.75,98.4737,107.81,119.427,105.296,110.619,0.00281834,0.354838,20.5752,60.933,-0.44609,0.0,0.0
1328,331.75,95.4824,105.234,118.518,105.277,111.58,0.00218919,0.263382,20.6923,60.7629,-0.525959,0.0,0.0
1344,335.75,91.7286,102.573,121.891,105.24,112.959,0.00159041,0.199111,20.776,60.5928,-0.640235,0.0,0.0
1360,339.75,89.0825,99.0491,121.874,105.215,113.38,0.0015525,0.164718,20.8208,60.4927,-0.676105,0.0,0.0
1376,343.75,85.8554,96.7863,125.157,105.206,112.98,0.00187489,0.147428,20.8446,60.4526,-0.644893,0.0,0.0
1392,347.75,82.9526,93.4609,123.656,105.171,113.148,0.00185781,0.137282,20.8561,60.4026,-0.661251,0.0,0.0
1408,351.75,80.5154,91.2027,126.493,105.13,112.797,0.00157011,0.129694,20.866,60.2525,-0.636659,0.0,0.0
1424,355.75,78.3342,88.8624,121.147,105.062,113.26,0.00146221,0.124776,20.8734,60.1223,-0.679604,0.0,0.0
1440,359.75,76.5386,86.4795,125.793,105.019,112.6,0.00149506,0.12222,20.8776,60.1223,-0.630414,0.0,0.0
1456,363.75,75.1013,84.9873,127.693,104.929,112.087,0.00146949,0.119482,20.8819,59.9922,-0.596956,0.0,0.0
1472,367.75,73.136,82.7945,125.951,104.87,112.263,0.00169154,0.117698,20.8836,59.9522,-0.616181,0.0,0.0
1488,371.75,71.8335,81.1361,127.422,104.771,111.9,0.00154331,0.11471,20.8884,59.8821,-0.59547,0.0,0.0
1504,375.75,70.0273,79.1261,127.687,104.648,111.276,0.00179872,0.113848,20.8898,59.8321,-0.555466,0.0,0.0
1520,379.75,69.2378,77.8111,127.744,104.538,112.216,0.00164897,0.11697,20.8862,59.8021,-0.641089,0.0,0.0
1536,383.75,67.6009,75.8891,122.449,104.403,112.274,0.00145681,0.116959,20.8864,59.722,-0.657491,0.0,0.0
1552,387.75,67.0339,75.009,130.117,104.268,111.676,0.00152974,0.11632,20.8876,59.6619,-0.620906,0.0,0.0
1568,391.75,66.1994,73.6803,125.384,104.125,110.923,0.00139525,0.115565,20.8892,59.6319,-0.572062,0.0,0.0
1584,395.75,65.5105,72.9121,128.482,103.968,111.17,0.00173179,0.113935,20.8936,59.5618,-0.605838,0.0,0.0
1600,399.75,64.6379,71.2811,122.114,103.861,111.031,0.00165767,0.111976,20.8992,59.5118,-0.603844,0.0,0.0
1616,403.75,63.7297,70.7565,128.086,103.76,111.391,0.00149477,0.110022,20.9028,59.4718,-0.641968,0.0,0.0
1632,407.75,63.2767,69.5029,125.381,103.699,110.678,0.00148877,0.108538,20.9041,59.4017,-0.589146,0.0,0.0
1648,411.75,63.0083,68.6698,128.944,103.645,110.982,0.00180458,0.107973,20.9057,59.3817,-0.618726,0.0,0.0
1664,415.75,61.7843,67.8318,129.358,103.603,110.254,0.00221533,0.107204,20.9054,59.3717,-0.562811,0.0,0.0
1680,419.75,61.8514,66.9057,126.816,103.59,111.219,0.00229828,0.106969,20.9043,59.3316,-0.642788,0.0,0.0
1696,423.75,61.2487,66.1558,127.535,103.623,110.77,0.00214818,0.106592,20.9072,59.2716,-0.603243,0.0,0.0
1712,427.75,60.3761,64.9541,125.309,103.625,109.718,0.00215578,0.107264,20.9062,59.2616,-0.516805,0.0,0.0
1728,431.75,60.444,65.3599,128.221,103.639,110.558,0.0022251,0.107143,20.9081,59.2115,-0.584557,0.0,0.0
1744,435.75,59.7103,63.9427,125.814,103.691,110.869,0.00225795,0.106904,20.9092,59.1415,-0.605403,0.0,0.0
1760,439.75,59.2228,63.5931,126.786,103.745,110.451,0.00234841,0.107788,20.9083,59.0914,-0.566571,0.0,0.0
1776,443.75,58.8721,63.1063,127.404,103.792,110.097,0.00254338,0.107836,20.9084,59.0514,-0.533408,0.0,0.0
1792,447.75,59.4859,62.817,125.618,103.852,111.177,0.0027282,0.107663,20.9107,59.0414,-0.61645,0.0,0.0
1808,451.75,58.6935,62.4748,129.27,103.919,110.89,0.00280257,0.108831,20.9095,59.0114,-0.587262,0.0,0.0
1824,455.75,58.7737,61.7615,124.154,103.983,111.569,0.00299283,0.110105,20.9075,58.9313,-0.637009,0.0,0.0
1840,459.75,57.918,61.7862,126.722,104.083,110.048,0.00301435,0.111147,20.9072,58.9213,-0.504082,0.0,0.0
1856,463.75,58.4209,60.9585,129.235,104.144,110.798,0.00310477,0.11153,20.9071,58.8813,-0.560149,0.0,0.0
1872,467.75,57.4174,61.0332,129.418,104.226,111.191,0.0031974,0.111344,20.9082,58.8412,-0.585067,0.0,0.0
1888,471.75,57.8548,60.726,126.873,104.314,110.818,0.00315426,0.110844,20.9097,58.7812,-0.54704,0.0,0.0
1904,475.75,57.5185,60.383,127.359,104.42,111.274,0.00335373,0.110418,20.9101,58.7211,-0.575026,0.0,0.0
1920,479.75,57.6341,60.1817,128.892,104.496,110.87,0.00366719,0.110328,20.9117,58.6911,-0.535589,0.0,0.0
1936,483.75,57.1728,59.7962,125.332,104.589,111.099,0.00364432,0.110474,20.9099,58.641,-0.54622,0.0,0.0
1952,487.75,57.3075,59.4267,127.198,104.674,111.864,0.00346486,0.109685,20.9112,58.591,-0.600968,0.0,0.0
1968,491.75,56.8768,59.5625,128.231,104.771,111.4,0.00355177,0.110574,20.9117,58.551,-0.554981,0.0,0.0
1984,495.75,57.0155,59.0097,127.159,104.839,112.267,0.00380195,0.109811,20.9124,58.5209,-0.619255,0.0,0.0
2000,499.75,56.7011,58.7751,127.325,104.884,111.696,0.00400424,0.110505,20.9125,58.5209,-0.569116,0.0,0.0
2016,503.75,56.2237,58.3264,127.8,104.92,112.519,0.00383883,0.109847,20.9121,58.4709,-0.632461,0.0,0.0
2032,507.75,56.0726,58.6813,125.435,104.949,110.296,0.00371958,0.109835,20.9118,58.4008,-0.449479,0.0,0.0
2048,511.75,56.0572,58.7131,126.54,104.945,111.909,0.00355806,0.109951,20.9117,58.3808,-0.581202,0.0,0.0
2064,515.75,56.8363,58.549,126.9,104.927,111.188,0.0037635,0.108932,20.9151,58.3708,-0.524302,0.0,0.0
2080,519.75,56.2098,57.6061,128.604,104.895,111.842,0.00416342,0.10963,20.9132,58.3208,-0.580077,0.0,0.0
2096,523.75,56.03,57.9191,130.274,104.832,112.179,0.00419286,0.109854,20.9122,58.3008,-0.612632,0.0,0.0
2112,527.75,55.9038,57.4729,126.396,104.76,111.371,0.00424239,0.110245,20.9125,58.2307,-0.553548,0.0,0.0
2128,531.75,55.9273,57.337,128.524,104.653,111.524,0.00435861,0.109427,20.9141,58.2207,-0.575184,0.0,0.0
2144,535.75,55.2505,57.6066,124.997,104.54,111.033,0.00476639,0.109596,20.9133,58.1907,-0.545112,0.0,0.0
2160,539.75,55.7365,57.291,128.089,104.436,110.572,0.00483927,0.110499,20.9115,58.1606,-0.516395,0.0,0.0
2176,543.75,55.2904,57.7527,128.211,104.351,111.789,0.0050142,0.110353,20.9115,58.1106,-0.622811,0.0,0.0
2192,547.75,55.4292,57.2703,124.91,104.28,110.191,0.0051212,0.112005,20.9097,58.0806,-0.498655,0.0,0.0
2208,551.75,55.1435,57.4203,125.521,104.429,111.038,0.00502042,0.11269,20.9093,58.0205,-0.555079,0.0,0.0
2224,555.75,55.5337,56.7224,127.535,104.7,110.688,0.0051409,0.111971,20.9114,57.9605,-0.503064,0.0,0.0
2240,559.75,55.4506,57.308,128.352,104.92,112.475,0.00524555,0.111271,20.914,57.9304,-0.628976,0.0,0.0
2256,563.75,55.3699,56.6502,124.987,105.066,111.475,0.00516875,0.110817,20.9145,57.9004,-0.535597,0.0,0.0
2272,567.75,54.9651,56.9734,126.908,105.142,112.118,0.00527404,0.111686,20.9138,57.8604,-0.58113,0.0,0.0
2288,571.75,55.1669,57.0436,127.647,105.163,111.832,0.00521811,0.112453,20.9126,57.8103,-0.556247,0.0,0.0
2304,575.75,55.1688,56.8744,127.606,105.13,111.051,0.00522763,0.11214,20.9141,57.7903,-0.49561,0.0,0.0
2320,579.75,55.2925,56.5168,127.27,105.04,110.968,0.00542603,0.112078,20.9128,57.7503,-0.496641,0.0,0.0
2336,583.75,55.0097,56.6003,124.693,104.86,111.001,0.00576129,0.111679,20.9124,57.7403,-0.514852,0.0,0.0
2352,587.75,54.9052,56.5211,123.464,104.693,110.673,0.00597252,0.111336,20.9126,57.7102,-0.50243,0.0,0.0
2368,591.75,54.978,56.6483,125.061,104.797,110.983,0.00597452,0.110237,20.9137,57.6702,-0.518805,0.0,0.0
2384,595.75,55.0498,56.5489,124.259,104.941,112.079,0.00594556,0.110724,20.9152,57.6302,-0.595223,0.0,0.0
2400,599.75,54.4704,55.9434,129.762,105.075,110.703,0.00591597,0.110817,20.9154,57.5801,-0.471991,0.0,0.0
2416,603.75,54.9251,55.9148,129.929,105.26,111.239,0.00574098,0.11067,20.9148,57.5701,-0.499692,0.0,0.0
2432,607.75,54.2026,56.5854,127.37,105.376,111.347,0.00572054,0.111706,20.9128,57.5001,-0.498603,0.0,0.0
2448,611.75,54.3757,56.147,124.611,105.502,112.177,0.00597009,0.111376,20.9117,57.5201,-0.554901,0.0,0.0
2464,615.75,54.7417,56.1052,128.365,105.589,111.664,0.00633249,0.111099,20.9122,57.47,-0.505957,0.0,0.0
2480,619.75,54.5713,55.8256,129.224,105.592,112.207,0.00647323,0.110768,20.9135,57.42,-0.549589,0.0,0.0
2496,623.75,54.382,56.363,134.975,105.591,111.545,0.00654551,0.111021,20.9135,57.39,-0.496221,0.0,0.0
2512,627.75,54.2384,56.1901,129.038,105.508,111.103,0.00679041,0.111268,20.9141,57.3299,-0.467368,0.0,0.0
2528,631.75,54.3858,56.1143,127.141,105.403,111.975,0.0068518,0.112508,20.9125,57.2999,-0.547068,0.0,0.0
2544,635.75,54.4646,55.9966,128.202,105.242,112.151,0.00655429,0.113452,20.9108,57.2699,-0.57511,0.0,0.0
2560,639.75,53.9848,55.7357,127.97,105.032,111.692,0.0068651,0.113816,20.9099,57.2198,-0.556104,0.0,0.0
2576,643.75,54.3094,55.9921,127.23,104.899,110.603,0.00714939,0.113436,20.9097,57.2398,-0.478952,0.0,0.0
2592,647.75,54.1843,55.7874,128.121,104.802,110.362,0.00699484,0.113077,20.9115,57.2498,-0.467551,0.0,0.0
2608,651.75,54.2969,56.0534,126.348,104.681,111.586,0.00678717,0.111166,20.9137,57.2298,-0.577798,0.0,0.0
2624,655.75,53.6535,55.2675,128.047,104.573,110.585,0.00678769,0.110803,20.9149,57.1798,-0.505573,0.0,0.0
2640,659.75,54.19,55.8862,127.251,104.483,110.116,0.00679098,0.110805,20.9151,57.1297,-0.474992,0.0,0.0
2656,663.75,53.4105,55.1326,125.906,104.379,109.773,0.00686055,0.111084,20.9145,57.0897,-0.455793,0.0,0.0
2672,667.75,53.5015,55.5662,131.844,104.303,110.473,0.00706706,0.111354,20.9125,57.0497,-0.51989,0.0,0.0
2688,671.75,53.7631,55.2631,127.008,104.247,110.31,0.00725574,0.112205,20.9121,57.0096,-0.511408,0.0,0.0
2704,675.75,53.8405,55.4438,127.824,104.185,110.107,0.00768528,0.113229,20.912,56.9596,-0.500097,0.0,0.0
2720,679.75,53.194,54.9841,127.377,104.116,110.534,0.00755857,0.111902,20.912,56.9596,-0.541098,0.0,0.0
2736,683.75,53.1077,54.901,128.29,104.094,109.782,0.00750097,0.113191,20.912,56.8795,-0.481279,0.0,0.0
2752,687.75,52.9927,54.922,127.75,104.053,110.486,0.00762335,0.112879,20.912,56.8495,-0.542682,0.0,0.0
2768,691.75,53.2266,54.7981,126.912,104.041,110.567,0.00769664,0.11336,20.912,56.8395,-0.550305,0.0,0.0
2784,695.75,53.1659,54.7197,133.793,104.037,109.726,0.00759989,0.112879,20.9126,56.7794,-0.481596,0.0,0.0
2800,699.75,52.8615,54.7555,128.892,104.065,109.706,0.00757386,0.111987,20.9134,56.7094,-0.477556,0.0,0.0
2816,703.75,52.9604,54.7273,129.34,104.082,109.299,0.00787372,0.113021,20.9132,56.6193,-0.442385,0.0,0.0
2832,707.75,53.0523,54.9239,126.32,104.087,111.002,0.00797238,0.115073,20.91,56.5893,-0.58182,0.0,0.0
2848,711.75,52.9213,54.6513,125.27,104.164,110.505,0.00807102,0.115396,20.9109,56.5793,-0.534512,0.0,0.0
2864,715.75,52.9198,54.7205,127.312,104.233,110.259,0.00799674,0.113525,20.9126,56.5292,-0.508378,0.0,0.0
2880,719.75,52.8492,54.5524,129.059,104.337,111.432,0.00802149,0.113107,20.9123,56.5192,-0.595105,0.0,0.0
2896,723.75,52.5051,54.6343,126.104,104.373,110.373,0.00803501,0.113934,20.911,56.5392,-0.50553,0.0,0.0
2912,727.75,52.0924,54.0906,127.199,104.409,110.903,0.00783734,0.112428,20.9113,56.4692,-0.545826,0.0,0.0
2928,731.75,52.5561,53.8118,126.561,104.444,110.195,0.00817257,0.112912,20.9113,56.4291,-0.484858,0.0,0.0
2944,735.75,52.5057,54.0423,126.805,104.468,109.535,0.00839861,0.111805,20.9128,56.4591,-0.428472,0.0,0.0
2960,739.75,52.0249,54.1,128.998,104.457,111.689,0.00833698,0.112466,20.9138,56.3491,-0.605552,0.0,0.0
2976,743.75,51.7506,53.8806,127.122,104.411,109.826,0.00830331,0.111839,20.9137,56.3691,-0.457384,0.0,0.0
2992,747.75,52.1938,54.2714,127.783,104.386,110.405,0.00828965,0.112466,20.9137,56.329,-0.507101,0.0,0.0
3008,751.75,51.8546,54.1114,129.708,104.345,109.499,0.00805141,0.110557,20.9137,56.1889,-0.436128,0.0,0.0
3024,755.75,51.7498,53.847,127.541,104.31,110.742,0.00801299,0.109817,20.9137,56.1889,-0.541281,0.0,0.0
3040,759.75,52.1967,53.9653,126.986,104.233,110.787,0.00834956,0.111827,20.9121,56.1389,-0.55157,0.0,0.0
3056,763.75,52.1002,54.0417,129.104,104.177,109.973,0.00879111,0.113379,20.9119,56.0988,-0.489693,0.0,0.0
3072,767.75,52.1961,54.0091,128.573,104.117,110.473,0.00885857,0.113623,20.9098,56.0088,-0.535957,0.0,0.0
3088,771.75,52.2655,54.3902,125.182,104.073,110.981,0.00884057,0.112316,20.9108,55.9987,-0.5814,0.0,0.0
3104,775.75,52.1791,53.825,130.585,104.025,110.065,0.00907031,0.114134,20.9094,55.9687,-0.51057,0.0,0.0
3120,779.75,51.9054,53.9048,126.516,103.952,111.1,0.00883561,0.113731,20.91,55.9087,-0.601512,0.0,0.0
3136,783.75,52.0964,54.0764,127.519,103.907,110.332,0.00860616,0.112893,20.9109,55.8686,-0.542698,0.0,0.0
3152,787.75,52.105,53.7909,127.206,103.854,109.992,0.00903936,0.11172,20.9126,55.8286,-0.519343,0.0,0.0
3168,791.75,52.1854,53.7264,128.837,103.808,110.413,0.00925408,0.111431,20.914,55.8186,-0.557917,0.0,0.0
3184,795.75,51.8759,53.9243,128.392,103.783,109.978,0.00917098,0.111155,20.9148,55.7786,-0.524454,0.0,0.0
3200,799.75,52.0244,54.0431,122.698,103.757,110.496,0.00915903,0.110576,20.916,55.7686,-0.569202,0.0,0.0
3216,803.75,51.9935,54.1009,124.469,103.731,110.269,0.00937035,0.110453,20.916,55.6985,-0.552897,0.0,0.0
3232,807.75,52.3146,53.9042,128.344,103.729,109.69,0.00924948,0.111419,20.9158,55.6785,-0.505464,0.0,0.0
3248,811.75,51.7022,53.9799,125.226,103.722,110.224,0.00948652,0.1113,20.9139,55.6084,-0.549965,0.0,0.0
3264,815.75,51.9013,54.0648,129.951,103.738,109.863,0.009763,0.110578,20.914,55.5784,-0.518931,0.0,0.0
3280,819.75,51.8236,53.7301,127.438,103.738,110.941,0.00978321,0.110563,20.913,55.5584,-0.607237,0.0,0.0
3296,823.75,52.1364,54.1208,126.657,103.748,110.455,0.00971874,0.111132,20.9143,55.5183,-0.566581,0.0,0.0
3312,827.75,52.1176,53.9956,127.688,103.771,110.868,0.0096838,0.110767,20.9148,55.5183,-0.598399,0.0,0.0
3328,831.75,51.8703,54.1905,125.222,103.801,110.023,0.00985586,0.113081,20.9139,55.4983,-0.526549,0.0,0.0
3344,835.75,51.7204,54.5728,127.07,103.852,109.818,0.0098708,0.114531,20.9115,55.3882,-0.505264,0.0,0.0
3360,839.75,51.9417,53.9176,129.439,103.903,108.864,0.00960452,0.111883,20.9147,55.3682,-0.4219,0.0,0.0
3376,843.75,51.9861,54.1555,127.041,103.968,109.726,0.00981329,0.11007,20.9161,55.3081,-0.487549,0.0,0.0
3392,847.75,52.6762,54.4886,129.85,104.046,109.514,0.0100884,0.110926,20.917,55.2581,-0.463261,0.0,0.0
3408,851.75,51.6094,53.7453,128.361,104.118,109.975,0.0100101,0.110058,20.9184,55.2281,-0.49506,0.0,0.0
3424,855.75,51.233,53.8336,129.899,104.201,110.849,0.0100647,0.109179,20.9178,55.2181,-0.559413,0.0,0.0
3440,859.75,51.6776,53.9863,127.588,104.261,110.08,0.0101792,0.109332,20.9173,55.158,-0.491311,0.0,0.0
3456,863.75,51.5868,53.7419,130.036,104.331,109.704,0.0101031,0.108441,20.918,55.118,-0.454251,0.0,0.0
3472,867.75,52.2631,53.566,128.476,104.385,110.701,0.0100404,0.10811,20.9167,55.098,-0.531337,0.0,0.0
3488,871.75,52.0951,53.9776,127.379,104.45,110.582,0.0098167,0.107205,20.9179,55.0379,-0.515989,0.0,0.0
3504,875.75,52.0084,53.7032,126.061,104.518,110.131,0.00998494,0.108189,20.9167,54.9879,-0.473216,0.0,0.0
3520,879.75,52.1139,53.76,127.689,104.611,109.984,0.0102137,0.108482,20.9166,54.9578,-0.453077,0.0,0.0
3536,883.75,51.3827,54.1161,127.219,104.686,111.52,0.0105005,0.109226,20.915,54.9478,-0.572033,0.0,0.0
3552,887.75,51.8311,54.2326,126.724,104.745,110.081,0.010393,0.110365,20.9144,54.9078,-0.449462,0.0,0.0
3568,891.75,52.0379,54.2694,125.779,104.818,111.05,0.0103492,0.109295,20.9146,54.8978,-0.522449,0.0,0.0
3584,895.75,52.2016,53.926,130.09,104.861,110.158,0.0100652,0.108787,20.9169,54.8678,-0.445745,0.0,0.0
3600,899.75,51.9827,53.7842,125.887,104.903,111.179,0.0102206,0.10786,20.9177,54.8578,-0.525623,0.0,0.0
3616,903.75,51.9906,54.095,125.411,104.954,110.481,0.0105176,0.108063,20.9184,54.7977,-0.464268,0.0,0.0
3632,907.75,51.6166,54.4265,125.56,104.983,110.581,0.0104708,0.107769,20.9183,54.7577,-0.46995,0.0,0.0
3648,911.75,51.6024,54.1525,126.983,104.991,110.819,0.0100563,0.106903,20.9201,54.7377,-0.488668,0.0,0.0
3664,915.75,52.0601,53.4949,128.425,105.014,110.726,0.0102692,0.106425,20.9195,54.6576,-0.479097,0.0,0.0
3680,919.75,52.2454,53.7392,128.271,105.031,110.791,0.0103496,0.106022,20.9197,54.6075,-0.482928,0.0,0.0
3696,923.75,51.868,54.3156,123.517,105.056,112.317,0.0103128,0.105643,20.92,54.5975,-0.604508,0.0,0.0
3712,927.75,51.3889,54.1787,129.22,105.061,111.079,0.0103141,0.104822,20.9216,54.5475,-0.50389,0.0,0.0
3728,931.75,51.8353,54.4263,126.383,105.065,110.452,0.0105768,0.105117,20.922,54.5275,-0.452291,0.0,0.0
3744,935.75,51.8244,53.78,127.634,105.049,110.404,0.0105373,0.105419,20.921,54.4974,-0.449744,0.0,0.0
3760,939.75,51.834,54.2225,127.208,105.021,110.353,0.010438,0.105531,20.9193,54.4674,-0.448022,0.0,0.0
3776,943.75,51.8118,53.8382,126.899,104.993,110.737,0.0106923,0.105651,20.9194,54.4374,-0.481795,0.0,0.0
3792,947.75,51.1354,54.3749,128.852,104.947,110.841,0.0108729,0.10519,20.9207,54.3673,-0.494207,0.0,0.0
3808,951.75,51.7512,54.4207,124.391,104.904,109.99,0.0108759,0.10437,20.9208,54.3273,-0.42821,0.0,0.0
3824,955.75,52.1954,53.611,126.666,104.837,111.309,0.0110688,0.104642,20.9208,54.3173,-0.541839,0.0,0.0
3840,959.75,52.3678,54.1291,131.369,104.774,110.758,0.0107862,0.104602,20.9201,54.2873,-0.502423,0.0,0.0
3856,963.75,51.8201,53.9161,126.332,104.699,110.489,0.0108965,0.105231,20.9184,54.3073,-0.486908,0.0,0.0
3872,967.75,52.1756,54.3791,128.995,104.616,111.027,0.0109356,0.104773,20.9178,54.2572,-0.538001,0.0,0.0
3888,971.75,52.1985,53.8122,127.264,104.54,110.244,0.0109223,0.105162,20.9174,54.2172,-0.48053,0.0,0.0
3904,975.75,51.7885,53.6466,124.21,104.485,109.621,0.0109329,0.104385,20.9189,54.1972,-0.434085,0.0,0.0
3920,979.75,51.6701,53.9362,132.833,104.417,110.113,0.0105699,0.103684,20.9194,54.1672,-0.480471,0.0,0.0
3936,983.75,52.1087,54.0727,129.911,104.379,110.411,0.0106774,0.104067,20.9195,54.1371,-0.508221,0.0,0.0
3952,987.75,51.5614,53.9298,127.918,104.474,110.798,0.0109551,0.103632,20.9195,54.0471,-0.531674,0.0,0.0
3968,991.75,51.8374,53.8375,130.939,104.602,110.95,0.0111593,0.103411,20.9206,54.017,-0.532981,0.0,0.0
3984,995.75,52.2453,53.8309,129.772,104.749,110.277,0.0107571,0.102891,20.9225,53.967,-0.465196,0.0,0.0
4000,999.75,51.6539,54.1495,127.148,104.891,110.886,0.0108229,0.102587,20.923,53.957,-0.502739,0.0,0.0
4016,1003.75,51.9621,53.9679,130.924,105.011,111.662,0.0109587,0.103211,20.9216,53.8869,-0.555508,0.0,0.0
4032,1007.75,52.0799,54.6697,130.517,105.123,111.457,0.0109795,0.102945,20.9229,53.8669,-0.529213,0.0,0.0
4048,1011.75,52.5988,54.5526,129.316,105.2,111.19,0.0108029,0.10338,20.9228,53.8168,-0.500874,0.0,0.0
4064,1015.75,52.442,53.9538,128.588,105.227,111.134,0.0108458,0.103718,20.9229,53.7868,-0.494074,0.0,0.0
4080,1019.75,52.2791,54.0986,128.722,105.228,111.106,0.0109914,0.103445,20.924,53.7768,-0.491726,0.0,0.0
4096,1023.75,52.1234,54.5638,129.724,105.162,111.08,0.0108818,0.103054,20.9247,53.7268,-0.495198,0.0,0.0
4112,1027.75,52.0078,54.1778,127.454,105.111,111.531,0.0109893,0.103211,20.9229,53.6767,-0.536202,0.0,0.0
4128,1031.75,51.8467,54.0197,128.182,105.003,109.498,0.0110307,0.102807,20.9239,53.6567,-0.379109,0.0,0.0
4144,1035.75,52.0718,53.9858,128.547,104.869,111.294,0.0109672,0.101901,20.9263,53.6267,-0.537855,0.0,0.0
4160,1039.75,52.1902,54.1188,128.201,104.765,110.756,0.0109456,0.10286,20.9249,53.6067,-0.503036,0.0,0.0
4176,1043.75,52.0151,54.0593,131.216,104.813,111.089,0.01111,0.103137,20.9217,53.5867,-0.526034,0.0,0.0
4192,1047.75,52.0097,54.4278,130.053,104.868,110.335,0.0109143,0.102169,20.9229,53.5466,-0.459646,0.0,0.0
4208,1051.75,51.9388,54.0065,128.395,104.897,111.668,0.0109394,0.102458,20.9237,53.6167,-0.565833,0.0,0.0
4224,1055.75,52.184,53.8775,133.037,104.933,110.261,0.0111056,0.103371,20.9225,53.5566,-0.448,0.0,0.0
4240,1059.75,51.8194,54.0232,129.616,104.944,111.805,0.0110899,0.103618,20.9219,53.4966,-0.572874,0.0,0.0
4256,1063.75,52.1928,53.7355,131.986,104.952,110.42,0.01089,0.103557,20.9222,53.4565,-0.459381,0.0,0.0
4272,1067.75,51.6318,54.1361,128.349,104.965,110.38,0.0110606,0.103436,20.9224,53.3665,-0.455004,0.0,0.0
4288,1071.75,51.6708,54.212,127.207,104.968,110.551,0.0112266,0.104122,20.9223,53.3164,-0.468784,0.0,0.0
4304,1075.75,51.8377,53.8685,129.813,104.988,111.393,0.0112543,0.104404,20.9218,53.3164,-0.535678,0.0,0.0
4320,1079.75,51.3294,53.6506,129.543,105.032,111.838,0.0111758,0.104079,20.9217,53.3064,-0.567939,0.0,0.0
4336,1083.75,51.4578,53.3072,130.648,105.057,111.305,0.0112663,0.104657,20.9221,53.2363,-0.522519,0.0,0.0
4352,1087.75,51.2072,53.3674,126.151,105.07,110.899,0.0112493,0.104975,20.9205,53.2263,-0.488324,0.0,0.0
4368,1091.75,51.6234,53.7284,127.342,105.073,110.945,0.0115869,0.105408,20.9189,53.1263,-0.491904,0.0,0.0
4384,1095.75,51.5315,53.5731,127.199,105.048,110.443,0.0115918,0.105846,20.9195,53.1763,-0.452984,0.0,0.0
4400,1099.75,51.4659,53.7737,126.444,105.046,111.122,0.0116345,0.105856,20.9198,53.0962,-0.508577,0.0,0.0
4416,1103.75,51.3737,53.7483,126.201,105.009,109.933,0.0114961,0.105185,20.9198,53.0562,-0.414503,0.0,0.0
4432,1107.75,51.4977,53.9267,124.406,104.967,110.631,0.0116017,0.104935,20.9198,53.0262,-0.475372,0.0,0.0
4448,1111.75,51.5889,53.975,127.744,104.925,111.519,0.0116163,0.105079,20.9192,52.9561,-0.551312,0.0,0.0
4464,1115.75,51.1531,53.4422,130.324,104.857,110.075,0.0113547,0.104762,20.9179,52.9861,-0.439261,0.0,0.0
4480,1119.75,51.2667,53.6695,133.352,104.801,110.457,0.0113547,0.104943,20.9188,53.0662,-0.475442,0.0,0.0
4496,1123.75,51.3212,53.579,127.246,104.746,110.83,0.0111059,0.105027,20.9207,52.9961,-0.510687,0.0,0.0
4512,1127.75,51.0234,52.7048,129.733,104.755,110.003,0.0112046,0.105395,20.9212,52.9561,-0.442231,0.0,0.0
4528,1131.75,49.829,53.4189,132.994,104.824,111.517,0.01113,0.104789,20.9213,52.896,-0.559798,0.0,0.0
4544,1135.75,51.668,54.1292,129.586,104.873,110.781,0.0111624,0.105737,20.9186,52.9361,-0.495753,0.0,0.0
4560,1139.75,51.2117,53.2286,127.025,104.912,111.366,0.0111056,0.106065,20.918,52.896,-0.540003,0.0,0.0
4576,1143.75,51.1403,53.2978,127.101,104.927,110.365,0.0114882,0.106437,20.9179,52.6759,-0.457025,0.0,0.0
4592,1147.75,51.286,53.5276,131.665,104.929,111.271,0.0114925,0.106667,20.9179,52.7159,-0.530863,0.0,0.0
4608,1151.75,51.0886,53.2683,128.507,104.911,110.666,0.0108843,0.104041,20.9196,52.6358,-0.483074,0.0,0.0
4624,1155.75,50.4584,53.3769,130.314,104.893,109.252,0.0108787,0.105528,20.919,52.5758,-0.36828,0.0,0.0
4640,1159.75,51.033,53.1255,128.702,104.836,110.877,0.0108993,0.105551,20.9191,52.5558,-0.506756,0.0,0.0
4656,1163.75,50.9408,53.0838,129.263,104.78,110.616,0.0104516,0.104349,20.9213,52.5057,-0.490303,0.0,0.0
4672,1167.75,51.1027,53.2173,128.372,104.731,111.411,0.0104386,0.104317,20.9212,52.4757,-0.559282,0.0,0.0
4688,1171.75,50.9223,53.3241,130.372,104.77,111.233,0.0104851,0.105702,20.919,52.4557,-0.541504,0.0,0.0
4704,1175.75,50.9257,53.3335,124.567,104.816,110.852,0.0103148,0.105582,20.9189,52.3856,-0.506492,0.0,0.0
4720,1179.75,51.2255,53.3194,126.871,104.862,110.376,0.0101992,0.105603,20.9192,52.3656,-0.463479,0.0,0.0
4736,1183.75,50.9072,53.355,130.405,104.916,110.813,0.0100812,0.103368,20.9226,52.3656,-0.494622,0.0,0.0
4752,1187.75,51.2605,53.3113,126.969,104.967,110.847,0.0105032,0.104317,20.9228,52.3656,-0.493026,0.0,0.0
4768,1191.75,51.11,53.4553,128.733,105.021,109.986,0.0104564,0.105821,20.9199,52.3155,-0.417849,0.0,0.0
4784,1195.75,51.4554,53.6051,127.672,105.089,110.841,0.0105678,0.105265,20.9193,52.2955,-0.482011,0.0,0.0
4800,1199.75,50.6135,51.4191,124.598,105.139,111.804,0.0108652,0.105292,20.9197,52.2455,-0.555986,0.0,0.0
4816,1203.75,51.3216,54.3318,128.623,105.206,110.857,0.0108311,0.104533,20.9224,52.1854,-0.473306,0.0,0.0
4832,1207.75,49.4672,53.5093,127.282,105.245,111.888,0.01101,0.103905,20.922,52.1654,-0.553644,0.0,0.0
4848,1211.75,51.2818,52.9779,125.036,105.298,110.982,0.011052,0.103671,20.9219,52.1054,-0.475531,0.0,0.0
4864,1215.75,51.4136,53.3742,127.227,105.34,110.784,0.0109163,0.103595,20.9228,52.0153,-0.455788,0.0,0.0
4880,1219.75,51.1746,53.5865,123.712,105.362,111.788,0.0110083,0.103712,20.9233,52.0053,-0.535561,0.0,0.0
4896,1223.75,50.7815,52.231,127.518,105.363,111.188,0.0108108,0.103789,20.9229,52.0053,-0.48678,0.0,0.0
4912,1227.75,51.2673,53.5547,127.013,105.377,111.228,0.0106562,0.104553,20.9221,51.8952,-0.48884,0.0,0.0
4928,1231.75,51.4948,53.7671,128.025,105.391,111.242,0.0107973,0.104049,20.9227,51.8852,-0.488706,0.0,0.0
4944,1235.75,51.2715,53.9064,129.14,105.422,111.491,0.0106332,0.103176,20.9225,51.8652,-0.506297,0.0,0.0
4960,1239.75,51.4483,53.5182,129.816,105.458,110.938,0.0103622,0.103968,20.9229,51.8251,-0.458249,0.0,0.0
4976,1243.75,51.3569,53.427,129.6,105.482,111.736,0.0104049,0.102392,20.9232,51.7851,-0.521041,0.0,0.0
4992,1247.75,50.9472,53.7218,126.164,105.499,111.498,0.0106443,0.102824,20.9233,51.745,-0.50034,0.0,0.0
5008,1251.75,51.0081,53.5223,126.199,105.527,111.799,0.0107472,0.103739,20.9235,51.725,-0.522252,0.0,0.0
5024,1255.75,51.1804,53.5835,125.336,105.532,111.274,0.0105259,0.103089,20.9235,51.715,-0.479321,0.0,0.0
5040,1259.75,51.2077,53.0783,127.002,105.552,111.864,0.0106816,0.103386,20.9235,51.705,-0.525389,0.0,0.0
5056,1263.75,51.2967,53.4599,130.649,105.575,111.031,0.0108173,0.102886,20.9242,51.665,-0.455766,0.0,0.0
5072,1267.75,51.2335,53.6748,133.554,105.602,111.909,0.010687,0.1026,20.9243,51.655,-0.524695,0.0,0.0
5088,1271.75,51.5229,53.779,130.477,105.624,110.932,0.0104142,0.101969,20.9235,51.645,-0.443518,0.0,0.0
5104,1275.75,51.1602,53.6801,126.761,105.643,112.283,0.0103987,0.10287,20.9222,51.5849,-0.551401,0.0,0.0
5120,1279.75,51.2873,53.8824,128.544,105.648,110.758,0.0103251,0.102543,20.921,51.5249,-0.427241,0.0,0.0
5136,1283.75,51.5564,53.6766,130.028,105.667,111.286,0.0106303,0.102645,20.9198,51.4648,-0.468683,0.0,0.0
5152,1287.75,51.3708,53.8771,135.47,105.677,111.299,0.0106446,0.101782,20.9212,51.3747,-0.468836,0.0,0.0
5168,1291.75,51.2698,53.8397,130.366,105.708,111.054,0.0103911,0.101585,20.9214,51.3747,-0.446264,0.0,0.0
5184,1295.75,51.0947,53.7166,130.365,105.687,111.252,0.0102256,0.102027,20.9224,51.3547,-0.464182,0.0,0.0
5200,1299.75,51.1931,53.5739,126.639,105.69,111.89,0.0101858,0.101709,20.923,51.3047,-0.515661,0.0,0.0
5216,1303.75,51.2357,53.8367,128.723,105.676,111.056,0.0102737,0.101227,20.9245,51.2846,-0.449167,0.0,0.0
5232,1307.75,51.3997,53.6738,125.811,105.664,112.029,0.0102784,0.101274,20.9256,51.2646,-0.529045,0.0,0.0
5248,1311.75,51.0909,53.8591,125.488,105.624,111.265,0.0103126,0.101123,20.9248,51.2246,-0.470596,0.0,0.0
5264,1315.75,51.1922,53.8052,128.527,105.575,111.186,0.0103799,0.102515,20.9242,51.1745,-0.468432,0.0,0.0
5280,1319.75,50.9106,54.182,126.039,105.517,111.989,0.010106,0.102857,20.9235,51.1145,-0.538447,0.0,0.0
5296,1323.75,51.2456,53.9324,125.418,105.428,111.544,0.0101933,0.102315,20.9247,51.1145,-0.510058,0.0,0.0
5312,1327.75,51.734,53.3865,128.476,105.319,111.36,0.0102621,0.101497,20.9253,51.0645,-0.504487,0.0,0.0
5328,1331.75,51.648,54.1951,127.731,105.219,110.586,0.0102172,0.101077,20.9254,51.0645,-0.449996,0.0,0.0
5344,1335.75,51.1016,53.7663,127.365,105.075,110.549,0.010263,0.10113,20.9255,51.0645,-0.459348,0.0,0.0
5360,1339.75,50.9852,53.2258,124.819,104.937,111.029,0.0103204,0.102175,20.9241,51.0745,-0.510423,0.0,0.0
5376,1343.75,51.4135,54.0216,128.083,104.789,109.936,0.0100692,0.101087,20.9248,50.9844,-0.433684,0.0,0.0
5392,1347.75,51.6262,53.5805,129.551,104.655,108.509,0.0100312,0.101512,20.924,50.9644,-0.327066,0.0,0.0
5408,1351.75,51.1506,53.3776,128.652,104.524,110.247,0.0101017,0.101677,20.9227,50.9544,-0.482113,0.0,0.0
5424,1355.75,51.6789,53.7825,129.697,104.409,109.884,0.010056,0.101478,20.9245,50.8943,-0.462284,0.0,0.0
5440,1359.75,51.4617,53.7401,126.352,104.27,110.238,0.0102736,0.101809,20.9253,50.8843,-0.50347,0.0,0.0
5456,1363.75,51.4434,53.741,125.547,104.153,110.099,0.0106353,0.10208,20.924,50.7942,-0.50216,0.0,0.0
5472,1367.75,51.3614,53.5984,127.743,104.034,108.962,0.0103093,0.102084,20.9253,50.7442,-0.418624,0.0,0.0
5488,1371.75,51.2521,53.6416,126.795,103.959,109.253,0.0101289,0.101768,20.9268,50.7041,-0.449265,0.0,0.0
5504,1375.75,51.2325,53.7536,128.531,103.901,109.592,0.0100894,0.101999,20.925,50.6941,-0.482295,0.0,0.0
5520,1379.75,51.4531,53.6117,130.248,103.868,109.934,0.010144,0.1016,20.9253,50.6741,-0.513378,0.0,0.0
5536,1383.75,51.4144,53.6114,129.121,103.867,109.982,0.00993634,0.100758,20.9261,50.6341,-0.51751,0.0,0.0
5552,1387.75,51.3621,53.7811,133.229,103.871,108.972,0.00975286,0.10089,20.9274,50.6041,-0.433707,0.0,0.0
5568,1391.75,51.2357,53.5662,126.655,103.913,108.543,0.0100594,0.101743,20.9274,50.564,-0.394273,0.0,0.0
5584,1395.75,51.1251,53.7647,128.312,103.964,109.237,0.0100125,0.102111,20.9289,50.534,-0.447512,0.0,0.0
5600,1399.75,51.3249,53.8371,124.499,104.046,110.509,0.0100172,0.102198,20.9289,50.494,-0.545175,0.0,0.0
5616,1403.75,51.0134,53.7314,127.832,104.122,110.24,0.00988748,0.101226,20.9289,50.4539,-0.51654,0.0,0.0
5632,1407.75,51.3248,53.8147,124.942,104.226,109.621,0.00972661,0.101016,20.9289,50.4839,-0.456542,0.0,0.0
5648,1411.75,51.2396,53.5048,131.298,104.326,109.032,0.00965451,0.101796,20.9268,50.4339,-0.399065,0.0,0.0
5664,1415.75,51.3986,53.7095,128.012,104.456,108.967,0.00957131,0.10231,20.9249,50.4739,-0.382375,0.0,0.0
5680,1419.75,51.4915,53.86,127.605,104.576,109.948,0.0093767,0.101222,20.9262,50.4039,-0.453198,0.0,0.0
5696,1423.75,51.2278,53.7149,132.272,104.689,110.476,0.00953106,0.0998577,20.9274,50.4039,-0.486641,0.0,0.0
5712,1427.75,51.3916,53.8031,128.31,104.814,111.673,0.00970348,0.099587,20.9287,50.3638,-0.573321,0.0,0.0
5728,1431.75,51.1544,53.6905,125.788,104.922,110.524,0.00978295,0.098895,20.9297,50.2938,-0.470506,0.0,0.0
5744,1435.75,51.4452,53.8211,127.228,105.014,110.518,0.0097512,0.0995072,20.9273,50.2437,-0.46211,0.0,0.0
5760,1439.75,51.0331,53.1479,127.796,105.076,110.749,0.00974869,0.0999078,20.9278,50.1937,-0.475647,0.0,0.0
5776,1443.75,51.6195,53.7394,128.366,105.13,110.403,0.00986477,0.100136,20.9258,50.1737,-0.442721,0.0,0.0
5792,1447.75,51.1432,53.6585,128.173,105.154,111.764,0.0097646,0.100618,20.9239,50.1336,-0.551396,0.0,0.0
5808,1451.75,50.8144,53.7087,131.027,105.163,110.631,0.00961985,0.100849,20.9231,50.0636,-0.458452,0.0,0.0
5824,1455.75,51.5398,53.8801,129.311,105.155,111.65,0.00967767,0.0999608,20.9245,50.0436,-0.542158,0.0,0.0
5840,1459.75,51.1892,53.9617,129.374,105.132,110.994,0.00954653,0.0996292,20.9253,50.0235,-0.490834,0.0,0.0
5856,1463.75,51.2338,53.6988,129.923,105.078,110.171,0.00913593,0.0993653,20.9261,49.9935,-0.42813,0.0,0.0
5872,1467.75,51.4104,53.5984,127.738,105.005,109.838,0.00912418,0.0992894,20.9272,49.9735,-0.407046,0.0,0.0
5888,1471.75,51.4767,53.3262,127.962,104.913,109.696,0.00926296,0.0992796,20.9273,49.9135,-0.403243,0.0,0.0
5904,1475.75,51.5899,53.9139,125.1,104.807,111.692,0.00956064,0.0995796,20.9267,49.9335,-0.575488,0.0,0.0
5920,1479.75,50.9831,53.9228,129.037,104.701,109.996,0.00933573,0.0984826,20.9293,49.9235,-0.446218,0.0,0.0
5936,1483.75,51.8972,53.6782,131.33,104.634,111.262,0.00933674,0.0992849,20.929,49.9535,-0.555572,0.0,0.0
5952,1487.75,51.2529,53.5063,128.964,104.567,110.381,0.00929012,0.100074,20.9285,49.9435,-0.489493,0.0,0.0
5968,1491.75,51.5113,53.405,124.399,104.551,110.765,0.00959188,0.100264,20.9284,49.9235,-0.522242,0.0,0.0
5984,1495.75,51.1778,53.2702,128.154,104.525,109.291,0.00951925,0.100211,20.9284,49.8234,-0.40328,0.0,0.0
6000,1499.75,51.4328,53.5619,128.43,104.496,110.3,0.00929845,0.100004,20.9284,49.7933,-0.488956,0.0,0.0
6016,1503.75,50.9192,53.3845,129.472,104.488,110.05,0.00935374,0.101247,20.9257,49.7433,-0.469156,0.0,0.0
6032,1507.75,51.475,53.2772,131.207,104.47,110.308,0.00953799,0.101757,20.9243,49.7533,-0.491801,0.0,0.0
6048,1511.75,50.8945,53.1707,125.676,104.448,110.53,0.00927558,0.10077,20.924,49.6732,-0.511942,0.0,0.0
6064,1515.75,51.2016,53.8839,127.439,104.458,109.947,0.00940021,0.101401,20.9237,49.6532,-0.463251,0.0,0.0
6080,1519.75,51.1217,53.7627,129.693,104.45,109.932,0.00938926,0.102015,20.922,49.5531,-0.462718,0.0,0.0
6096,1523.75,50.7819,53.5553,130.181,104.442,110.469,0.00933303,0.101257,20.9233,49.5531,-0.507496,0.0,0.0
6112,1527.75,50.67,53.0988,127.72,104.43,110.251,0.0095068,0.101941,20.9245,49.4731,-0.490616,0.0,0.0
6128,1531.75,50.8552,53.1017,130.407,104.403,109.823,0.00948185,0.102334,20.9241,49.4731,-0.457736,0.0,0.0
6144,1535.75,50.8059,52.8249,124.555,104.396,110.546,0.00945242,0.103362,20.9234,49.443,-0.517815,0.0,0.0
6160,1539.75,50.8977,53.4518,130.462,104.406,110.937,0.0095584,0.103645,20.922,49.5131,-0.548819,0.0,0.0
6176,1543.75,50.9503,53.4453,129.693,104.479,110.781,0.00955603,0.102934,20.9235,49.403,-0.529792,0.0,0.0
6192,1547.75,50.7818,53.258,128.369,104.535,110.696,0.0092479,0.101794,20.9245,49.393,-0.518039,0.0,0.0
6208,1551.75,51.2399,53.4831,129.862,104.584,110.808,0.00900979,0.101153,20.9264,49.363,-0.522963,0.0,0.0
6224,1555.75,50.6278,53.0776,129.414,104.666,110.979,0.00917239,0.100412,20.9259,49.3129,-0.529707,0.0,0.0
6240,1559.75,50.4395,53.0983,130.054,104.702,110.407,0.009269,0.103002,20.9236,49.3229,-0.479864,0.0,0.0
6256,1563.75,50.5451,52.8738,130.566,104.712,110.781,0.00905671,0.102797,20.9225,49.3229,-0.509616,0.0,0.0
6272,1567.75,50.762,52.9498,130.093,104.724,111.137,0.00922055,0.101781,20.9236,49.2229,-0.537565,0.0,0.0
6288,1571.75,50.2817,52.8725,124.209,104.729,109.899,0.00929748,0.102014,20.9223,49.2529,-0.435874,0.0,0.0
6304,1575.75,50.5458,52.8818,126.259,104.692,111.438,0.00931263,0.102259,20.9223,49.2429,-0.564833,0.0,0.0
6320,1579.75,50.5772,52.8733,129.902,104.682,110.294,0.00907735,0.100811,20.9235,49.1828,-0.472341,0.0,0.0
6336,1583.75,50.4711,53.0484,131.767,104.662,110.019,0.00922992,0.102112,20.9221,49.1228,-0.451491,0.0,0.0
6352,1587.75,50.3417,52.974,131.954,104.627,109.843,0.00912033,0.101368,20.9218,49.0827,-0.440036,0.0,0.0
6368,1591.75,50.375,52.9615,126.778,104.642,109.667,0.00892051,0.101706,20.9227,49.0327,-0.424211,0.0,0.0
6384,1595.75,50.5998,53.0291,131.535,104.643,110.377,0.00870933,0.100658,20.9243,48.9326,-0.482573,0.0,0.0
6400,1599.75,50.7194,52.7225,127.238,104.65,110.049,0.00858191,0.102271,20.9222,48.9026,-0.455039,0.0,0.0
6416,1603.75,50.3606,52.7103,127.248,104.682,111.087,0.00861959,0.104226,20.9211,48.9026,-0.537197,0.0,0.0
6432,1607.75,51.0057,52.9447,130.405,104.686,110.176,0.00863135,0.103575,20.9206,48.9026,-0.462305,0.0,0.0
6448,1611.75,50.5517,53.0594,128.601,104.725,111.289,0.00853938,0.103994,20.9196,48.7825,-0.549916,0.0,0.0
6464,1615.75,50.7447,53.3364,129.401,104.775,110.18,0.0085146,0.102954,20.9192,48.7424,-0.455022,0.0,0.0
6480,1619.75,50.7826,52.9897,125.551,104.83,110.683,0.00846858,0.102268,20.9192,48.7625,-0.491446,0.0,0.0
6496,1623.75,50.9707,53.0046,126.77,104.871,111.335,0.00852206,0.101396,20.921,48.7424,-0.541042,0.0,0.0
6512,1627.75,51.1058,53.1438,129.041,104.9,110.635,0.00874973,0.101317,20.9214,48.7124,-0.48147,0.0,0.0
6528,1631.75,50.7485,52.9305,128.721,104.953,111.031,0.00877182,0.101056,20.923,48.7224,-0.509266,0.0,0.0
6544,1635.75,50.7316,53.5585,128.499,105.007,111.065,0.00865576,0.100671,20.9238,48.7524,-0.5073,0.0,0.0
6560,1639.75,50.7528,53.1109,129.768,105.047,111.712,0.00817761,0.100956,20.9244,48.6724,-0.556489,0.0,0.0
6576,1643.75,50.7018,53.2226,133.986,105.088,111.403,0.0080878,0.101008,20.9228,48.6624,-0.527846,0.0,0.0
6592,1647.75,50.887,53.0497,127.347,105.111,111.513,0.00831719,0.101125,20.9216,48.6423,-0.534804,0.0,0.0
6608,1651.75,51.1802,53.165,129.046,105.167,111.098,0.0082123,0.0998774,20.9234,48.5823,-0.496279,0.0,0.0
6624,1655.75,50.9629,53.3428,127.059,105.184,110.885,0.00832367,0.0987258,20.9243,48.4822,-0.47744,0.0,0.0
6640,1659.75,51.0445,53.4348,125.673,105.179,111.173,0.00836516,0.099008,20.9244,48.4121,-0.501364,0.0,0.0
6656,1663.75,50.6378,53.2624,126.908,105.195,111.336,0.00803841,0.0988077,20.9251,48.4222,-0.513236,0.0,0.0
6672,1667.75,50.9749,52.8771,129.273,105.177,110.852,0.00799687,0.0985131,20.9256,48.3921,-0.47536,0.0,0.0
6688,1671.75,50.7509,52.9478,130.611,105.175,109.857,0.00818957,0.0986203,20.9257,48.3521,-0.393956,0.0,0.0
6704,1675.75,50.6623,53.1018,127.615,105.157,111.432,0.00830897,0.0987895,20.9257,48.3421,-0.524226,0.0,0.0
6720,1679.75,51.1036,53.2778,127.167,105.146,110.977,0.00835262,0.098793,20.9257,48.3121,-0.488157,0.0,0.0
6736,1683.75,51.0518,52.7083,131.623,105.138,111.063,0.00838512,0.0994482,20.9257,48.242,-0.495979,0.0,0.0
6752,1687.75,51.0491,53.1834,131.515,105.128,109.607,0.00850583,0.0994634,20.9273,48.232,-0.377414,0.0,0.0
6768,1691.75,51.1887,53.0137,126.263,105.127,111.275,0.00841033,0.0994287,20.9279,48.192,-0.514058,0.0,0.0
6784,1695.75,50.8063,53.188,128.625,105.117,110.212,0.00830487,0.0977688,20.928,48.192,-0.428114,0.0,0.0
6800,1699.75,51.0658,53.1617,128.693,105.122,110.428,0.00829143,0.0998377,20.9266,48.1519,-0.44536,0.0,0.0
6816,1703.75,51.0066,53.5432,126.627,105.116,111.413,0.00823175,0.102905,20.9221,48.1619,-0.526239,0.0,0.0
6832,1707.75,50.9986,52.5975,130.91,105.112,111.202,0.00833307,0.103814,20.9194,48.1719,-0.509457,0.0,0.0
6848,1711.75,50.7135,53.1086,127.501,105.109,111.398,0.00822271,0.102207,20.9202,48.1319,-0.525611,0.0,0.0
6864,1715.75,50.7499,53.2277,127.483,105.093,110.432,0.00791744,0.100254,20.9234,48.0919,-0.448249,0.0,0.0
6880,1719.75,50.92,53.2097,130.957,105.095,110.42,0.00803528,0.100015,20.9245,48.0618,-0.447076,0.0,0.0
6896,1723.75,50.8977,53.0441,128.647,105.103,110.37,0.0079925,0.100417,20.9239,48.0418,-0.442302,0.0,0.0
6912,1727.75,50.9872,53.4454,128.336,105.105,110.45,0.00789608,0.100172,20.9246,47.9818,-0.448608,0.0,0.0
6928,1731.75,50.739,53.3219,127.797,105.113,110.969,0.00803496,0.0982362,20.9261,47.9217,-0.490421,0.0,0.0
6944,1735.75,50.9791,53.0913,126.757,105.135,111.84,0.00790841,0.097558,20.9269,47.8717,-0.559249,0.0,0.0
6960,1739.75,50.7991,53.1616,129.607,105.15,110.844,0.00785089,0.0972208,20.927,47.8416,-0.476966,0.0,0.0
6976,1743.75,50.9073,53.5105,128.769,105.163,111.327,0.00750956,0.0966279,20.9286,47.8016,-0.515168,0.0,0.0
6992,1747.75,50.9151,53.1471,131.739,105.186,111.121,0.0077337,0.0957914,20.9292,47.7516,-0.496537,0.0,0.0
7008,1751.75,51.0008,53.2238,128.255,105.231,110.731,0.00793757,0.0963828,20.9293,47.7416,-0.460823,0.0,0.0
7024,1755.75,51.0189,53.2404,125.706,105.252,110.178,0.00798077,0.0962777,20.9294,47.7015,-0.413729,0.0,0.0
7040,1759.75,50.7357,53.1973,127.612,105.271,110.487,0.00783855,0.0952941,20.93,47.6915,-0.437487,0.0,0.0
7056,1763.75,50.6543,53.295,126.749,105.282,111.929,0.00746183,0.0954567,20.9303,47.6715,-0.553833,0.0,0.0
7072,1767.75,51.138,53.2603,128.037,105.302,111.139,0.00749561,0.0941019,20.9314,47.6515,-0.48799,0.0,0.0
7088,1771.75,51.1559,53.6538,127.082,105.281,110.674,0.00771312,0.0961153,20.9288,47.6114,-0.451856,0.0,0.0
7104,1775.75,51.1106,53.5169,130.517,105.265,110.906,0.00758827,0.0966855,20.9282,47.6014,-0.472174,0.0,0.0
7120,1779.75,51.1848,53.2582,127.747,105.253,111.161,0.00770228,0.0965636,20.9287,47.6215,-0.494057,0.0,0.0
7136,1783.75,50.9992,53.4278,128.999,105.232,110.911,0.00788099,0.0958399,20.9299,47.5714,-0.475423,0.0,0.0
7152,1787.75,50.8731,53.7204,124.996,105.194,111.519,0.00771158,0.0954219,20.9308,47.5814,-0.528168,0.0,0.0
7168,1791.75,50.908,53.5113,129.237,105.17,110.896,0.00759465,0.0957304,20.9303,47.5214,-0.479513,0.0,0.0
7184,1795.75,50.9301,53.4712,124.128,105.1,111.279,0.00773654,0.0956231,20.932,47.5114,-0.516725,0.0,0.0
7200,1799.75,50.8858,53.2718,126.973,105.029,111.645,0.00765153,0.0954762,20.9309,47.4613,-0.55251,0.0,0.0
7216,1803.75,49.457,52.1458,126.257,104.95,111.142,0.00743958,0.0967418,20.9294,47.4213,-0.518509,0.0,0.0
7232,1807.75,49.5417,51.7574,131.508,104.868,110.965,0.00750243,0.0969108,20.9283,47.3412,-0.511164,0.0,0.0
7248,1811.75,49.5513,51.8439,127.493,104.831,111.457,0.00740007,0.0957667,20.9292,47.3112,-0.554339,0.0,0.0
7264,1815.75,49.5895,52.1557,126.377,104.897,109.757,0.0074564,0.0945313,20.9317,47.2712,-0.409732,0.0,0.0
7280,1819.75,49.6202,52.0428,130.851,104.933,110.489,0.0073945,0.0944656,20.9306,47.2511,-0.466664,0.0,0.0
7296,1823.75,49.4667,51.9162,127.894,105.002,110.476,0.00742593,0.0951289,20.9304,47.1811,-0.459734,0.0,0.0
7312,1827.75,49.9392,51.9059,130.845,105.073,111.93,0.00739603,0.0949533,20.9309,47.1811,-0.571864,0.0,0.0
7328,1831.75,49.5517,52.0943,127.157,105.143,111.373,0.00740085,0.0939774,20.9326,47.131,-0.520696,0.0,0.0
7344,1835.75,49.6479,51.8059,129.178,105.227,111.032,0.0074287,0.0941448,20.9321,47.131,-0.485694,0.0,0.0
7360,1839.75,49.5924,51.7622,124.77,105.324,110.446,0.00734982,0.0946149,20.9312,47.101,-0.429591,0.0,0.0
7376,1843.75,49.2093,52.4045,126.794,105.407,111.91,0.00739526,0.0946657,20.9311,47.071,-0.541548,0.0,0.0
7392,1847.75,49.6257,51.5825,124.903,105.463,111.458,0.00741548,0.0945573,20.931,47.091,-0.500096,0.0,0.0
7408,1851.75,49.6902,52.3448,129.598,105.513,112.135,0.00749257,0.0947565,20.931,47.121,-0.550541,0.0,0.0
7424,1855.75,49.6944,52.1333,127.552,105.528,111.334,0.00716075,0.0954399,20.931,47.141,-0.484456,0.0,0.0
7440,1859.75,49.5702,52.1941,127.724,105.543,111.714,0.00713676,0.0953964,20.931,47.141,-0.514014,0.0,0.0
7456,1863.75,49.9327,52.0459,127.351,105.517,111.786,0.00708575,0.0951765,20.9303,47.081,-0.522066,0.0,0.0
7472,1867.75,49.3446,52.0296,129.058,105.501,111.532,0.00721618,0.0951373,20.9302,47.061,-0.502841,0.0,0.0
7488,1871.75,49.792,52.2796,128.186,105.442,112.116,0.00735081,0.0955199,20.9297,47.041,-0.55509,0.0,0.0
7504,1875.75,50.0007,52.1035,130.031,105.401,110.985,0.00718792,0.0958867,20.9282,47.0309,-0.466905,0.0,0.0
7520,1879.75,49.4109,51.8961,125.955,105.379,110.374,0.0072337,0.0963889,20.928,46.9309,-0.418849,0.0,0.0
7536,1883.75,49.4066,51.5161,132.99,105.331,110.798,0.00735505,0.0967847,20.9279,46.8908,-0.457731,0.0,0.0
7552,1887.75,49.1761,51.9946,128.676,105.309,110.58,0.00720798,0.0966467,20.9279,46.8608,-0.441803,0.0,0.0
7568,1891.75,49.4725,51.6041,131.212,105.286,111.512,0.00715469,0.0965684,20.9279,46.7907,-0.519644,0.0,0.0
7584,1895.75,49.4432,51.6533,127.06,105.261,110.224,0.00716684,0.0957511,20.9278,46.8108,-0.416677,0.0,0.0
7600,1899.75,49.6189,51.987,130.536,105.249,112.003,0.0071963,0.0959,20.9283,46.7607,-0.562613,0.0,0.0
7616,1903.75,49.2606,51.647,133.962,105.216,111.564,0.00719731,0.0971128,20.9278,46.7107,-0.529941,0.0,0.0
7632,1907.75,49.3932,51.9067,126.518,105.204,111.587,0.0070594,0.0971765,20.9277,46.7007,-0.532847,0.0,0.0
7648,1911.75,49.0912,51.5919,128.542,105.166,111.764,,0.0972259,,46.7207,-0.550453,0.0,0.0
7664,1915.75,48.9951,51.7074,127.673,105.127,111.393,,,,46.6206,-0.523669,0.0,0.0
7680,1919.75,49.2652,51.6931,123.639,105.097,111.443,,,,46.5906,-0.530297,0.0,0.0
7684,1920.75,49.0448,51.2599,128.298,105.081,110.774,,,,46.5605,-0.477228,0.0,0.0