File: 01_Data/Engineered_Flooring/Cone/Engineered_Flooring_Cone_HF25Scan_220524_R3.csv
Names,Time,Stack TC,Smoke TC,Exh Press,Smoke Comp,Smoke Meas,CO Meter,CO2 Meter,O2 Meter,Sample Mass,Ext Coeff,Start Test,Flame Verif
Chan Gain,,500,500,1,1,1,1,1,1,1,1,1.0,1.0
Offset,,0,0,0.138596,0,0,0,0,0,0,0,0.0,0.0
Gain,,1,1,25.011,13.8491,15.2622,1,1,1,1.00087,1.03118,1.0,1.0
Units,sec,C,C,Pa,%,%,%,%,%,g,/m,,
Baseline,,24.1586,24.3721,142.045,103.713,103.667,0.00076372,0.0437537,21.0035,-450.525,0.00402361,,
8,1.75,22.4539,22.5117,137.424,103.493,103.653,0.000766034,0.048867,20.9996,122.256,-0.0139765,0.0,0.0
16,3.75,21.7386,22.5879,141.305,103.499,103.843,0.00106767,0.0487113,21.0005,122.246,-0.0299877,0.0,0.0
24,5.75,21.804,22.117,140.429,103.507,103.369,0.00114173,0.0488046,20.9999,122.236,0.0120334,0.0,0.0
32,7.75,22.0052,22.2407,140.994,103.499,103.263,0.00105599,0.0486545,20.9994,122.236,0.0206658,0.0,0.0
40,9.75,22.2417,22.5182,139.808,103.52,103.349,0.000845832,0.0481326,21.0003,122.236,0.0149276,0.0,0.0
48,11.75,22.3171,22.5541,141.482,103.528,103.568,0.000691698,0.0477702,21.0007,122.226,-0.00351003,0.0,0.0
56,13.75,22.1825,22.3147,144.025,103.527,103.572,0.000699926,0.0481222,21.0004,122.226,-0.0039836,0.0,0.0
64,15.75,22.0795,22.2618,141.764,103.547,103.53,0.000827651,0.0485519,20.9995,122.216,0.00152783,0.0,0.0
72,17.75,22.1793,22.6973,140.961,103.554,103.44,0.000873831,0.0485645,20.9991,122.216,0.00993975,0.0,0.0
80,19.75,22.2966,22.5685,145.496,103.552,103.164,0.000884229,0.0478577,20.9986,122.226,0.0339718,0.0,0.0
88,21.75,21.7447,22.597,140.613,103.557,103.434,0.000873789,0.046689,20.9999,122.246,0.0108014,0.0,0.0
96,23.75,22.2963,22.3297,145.551,103.57,103.563,0.000880719,0.0457433,21.0014,122.226,0.00062863,0.0,0.0
104,25.75,22.3413,22.516,144.352,103.581,103.493,0.000933231,0.0449843,21.0022,122.186,0.00765596,0.0,0.0
112,27.75,22.1313,22.3303,143.204,103.579,103.483,0.000889942,0.0443367,21.0032,122.206,0.00840795,0.0,0.0
120,29.75,22.1518,22.4283,142.064,103.594,103.924,0.000821126,0.0441644,21.0038,122.216,-0.0287361,0.0,0.0
128,31.75,22.511,22.6584,142.303,103.587,103.762,0.000733755,0.044115,21.0046,122.196,-0.0152488,0.0,0.0
136,33.75,22.4399,22.4916,140.587,103.602,103.507,0.000635501,0.0440191,21.0049,122.206,0.00824312,0.0,0.0
144,35.75,22.3509,22.9022,143.45,103.613,103.288,0.000540519,0.0438457,21.005,122.176,0.0283935,0.0,0.0
152,37.75,22.3323,22.4508,140.92,103.638,103.287,0.000512426,0.043731,21.0051,122.126,0.0307301,0.0,0.0
160,39.75,21.8775,22.5171,141.763,103.656,103.435,0.000614517,0.0435771,21.0051,122.156,0.0193166,0.0,0.0
168,41.75,22.5095,22.7373,138.083,103.679,103.868,0.000681517,0.0433196,21.0055,122.126,-0.0165331,0.0,0.0
176,43.75,21.9369,22.6039,142.429,103.706,103.629,0.000631971,0.0430387,21.0056,122.156,0.00669595,0.0,0.0
184,45.75,22.3882,22.1634,140.444,103.738,103.616,0.00060536,0.0430782,21.0056,122.136,0.0106345,0.0,0.0
192,47.75,22.3449,22.872,141.051,103.771,103.676,0.000581765,0.0434958,21.0049,122.116,0.00822804,0.0,0.0
200,49.75,22.1828,22.8572,141.777,103.809,103.664,0.000626162,0.0439763,21.004,122.106,0.0126774,0.0,0.0
208,51.75,22.5129,22.2455,141.383,103.843,103.699,0.000718943,0.0441766,21.0042,122.116,0.0125385,0.0,0.0
216,53.75,22.5577,23.1454,143.991,103.867,103.706,0.000741061,0.0442162,21.005,122.086,0.0139867,0.0,0.0
224,55.75,22.6217,22.6019,141.211,103.908,104.115,0.000716694,0.0442596,21.0053,122.106,-0.0180419,0.0,0.0
232,57.75,22.767,23.0146,139.711,103.935,103.963,0.000720436,0.0442894,21.0047,122.106,-0.00244593,0.0,0.0
240,59.75,22.9678,22.9936,139.212,103.972,104.247,0.000749374,0.0444356,21.0039,122.096,-0.023896,0.0,0.0
248,61.75,22.5829,22.8366,141.468,104.008,103.864,0.000680047,0.0451075,21.0023,122.076,0.012588,0.0,0.0
256,63.75,23.3857,22.9727,145.775,104.03,103.917,0.00048379,0.045909,21.0015,122.036,0.0098762,0.0,0.0
264,65.75,22.9023,23.1757,140.689,104.076,103.883,0.000329417,0.04639,21.0017,122.026,0.0167263,0.0,0.0
272,67.75,22.5464,22.4476,141.638,104.095,103.87,0.000365968,0.0469266,21.0015,122.046,0.0195522,0.0,0.0
280,69.75,22.5595,22.9605,141.249,104.14,103.82,0.000537918,0.0477798,21.0004,122.006,0.027826,0.0,0.0
288,71.75,22.6138,23.2198,141.522,104.186,104.286,0.00075093,0.0484099,20.9999,122.006,-0.00870341,0.0,0.0
296,73.75,22.6658,23.0151,141.559,104.189,103.898,0.000860192,0.0482365,20.9997,121.986,0.0252682,0.0,0.0
304,75.75,22.9147,23.0408,140.477,104.234,104.099,0.000929931,0.0476794,21.0013,121.966,0.0116931,0.0,0.0
312,77.75,22.7677,23.1428,142.025,104.264,104.157,0.0009233,0.0472213,21.0024,121.956,0.00928375,0.0,0.0
320,79.75,23.0442,23.1156,143.217,104.283,104.206,0.000837426,0.0471164,21.0029,121.926,0.00668626,0.0,0.0
328,81.75,22.7079,23.2577,140.779,104.312,104.143,0.000782138,0.0474658,21.0025,121.916,0.0147123,0.0,0.0
336,83.75,22.8037,23.0695,142.611,104.337,104.328,0.000800579,0.0481849,21.0016,121.916,0.000788207,0.0,0.0
344,85.75,23.1461,23.1355,145.62,104.365,104.471,0.000858291,0.0491776,21.0006,121.866,-0.00914649,0.0,0.0
352,87.75,23.1869,22.9636,140.545,104.395,104.455,0.000949908,0.0503959,21.0002,121.876,-0.00524802,0.0,0.0
360,89.75,23.3945,22.9329,143.183,104.416,104.347,0.00112001,0.0514908,21.0002,121.856,0.00598154,0.0,0.0
368,91.75,23.0049,23.2205,142.637,104.444,104.1,0.00125438,0.0521001,21.0002,121.846,0.029822,0.0,0.0
376,93.75,22.7411,22.9249,144.738,104.444,103.914,0.00132424,0.0520711,21.0013,121.826,0.046062,0.0,0.0
384,95.75,22.9942,23.0853,141.497,104.485,104.107,0.00134715,0.0521024,21.0019,121.806,0.0327685,0.0,0.0
392,97.75,22.907,23.4096,143.042,104.519,103.694,0.00129522,0.0520961,21.0022,121.776,0.0717359,0.0,0.0
400,99.75,23.5631,23.2291,144.659,104.545,104.254,0.00125908,0.0522707,21.0024,121.756,0.0252209,0.0,0.0
408,101.75,23.0988,23.3448,142.151,104.576,103.723,0.00129901,0.0527688,21.0024,121.706,0.0739993,0.0,0.0
416,103.75,22.9187,23.1298,140.807,104.595,103.555,0.00137334,0.0534748,21.0025,121.656,0.0903919,0.0,0.0
424,105.75,23.2549,23.2792,139.93,104.6,103.12,0.00137658,0.054033,21.0025,121.646,0.128877,0.0,0.0
432,107.75,22.9821,23.4756,140.042,104.629,102.281,0.00135126,0.0545019,21.0025,121.626,0.205241,0.0,0.0
440,109.75,23.3192,23.2433,140.051,104.647,102.19,0.00136232,0.054765,21.0024,121.536,0.214888,0.0,0.0
448,111.75,23.7177,23.5279,138.043,104.665,101.773,0.00153345,0.0547106,21.0019,121.506,0.253397,0.0,0.0
456,113.75,22.7943,23.8404,138.994,104.685,101.485,0.00179307,0.0544535,21.0026,121.456,0.280853,0.0,0.0
464,115.75,23.2798,23.6169,142.943,104.693,101.166,0.00194703,0.0542116,21.0033,121.416,0.309945,0.0,0.0
472,117.75,23.1168,23.0394,142.957,104.693,101.658,0.00194874,0.0541662,21.0036,121.336,0.266112,0.0,0.0
480,119.75,23.4761,24.0528,143.135,104.712,101.789,0.00187523,0.0539516,21.0032,121.296,0.256158,0.0,0.0
488,121.75,23.4114,23.6816,141.935,104.716,101.595,0.00173682,0.053791,21.0022,121.266,0.273721,0.0,0.0
496,123.75,23.3591,23.8844,142.492,104.73,100.627,0.00152944,0.0537574,21.0018,121.196,0.361517,0.0,0.0
504,125.75,23.2822,23.6284,141.096,104.744,100.778,0.00142674,0.0539246,21.0016,121.145,0.349083,0.0,0.0
512,127.75,23.3742,23.608,141.592,104.75,100.499,0.0015136,0.0540091,21.0017,121.055,0.374791,0.0,0.0
520,129.75,23.7455,23.8624,140.89,104.759,100.15,0.00165536,0.0541627,21.0015,121.035,0.406975,0.0,0.0
528,131.75,23.1614,24.1694,142.128,104.759,100.127,0.00172168,0.0544733,21.001,120.975,0.409109,0.0,0.0
536,133.75,23.4101,23.2127,136.685,104.75,100.009,0.00171005,0.0546811,21.0029,120.895,0.418963,0.0,0.0
544,135.75,23.3722,23.9475,142.382,104.743,99.7635,0.00178064,0.0547765,21.0041,120.815,0.440602,0.0,0.0
552,137.75,23.3524,23.6909,145.799,104.728,99.8371,0.00189423,0.0549944,21.004,120.745,0.432617,0.0,0.0
560,139.75,23.3469,24.077,140.812,104.73,100.194,0.00203097,0.0562225,20.9999,120.715,0.400491,0.0,0.0
568,141.75,22.9485,23.7775,140.472,104.728,104.817,0.00230131,0.0702161,20.978,120.525,-0.00772234,0.0,1.0
576,143.75,23.7829,23.9666,131.35,104.696,104.871,0.00312278,0.125627,20.9002,120.415,-0.0150813,0.0,1.0
584,145.75,24.9253,24.7918,123.64,104.693,105.456,0.00426714,0.233053,20.7704,120.145,-0.0656916,0.0,1.0
592,147.75,25.1283,23.9544,123.804,104.679,104.367,0.00495112,0.319978,20.6656,119.694,0.0269906,0.0,1.0
600,149.75,27.4206,25.2565,124.77,104.659,105.525,0.00488177,0.360196,20.6202,119.584,-0.0745281,0.0,1.0
608,151.75,28.6214,26.2255,131.179,104.638,106.919,0.00441452,0.364775,20.6116,119.204,-0.195064,0.0,0.0
616,153.75,30.2399,27.4052,126.929,104.597,108.625,0.00406813,0.358921,20.6167,118.954,-0.34181,0.0,0.0
624,155.75,31.0383,28.7338,125.197,104.584,107.585,0.0039165,0.353579,20.6233,118.663,-0.255879,0.0,0.0
632,157.75,31.8999,29.8399,129.997,104.537,107.053,0.00383773,0.351348,20.629,118.413,-0.215181,0.0,0.0
640,159.75,32.7792,30.8504,126.68,104.496,106.82,0.00377021,0.347652,20.6346,118.123,-0.198957,0.0,0.0
648,161.75,34.2755,31.9448,127.539,104.459,106.62,0.00376229,0.344922,20.6391,117.953,-0.185199,0.0,0.0
656,163.75,35.1522,32.9274,133.048,104.41,107.685,0.00376642,0.344274,20.6431,117.702,-0.27937,0.0,0.0
664,165.75,35.8002,33.4098,124.649,104.364,108.184,0.00372666,0.338766,20.6518,117.462,-0.325203,0.0,0.0
672,167.75,36.2838,33.8571,130.952,104.314,107.861,0.00358095,0.331973,20.6606,117.152,-0.302423,0.0,0.0
680,169.75,37.2148,34.8892,129.813,104.261,106.748,0.00343952,0.326449,20.6671,116.982,-0.213166,0.0,0.0
688,171.75,37.1212,35.0504,133.148,104.196,106.698,0.00342979,0.323902,20.6701,116.702,-0.214703,0.0,0.0
696,173.75,37.58,36.2369,130.97,104.146,108.163,0.00340859,0.323461,20.6714,116.531,-0.342336,0.0,0.0
704,175.75,39.1661,37.5108,130.231,104.073,107.092,0.00334342,0.324422,20.6709,116.261,-0.258654,0.0,0.0
712,177.75,39.3748,37.5359,128.726,103.995,108.21,0.0033602,0.324604,20.6704,116.061,-0.359382,0.0,0.0
720,179.75,39.579,37.9079,129.518,103.927,106.439,0.00348421,0.32203,20.6723,115.751,-0.216051,0.0,0.0
728,181.75,40.2778,38.947,123.923,103.851,106.975,0.00357305,0.319848,20.6757,115.491,-0.26808,0.0,0.0
736,183.75,40.7923,39.5651,133.951,103.793,107.183,0.00353689,0.317872,20.6785,115.32,-0.290749,0.0,0.0
744,185.75,40.7228,39.6614,130.578,103.713,107.857,0.00347065,0.31641,20.6796,115.07,-0.354413,0.0,0.0
752,187.75,41.2925,40.2616,122.484,103.665,106.983,0.00342076,0.314018,20.6838,114.81,-0.285038,0.0,0.0
760,189.75,41.453,40.6788,137.63,103.592,105.333,0.00339607,0.309694,20.6887,114.6,-0.150808,0.0,0.0
768,191.75,41.8776,41.3707,128.388,103.559,106.39,0.00338351,0.306258,20.6919,114.299,-0.243951,0.0,0.0
776,193.75,42.2896,41.8797,133.003,103.499,106.467,0.00337285,0.302179,20.6967,114.099,-0.255729,0.0,0.0
784,195.75,42.399,41.9117,129.218,103.463,107.556,0.00334711,0.297923,20.7014,113.879,-0.350953,0.0,0.0
792,197.75,42.3687,42.2674,127.544,103.44,106.144,0.00324416,0.294438,20.7047,113.689,-0.233435,0.0,0.0
800,199.75,42.5948,42.7869,134.402,103.43,106.74,0.00310345,0.291895,20.7078,113.459,-0.284947,0.0,0.0
808,201.75,42.6884,42.6557,128.499,103.427,107.567,0.00297133,0.291178,20.7085,113.189,-0.355073,0.0,0.0
816,203.75,42.5303,42.8624,128.908,103.439,106.993,0.00284879,0.29122,20.7079,113.028,-0.305616,0.0,0.0
824,205.75,42.8813,43.4932,131.68,103.457,106.569,0.002911,0.291818,20.7077,112.818,-0.268047,0.0,0.0
832,207.75,43.2734,43.1216,129.87,103.502,106.684,0.00310461,0.291785,20.7076,112.548,-0.27393,0.0,0.0
840,209.75,42.8688,43.369,133.842,103.557,105.891,0.00316354,0.290089,20.7089,112.308,-0.201585,0.0,0.0
848,211.75,43.3733,43.6725,128.392,103.626,106.718,0.00309235,0.288046,20.7098,112.088,-0.265959,0.0,0.0
856,213.75,43.4552,43.985,129.032,103.72,106.767,0.00299787,0.287492,20.7104,111.877,-0.261955,0.0,0.0
864,215.75,43.4129,44.3131,125.81,103.802,106.36,0.00292516,0.287368,20.71,111.657,-0.220178,0.0,0.0
872,217.75,43.3627,44.6214,126.437,103.879,107.954,0.00294557,0.288554,20.7099,111.467,-0.348096,0.0,0.0
880,219.75,43.4809,44.5238,130.92,103.954,107.616,0.00296529,0.28816,20.7103,111.127,-0.313172,0.0,0.0
888,221.75,44.1094,45.2811,131.363,104.049,105.918,0.00289355,0.285766,20.7126,110.977,-0.161026,0.0,0.0
896,223.75,43.5793,44.9017,133.626,104.152,107.312,0.00277491,0.282286,20.7158,110.696,-0.270337,0.0,0.0
904,225.75,43.6824,44.807,134.588,104.243,107.57,0.00264686,0.279212,20.72,110.516,-0.284173,0.0,0.0
912,227.75,43.7893,45.0416,133.999,104.322,107.109,0.0025352,0.275949,20.7237,110.276,-0.23846,0.0,0.0
920,229.75,44.0217,45.5858,132.735,104.39,106.644,0.00242795,0.272843,20.7276,110.036,-0.193221,0.0,0.0
928,231.75,43.6727,45.5747,133.618,104.459,107.383,0.00233463,0.270156,20.7318,109.816,-0.249772,0.0,0.0
936,233.75,43.6043,45.3296,127.267,104.537,107.444,0.00228774,0.267179,20.735,109.635,-0.248139,0.0,0.0
944,235.75,43.7088,45.5944,129.888,104.592,108.663,0.00237029,0.264935,20.7372,109.415,-0.345465,0.0,0.0
952,237.75,43.5548,45.552,135.573,104.647,107.954,0.00250887,0.262205,20.7394,109.305,-0.281435,0.0,0.0
960,239.75,43.5676,45.3435,135.382,104.694,107.117,0.00256406,0.25987,20.7422,109.085,-0.206977,0.0,0.0
968,241.75,43.0182,45.3567,130.583,104.726,107.362,0.00250182,0.258608,20.7445,108.865,-0.224828,0.0,0.0
976,243.75,42.9705,45.0935,130.124,104.75,107.21,0.00239112,0.257722,20.7457,108.765,-0.209945,0.0,0.0
984,245.75,43.6679,46.0112,134.035,104.773,108.238,0.00234036,0.25396,20.7504,108.675,-0.294293,0.0,0.0
992,247.75,42.6858,45.1067,135.375,104.814,107.134,0.00235501,0.250021,20.7535,108.464,-0.198028,0.0,0.0
1000,249.75,42.8988,45.5452,129.663,104.833,107.584,0.00244813,0.245937,20.759,108.294,-0.234334,0.0,0.0
1008,251.75,43.2988,45.7189,127.87,104.84,108.409,0.00248674,0.241424,20.7651,108.074,-0.302765,0.0,0.0
1016,253.75,42.7713,45.317,132.519,104.849,108.011,0.00246966,0.236628,20.7715,107.854,-0.268786,0.0,0.0
1024,255.75,42.7603,45.4086,134.17,104.865,107.255,0.00248147,0.233016,20.7762,107.694,-0.203799,0.0,0.0
1032,257.75,42.4604,45.09,135.142,104.854,107,0.00247094,0.229558,20.7808,107.494,-0.183234,0.0,0.0
1040,259.75,42.3255,44.9852,134.612,104.844,107.721,0.00232134,0.226288,20.7845,107.333,-0.244856,0.0,0.0
1048,261.75,42.4471,45.3999,129.595,104.849,107.292,0.00218126,0.222618,20.7888,107.133,-0.208398,0.0,0.0
1056,263.75,42.2454,45.0956,132.049,104.848,107.215,0.00222728,0.218398,20.7932,106.973,-0.20195,0.0,0.0
1064,265.75,41.9972,44.6577,131.853,104.849,106.93,0.00239023,0.21517,20.7976,106.813,-0.177764,0.0,0.0
1072,267.75,41.8496,44.4063,132.613,104.828,106.824,0.00252047,0.212419,20.801,106.683,-0.170559,0.0,0.0
1080,269.75,41.4463,44.6732,130.253,104.797,107.239,0.00265968,0.209061,20.8048,106.543,-0.208368,0.0,0.0
1088,271.75,41.2327,44.4781,132.436,104.777,107.271,0.00282482,0.206409,20.808,106.353,-0.212796,0.0,0.0
1096,273.75,41.0033,44.0394,134.123,104.745,107.06,0.00288486,0.203758,20.8113,106.222,-0.197721,0.0,0.0
1104,275.75,40.8333,44.0409,134.954,104.713,107.031,0.00280431,0.200585,20.8158,106.092,-0.198057,0.0,0.0
1112,277.75,40.2908,43.6398,133.809,104.674,106.74,0.00264097,0.198993,20.818,105.922,-0.176815,0.0,0.0
1120,279.75,40.566,43.8994,132.168,104.621,106.834,0.00253092,0.19735,20.8202,105.842,-0.189351,0.0,0.0
1128,281.75,40.6271,43.7614,135.146,104.584,106.281,0.00253331,0.196124,20.822,105.672,-0.145562,0.0,0.0
1136,283.75,39.8985,43.298,135.554,104.545,106.694,0.00257413,0.194344,20.8234,105.522,-0.18398,0.0,0.0
1144,285.75,39.96,43.1939,139.403,104.475,106.528,0.00262835,0.193157,20.8252,105.382,-0.176024,0.0,0.0
1152,287.75,39.5972,43.0169,135.011,104.412,106.277,0.00262601,0.192174,20.8271,105.202,-0.160096,0.0,0.0
1160,289.75,39.4007,42.8179,134.041,104.383,106.096,0.00248163,0.190609,20.8296,105.051,-0.147265,0.0,0.0
1168,291.75,39.305,42.864,136.379,104.333,106.514,0.00232474,0.188485,20.8327,104.931,-0.187101,0.0,0.0
1176,293.75,39.09,42.3621,134.622,104.294,105.766,0.00232713,0.186022,20.8343,104.781,-0.126801,0.0,0.0
1184,295.75,39.164,42.6744,133.15,104.237,106.381,0.00247558,0.185305,20.8352,104.651,-0.184103,0.0,0.0
1192,297.75,38.8598,42.018,134.336,104.192,106.635,0.00250447,0.18596,20.8355,104.501,-0.209663,0.0,0.0
1200,299.75,39.179,42.2812,138.831,104.171,105.697,0.00233437,0.185961,20.8356,104.371,-0.131541,0.0,0.0
1208,301.75,38.7967,41.8211,134.965,104.116,106.335,0.00209681,0.185332,20.8369,104.161,-0.190789,0.0,0.0
1216,303.75,38.7735,41.7501,136.043,104.088,105.687,0.0019945,0.184199,20.8378,104.031,-0.137856,0.0,0.0
1224,305.75,38.2009,41.604,135.962,104.065,105.868,0.00209653,0.183587,20.8392,103.87,-0.155372,0.0,0.0
1232,307.75,38.5117,41.5934,132.926,104.045,105.433,0.00227612,0.18252,20.8418,103.72,-0.11989,0.0,0.0
1240,309.75,37.9682,40.8303,138.157,104.015,105.879,0.00254378,0.180463,20.8436,103.57,-0.160621,0.0,0.0
1248,311.75,37.712,41.3147,132.181,104.005,106.804,0.00278084,0.178676,20.8446,103.38,-0.240225,0.0,0.0
1256,313.75,37.73,40.7166,134.634,103.982,105.903,0.00283049,0.17754,20.8461,103.26,-0.165633,0.0,0.0
1264,315.75,37.8538,40.8281,131.416,104.001,105.542,0.00278625,0.177235,20.8474,103.08,-0.133059,0.0,0.0
1272,317.75,37.7762,40.9238,137.167,103.973,105.33,0.00264383,0.176499,20.8486,103.04,-0.117264,0.0,0.0
1280,319.75,37.7992,40.6412,134.925,103.974,105.36,0.00245926,0.175455,20.8491,102.95,-0.11979,0.0,0.0
1288,321.75,37.3721,40.3731,134.805,103.978,106.393,0.00237343,0.174426,20.8507,102.799,-0.207718,0.0,0.0
1296,323.75,37.3921,40.2797,133.509,103.988,105.459,0.0023462,0.173863,20.8526,102.689,-0.127087,0.0,0.0
1304,325.75,37.3367,40.3799,131.132,103.993,105.676,0.00233887,0.173311,20.8535,102.559,-0.145243,0.0,0.0
1312,327.75,37.3565,40.407,140.859,104.004,106.564,0.00233479,0.172619,20.8539,102.409,-0.219921,0.0,0.0
1320,329.75,37.1482,39.9022,136.077,104.012,105.738,0.0023155,0.171764,20.854,102.309,-0.148853,0.0,0.0
1328,331.75,36.6846,40.0879,134.859,104.027,105.569,0.00230395,0.171465,20.8547,102.159,-0.133092,0.0,0.0
1336,333.75,36.8553,39.6698,132.529,104.054,105.332,0.00228814,0.171302,20.8557,102.059,-0.11048,0.0,0.0
1344,335.75,36.6735,39.8935,134.991,104.049,106.262,0.00229307,0.171265,20.8561,101.929,-0.190333,0.0,0.0
1352,337.75,36.7799,39.6347,134.231,104.066,105.478,0.00236502,0.170842,20.8574,101.799,-0.121886,0.0,0.0
1360,339.75,36.4504,39.3,134.63,104.072,106.49,0.00243783,0.170521,20.8581,101.628,-0.207753,0.0,0.0
1368,341.75,36.6509,39.2253,136.036,104.081,106.417,0.00246665,0.170244,20.8581,101.508,-0.200769,0.0,0.0
1376,343.75,36.3966,39.2016,137.311,104.073,105.728,0.00247952,0.169279,20.8581,101.398,-0.142725,0.0,0.0
1384,345.75,36.2457,39.1379,135.489,104.071,106.34,0.00246326,0.168831,20.8581,101.258,-0.195042,0.0,0.0
1392,347.75,35.9354,38.7295,137.394,104.074,105.789,0.00241236,0.169361,20.8581,101.138,-0.147833,0.0,0.0
1400,349.75,36.2553,38.859,136.857,104.072,106.342,0.00237317,0.169824,20.8581,101.038,-0.195164,0.0,0.0
1408,351.75,35.7493,38.4769,136.096,104.071,105.872,0.00236114,0.170186,20.8581,100.868,-0.155137,0.0,0.0
1416,353.75,35.8802,38.4862,139.391,104.074,106.024,0.00232865,0.169289,20.8593,100.798,-0.16796,0.0,0.0
1424,355.75,35.8295,38.4656,136.073,104.076,105.272,0.00226994,0.169106,20.8599,100.698,-0.103296,0.0,0.0
1432,357.75,35.6952,38.3361,138.391,104.071,105.125,0.0023079,0.169424,20.8597,100.568,-0.0911981,0.0,0.0
1440,359.75,35.8823,38.5035,131.634,104.073,105.356,0.00242052,0.169419,20.8597,100.457,-0.110794,0.0,0.0
1448,361.75,35.8448,38.3553,137.63,104.043,105.458,0.0025076,0.169465,20.8601,100.327,-0.122232,0.0,0.0
1456,363.75,35.9274,38.3676,132.029,104.035,104.971,0.00259543,0.168968,20.8603,100.197,-0.0809695,0.0,0.0
1464,365.75,35.8032,38.0642,133.118,104.027,105.794,0.00262291,0.16842,20.8603,100.047,-0.152347,0.0,0.0
1472,367.75,35.7942,38.456,136.026,104.023,105.038,0.00257262,0.167664,20.8604,99.937,-0.0878526,0.0,0.0
1480,369.75,35.5578,38.2335,134.576,104.017,105.384,0.00253704,0.168247,20.8596,99.7769,-0.118117,0.0,0.0
1488,371.75,35.6818,38.118,133.116,104.011,105.591,0.002543,0.16939,20.8593,99.6467,-0.136405,0.0,0.0
1496,373.75,35.6168,37.7255,135.773,104.014,105.268,0.00259944,0.170362,20.8591,99.5567,-0.108414,0.0,0.0
1504,375.75,35.4646,37.8367,136.242,104.008,105.773,0.00269505,0.170534,20.859,99.4266,-0.152172,0.0,0.0
1512,377.75,35.3216,37.947,135.177,104.015,105.594,0.00280159,0.170736,20.859,99.2764,-0.136313,0.0,0.0
1520,379.75,35.0279,36.9325,133.895,104.016,105.589,0.00284559,0.170557,20.8585,99.1563,-0.135766,0.0,0.0
1528,381.75,35.566,37.4771,133.726,104.031,104.958,0.00285179,0.171576,20.8577,99.0062,-0.080252,0.0,0.0
1536,383.75,35.4742,37.7431,134.36,104.026,106.514,0.00288688,0.173067,20.856,98.8661,-0.213782,0.0,0.0
1544,385.75,35.4266,37.781,138.038,104.053,105.852,0.00287603,0.173432,20.8546,98.746,-0.155045,0.0,0.0
1552,387.75,35.588,37.8122,135.472,104.062,106.124,0.00279957,0.173904,20.8543,98.6459,-0.177528,0.0,0.0
1560,389.75,35.4734,37.289,131.31,104.063,105.425,0.0026539,0.174965,20.854,98.5158,-0.117592,0.0,0.0
1568,391.75,34.9082,37.5226,129.803,104.068,106.43,0.0025105,0.176207,20.8527,98.3756,-0.202982,0.0,0.0
1576,393.75,35.51,37.2027,132.805,104.082,105.461,0.0024761,0.177391,20.8513,98.2355,-0.119092,0.0,0.0
1584,395.75,35.1191,36.9233,133.031,104.092,106.189,0.00251887,0.179009,20.8494,98.1655,-0.180396,0.0,0.0
1592,397.75,35.5275,37.1499,135.998,104.101,105.875,0.002637,0.180789,20.8469,98.0153,-0.152808,0.0,0.0
1600,399.75,35.8254,37.2962,134.694,104.105,106.31,0.00267477,0.182422,20.8447,97.9653,-0.189608,0.0,0.0
1608,401.75,35.4998,37.4411,133.428,104.119,105.726,0.00260773,0.184786,20.8427,97.8252,-0.138563,0.0,0.0
1616,403.75,35.3165,37.5216,135.047,104.128,107.247,0.00253695,0.187303,20.8402,97.7151,-0.266895,0.0,0.0
1624,405.75,35.734,37.4789,136.519,104.125,105.845,0.00257643,0.191086,20.8341,97.5349,-0.148168,0.0,0.0
1632,407.75,35.3806,37.4358,135.234,104.131,105.576,0.00261578,0.194904,20.8298,97.4248,-0.124618,0.0,0.0
1640,409.75,35.6669,37.6648,130.789,104.139,106.596,0.00256522,0.197651,20.8273,97.2547,-0.210933,0.0,0.0
1648,411.75,35.8676,37.2558,130.147,104.128,105.721,0.00249602,0.20001,20.8252,97.1145,-0.137314,0.0,0.0
1656,413.75,35.9468,37.6764,133.217,104.127,105.824,0.00242014,0.202618,20.8218,96.9944,-0.146229,0.0,0.0
1664,415.75,35.9993,37.76,134.15,104.117,105.48,0.00234798,0.204512,20.8197,96.8343,-0.117678,0.0,0.0
1672,417.75,36.0104,37.5556,132.626,104.122,105.559,0.00231172,0.206967,20.8152,96.6742,-0.123948,0.0,0.0
1680,419.75,36.4703,37.7292,132.02,104.113,106.301,0.00231585,0.209967,20.8104,96.534,-0.188154,0.0,0.0
1688,421.75,36.3572,37.8347,131.409,104.1,106.175,0.00238516,0.21384,20.8053,96.3439,-0.178472,0.0,0.0
1696,423.75,36.2032,37.841,132.009,104.096,106.297,0.00255687,0.21694,20.8018,96.2538,-0.189269,0.0,0.0
1704,425.75,36.6637,38.0212,131.888,104.087,105.449,0.00270765,0.219048,20.7984,96.0937,-0.117612,0.0,0.0
1712,427.75,36.6133,38.0726,130.922,104.073,106.294,0.00275173,0.221753,20.7931,95.9335,-0.191049,0.0,0.0
1720,429.75,36.5581,38.6306,130.327,104.074,106.702,0.00273467,0.226426,20.7874,95.8234,-0.225553,0.0,0.0
1728,431.75,37.4695,38.9338,132.177,104.04,106.585,0.00273782,0.230681,20.7838,95.6132,-0.218579,0.0,0.0
1736,433.75,37.3438,39.0517,132.411,104.021,107.002,0.00275277,0.234883,20.7788,95.4631,-0.255578,0.0,0.0
1744,435.75,37.87,38.7253,129.729,104.01,107.287,0.00267175,0.239172,20.7731,95.313,-0.280522,0.0,0.0
1752,437.75,37.9501,39.0759,132.933,103.991,106.46,0.00255262,0.243278,20.7692,95.1128,-0.212203,0.0,0.0
1760,439.75,38.7178,39.692,131.525,103.981,106.546,0.00263383,0.244308,20.7664,94.9426,-0.220404,0.0,0.0
1768,441.75,38.4288,39.3241,134.736,103.957,105.581,0.00268104,0.246316,20.7634,94.7725,-0.140271,0.0,0.0
1776,443.75,38.585,39.8804,131.078,103.943,107.526,0.00254636,0.250566,20.7589,94.6424,-0.30653,0.0,0.0
1784,445.75,38.9735,40.1296,131.828,103.923,106.559,0.00238293,0.254589,20.7522,94.4923,-0.226584,0.0,0.0
1792,447.75,39.2397,40.3106,130.848,103.914,105.913,0.00238015,0.258126,20.7469,94.2721,-0.172353,0.0,0.0
1800,449.75,39.261,40.5182,126.984,103.899,106.393,0.00238404,0.262191,20.7431,94.0919,-0.214597,0.0,0.0
1808,451.75,39.5201,40.7815,132.98,103.883,106.633,0.00237521,0.264184,20.741,93.8817,-0.236326,0.0,0.0
1816,453.75,39.7994,41.1053,129.505,103.874,106.952,0.002386,0.267372,20.736,93.6715,-0.264126,0.0,0.0
1824,455.75,39.8877,40.9041,129.979,103.872,107.031,0.00238048,0.270207,20.734,93.5014,-0.271001,0.0,0.0
1832,457.75,40.3094,41.4506,134.286,103.87,105.768,0.00238746,0.271007,20.7338,93.2912,-0.163801,0.0,0.0
1840,459.75,40.7073,41.6142,133.868,103.868,106.391,0.00240623,0.27192,20.7328,93.071,-0.217049,0.0,0.0
1848,461.75,40.8842,41.7134,128.873,103.841,106.855,0.00237029,0.27312,20.7322,92.8308,-0.258837,0.0,0.0
1856,463.75,41.0867,42.26,130.183,103.842,106.542,0.00228753,0.273601,20.7307,92.6306,-0.232229,0.0,0.0
1864,465.75,41.3789,41.9439,131.083,103.848,105.743,0.00231758,0.275841,20.7287,92.5205,-0.163601,0.0,0.0
1872,467.75,41.2102,42.142,128.524,103.822,106.002,0.00242192,0.280042,20.7242,92.2803,-0.187895,0.0,0.0
1880,469.75,41.7353,42.5147,136.955,103.836,107.083,0.00251682,0.28211,20.7207,92.1502,-0.278539,0.0,0.0
1888,471.75,41.8783,42.5429,125.542,103.81,106.451,0.00262953,0.2854,20.716,91.94,-0.227236,0.0,0.0
1896,473.75,41.6872,43.2932,131.394,103.813,106.312,0.00266993,0.290442,20.7103,91.7899,-0.21514,0.0,0.0
1904,475.75,42.4561,43.1785,132.764,103.805,107.099,0.00267301,0.296489,20.7028,91.5997,-0.28264,0.0,0.0
1912,477.75,42.4153,43.5887,125.723,103.789,106.092,0.0026441,0.301875,20.6982,91.4096,-0.198552,0.0,0.0
1920,479.75,43.121,44.0587,128.823,103.784,107.221,0.00251259,0.304424,20.6952,91.2294,-0.294709,0.0,0.0
1928,481.75,43.2414,43.8829,128.843,103.778,107.043,0.00240175,0.304736,20.6939,91.0393,-0.280123,0.0,0.0
1936,483.75,43.4288,44.3722,130.213,103.778,106.557,0.00236781,0.304329,20.6934,90.759,-0.239092,0.0,0.0
1944,485.75,43.7796,44.644,128.017,103.762,106.643,0.00238821,0.306255,20.6916,90.5788,-0.247727,0.0,0.0
1952,487.75,43.3845,44.9539,129.696,103.745,107.313,0.00245045,0.308666,20.6897,90.3587,-0.30587,0.0,0.0
1960,489.75,44.1971,45.2453,127.22,103.737,107.696,0.00250649,0.309519,20.6889,90.1585,-0.33875,0.0,0.0
1968,491.75,44.4862,45.3574,127.69,103.731,106.043,0.00254799,0.30933,20.6886,89.9483,-0.199389,0.0,0.0
1976,493.75,44.7137,45.7542,126.337,103.729,106.764,0.00261293,0.309964,20.6882,89.7381,-0.26087,0.0,0.0
1984,495.75,44.3881,45.8107,130.071,103.726,106.9,0.00269879,0.311586,20.6866,89.5279,-0.27264,0.0,0.0
1992,497.75,44.9327,45.8244,124.521,103.709,106.605,0.00277142,0.312092,20.6863,89.3177,-0.249133,0.0,0.0
2000,499.75,45.0031,46.0418,127.954,103.691,106.177,0.00273363,0.311303,20.687,89.0876,-0.214326,0.0,0.0
2008,501.75,45.0429,46.6623,130.152,103.684,106.462,0.00256615,0.311987,20.688,88.9074,-0.239164,0.0,0.0
2016,503.75,45.2186,46.4695,128.548,103.682,107.114,0.00246128,0.3149,20.6865,88.7172,-0.294509,0.0,0.0
2024,505.75,45.3473,46.7866,127.839,103.668,105.578,0.00248806,0.316786,20.6853,88.497,-0.165181,0.0,0.0
2032,507.75,45.5615,47.1609,131.474,103.662,105.641,0.00249964,0.317617,20.6843,88.2368,-0.171047,0.0,0.0
2040,509.75,45.8729,47.0149,128.13,103.653,105.076,0.00253819,0.321305,20.6815,88.0366,-0.123312,0.0,0.0
2048,511.75,46.1657,47.3593,126.938,103.639,106.383,0.00258322,0.324693,20.6781,87.8064,-0.236383,0.0,0.0
2056,513.75,45.9096,47.9225,130.249,103.629,106.783,0.00264897,0.327297,20.6749,87.6263,-0.271147,0.0,0.0
2064,515.75,46.1518,47.8988,125.642,103.603,106.848,0.00277732,0.329734,20.6731,87.3661,-0.278994,0.0,0.0
2072,517.75,46.2162,48.2938,132.498,103.584,105.357,0.00287678,0.331644,20.6712,87.1659,-0.153548,0.0,0.0
2080,519.75,46.6206,47.7945,127.975,103.574,106.043,0.00288121,0.333808,20.6679,86.9357,-0.213109,0.0,0.0
2088,521.75,46.7952,48.6035,122.968,103.569,106.42,0.00295849,0.3382,20.6632,86.7155,-0.2456,0.0,0.0
2096,523.75,47.0963,48.6761,126.182,103.549,105.796,0.00304871,0.342016,20.6592,86.4352,-0.194166,0.0,0.0
2104,525.75,47.2569,48.614,126.702,103.523,106.115,0.00304031,0.345914,20.6553,86.205,-0.223693,0.0,0.0
2112,527.75,47.6291,49.3163,125.083,103.517,105.209,0.00296232,0.351327,20.6495,85.9548,-0.146697,0.0,0.0
2120,529.75,47.8711,49.4943,126.583,103.498,106.569,0.00296611,0.356598,20.64,85.6546,-0.26454,0.0,0.0
2128,531.75,48.0271,49.5449,123.099,103.493,105.827,0.00303485,0.363823,20.6293,85.3643,-0.201748,0.0,0.0
2136,533.75,48.7458,50.3621,128.053,103.494,105.386,0.00311209,0.371727,20.6219,85.044,-0.163855,0.0,0.0
2144,535.75,48.6419,50.2124,127.213,103.483,106.373,0.00323905,0.378879,20.6144,84.8439,-0.249136,0.0,0.0
2152,537.75,49.2193,50.5804,121.696,103.474,105.867,0.00355649,0.388142,20.6029,84.5936,-0.20687,0.0,0.0
2160,539.75,49.5796,50.9849,123.08,103.47,105.575,0.00383029,0.400076,20.59,84.3034,-0.182177,0.0,0.0
2168,541.75,49.854,51.2262,125.436,103.473,105.103,0.00395432,0.412975,20.5735,84.0031,-0.141366,0.0,0.0
2176,543.75,50.4023,52.0773,127.567,103.464,104.378,0.00402227,0.426337,20.5549,83.7029,-0.0795541,0.0,0.0
2184,545.75,50.8099,52.5111,123.017,103.464,104.628,0.00421292,0.439367,20.5391,83.4126,-0.101277,0.0,0.0
2192,547.75,51.3636,52.4787,126.077,103.486,102.991,0.00452626,0.451714,20.5277,83.0723,0.043416,0.0,0.0
2200,549.75,52.1685,53.2402,121.131,103.464,104.731,0.00478164,0.463935,20.513,82.8121,-0.110135,0.0,0.0
2208,551.75,53.1775,54.2338,123.519,103.465,102.055,0.00509082,0.480039,20.4911,82.4418,0.12409,0.0,0.0
2216,553.75,53.2222,54.6357,120.457,103.472,102.065,0.00534022,0.493441,20.4722,82.1215,0.123888,0.0,0.0
2224,555.75,53.8805,55.1665,124.021,103.479,104.499,0.00550853,0.508184,20.4527,81.7912,-0.0887858,0.0,0.0
2232,557.75,54.6941,55.6357,124.876,103.499,103.54,0.00560512,0.522718,20.4365,81.4409,-0.00353645,0.0,0.0
2240,559.75,55.8996,56.6578,119.509,103.513,103.255,0.00557535,0.532668,20.4229,81.0806,0.0226161,0.0,0.0
2248,561.75,56.3038,57.3876,121.357,103.534,104.876,0.00550335,0.538388,20.415,80.6902,-0.116502,0.0,0.0
2256,563.75,57.0756,57.9084,120.919,103.547,102.372,0.00555871,0.543117,20.4089,80.3399,0.103227,0.0,0.0
2264,565.75,57.8337,58.9564,120.63,103.568,103.693,0.00567228,0.545703,20.4046,79.9896,-0.0109719,0.0,0.0
2272,567.75,58.4268,59.4122,121.886,103.609,103.487,0.00574347,0.54732,20.4026,79.6694,0.0106614,0.0,0.0
2280,569.75,58.7143,59.7879,118.537,103.628,102.842,0.00576785,0.546847,20.4022,79.279,0.0688416,0.0,0.0
2288,571.75,59.2096,60.5626,124.414,103.659,103.544,0.00576604,0.542315,20.4042,78.9487,0.0100087,0.0,0.0
2296,573.75,59.8166,61.3178,122.394,103.7,104.191,0.00570907,0.540168,20.4058,78.6485,-0.0427148,0.0,0.0
2304,575.75,60.2725,61.4277,121.128,103.742,104.031,0.00554116,0.539999,20.4065,78.2781,-0.0251854,0.0,0.0
2312,577.75,60.4288,61.9414,123.806,103.79,104.253,0.00539628,0.53954,20.4055,77.9579,-0.040246,0.0,0.0
2320,579.75,60.4786,62.3441,120.112,103.827,104.358,0.00531161,0.541738,20.4014,77.6076,-0.046171,0.0,0.0
2328,581.75,60.8867,62.9195,118.506,103.878,104.913,0.00527271,0.547492,20.3949,77.2773,-0.0897076,0.0,0.0
2336,583.75,61.4168,62.986,119.57,103.921,104.222,0.00528802,0.55406,20.3857,76.917,-0.0262035,0.0,0.0
2344,585.75,62.0442,63.6602,117.56,103.975,104.258,0.00528786,0.561996,20.3734,76.5767,-0.0246453,0.0,0.0
2352,587.75,62.1299,63.809,118.928,104.026,103.987,0.00534495,0.57009,20.3627,76.2063,0.00339171,0.0,0.0
2360,589.75,62.7729,64.5867,126.925,104.062,103.021,0.00550029,0.575653,20.3562,75.856,0.0908969,0.0,0.0
2368,591.75,62.9686,64.8587,121.407,104.129,103.603,0.00568189,0.579452,20.3504,75.5057,0.0458013,0.0,0.0
2376,593.75,63.356,65.2812,118.813,104.162,104.45,0.00571597,0.582906,20.3461,75.1454,-0.0249643,0.0,0.0
2384,595.75,63.824,66.1632,118.359,104.201,103.658,0.00563167,0.586189,20.3419,74.7851,0.0472034,0.0,0.0
2392,597.75,64.1596,66.0431,119.751,104.264,104.988,0.00555872,0.588809,20.3391,74.3948,-0.0625586,0.0,0.0
2400,599.75,64.8358,66.8922,119.602,104.299,103.342,0.00556165,0.58699,20.3414,74.0044,0.0833463,0.0,0.0
2408,601.75,64.5854,66.8533,121.647,104.351,104.968,0.00562935,0.58379,20.345,73.6441,-0.0533189,0.0,0.0
2416,603.75,65.2961,67.684,117.718,104.391,103.585,0.00563169,0.579457,20.3493,73.2838,0.0701171,0.0,0.0
2424,605.75,65.3107,68.0539,117.714,104.442,103.927,0.00547525,0.576827,20.3543,73.0236,0.0447069,0.0,0.0
2432,607.75,65.953,68.2157,120.756,104.497,104.147,0.00528267,0.568785,20.3649,72.6833,0.0303873,0.0,0.0
2440,609.75,65.7899,68.5283,125.061,104.538,105.194,0.00513061,0.555669,20.3771,72.383,-0.0565898,0.0,0.0
2448,611.75,66.1181,68.6714,115.263,104.594,103.479,0.00496154,0.542696,20.3915,72.1028,0.0968794,0.0,0.0
2456,613.75,65.8792,68.7392,122.659,104.633,104.611,0.00479082,0.527489,20.4124,71.8125,0.00192134,0.0,0.0
2464,615.75,65.7211,68.9982,120.591,104.658,104.881,0.00470317,0.512031,20.4281,71.5623,-0.019252,0.0,0.0
2472,617.75,65.3634,69.0165,124.411,104.692,103.493,0.0047014,0.492691,20.4476,71.3121,0.104134,0.0,0.0
2480,619.75,65.5101,68.7903,122.775,104.723,103.423,0.00468242,0.4751,20.4738,71.0619,0.112989,0.0,0.0
2488,621.75,65.031,68.724,124.026,104.748,104.713,0.00463712,0.455074,20.4979,70.8517,0.00307373,0.0,0.0
2496,623.75,64.2777,68.707,126.876,104.787,104.567,0.00444,0.434445,20.5188,70.6215,0.0189572,0.0,0.0
2504,625.75,63.996,68.364,123.469,104.801,103.054,0.00417258,0.417943,20.5433,70.3913,0.152063,0.0,0.0
2512,627.75,63.5648,67.7659,125.5,104.816,104.545,0.0039962,0.396785,20.5732,70.1611,0.0234486,0.0,0.0
2520,629.75,62.9421,67.3482,119.815,104.834,103.623,0.00390057,0.375323,20.5976,69.9409,0.105044,0.0,0.0
2528,631.75,61.9058,66.6556,127.27,104.841,104.697,0.00385676,0.355822,20.6182,69.7407,0.0124286,0.0,0.0
2536,633.75,61.5027,66.0873,126.84,104.852,104.928,0.00381817,0.338035,20.6399,69.6606,-0.00655685,0.0,0.0
2544,635.75,60.8976,65.8195,128.673,104.864,104.476,0.00369347,0.321111,20.6594,69.4505,0.0335356,0.0,0.0
2552,637.75,60.1034,65.1429,130.35,104.876,105.621,0.00347666,0.305357,20.6777,69.2703,-0.0639925,0.0,0.0
2560,639.75,58.8375,64.3794,127.466,104.865,105.778,0.0033186,0.291153,20.6919,69.1502,-0.0784065,0.0,0.0
2568,641.75,58.4264,63.7062,130.613,104.863,106.623,0.00321374,0.276909,20.7095,69.0801,-0.150594,0.0,0.0
2576,643.75,57.5193,63.0601,128.02,104.879,105.566,0.00316278,0.263593,20.7241,68.8699,-0.0590261,0.0,0.0
2584,645.75,56.4316,62.6622,130.336,104.85,105.942,0.00309038,0.251569,20.7396,68.8099,-0.0936944,0.0,0.0
2592,647.75,55.8853,61.5835,129.248,104.85,106.381,0.00306353,0.241039,20.7555,68.6398,-0.131154,0.0,0.0
2600,649.75,55.0057,61.0049,131.359,104.818,106.556,0.00310141,0.230628,20.7702,68.5597,-0.148765,0.0,0.0
2608,651.75,54.4394,60.3659,131.321,104.798,107.023,0.00308291,0.22068,20.7815,68.4096,-0.19005,0.0,0.0
2616,653.75,53.6061,59.7071,133.732,104.783,108.152,0.00307471,0.211141,20.7919,68.3195,-0.286211,0.0,0.0
2624,655.75,52.7393,58.724,136.205,104.753,106.663,0.00312194,0.201646,20.805,68.2594,-0.163473,0.0,0.0
2632,657.75,51.8942,58.0028,131.152,104.737,107.457,0.00322368,0.192349,20.8166,68.1493,-0.231883,0.0,0.0
2640,659.75,51.1437,57.4775,132.054,104.719,106.616,0.00332552,0.183773,20.8278,68.1093,-0.162406,0.0,0.0
2648,661.75,50.7117,56.6403,133.728,104.699,107.272,0.00330352,0.17569,20.8367,67.9692,-0.219587,0.0,0.0
2656,663.75,50.0373,56.2223,131.26,104.676,106.966,0.00325769,0.168196,20.8458,67.9391,-0.195758,0.0,0.0
2664,665.75,49.0238,55.0136,132.943,104.66,106.122,0.00340199,0.161639,20.8535,67.8791,-0.125458,0.0,0.0
2672,667.75,48.3671,54.4422,135.722,104.625,105.731,0.00375367,0.1546,20.8636,67.759,-0.0951164,0.0,0.0
2680,669.75,47.6068,53.923,136.834,104.617,106.495,0.00405519,0.147291,20.8735,67.739,-0.160929,0.0,0.0
2688,671.75,46.8664,53.2452,134.912,104.58,106.357,0.0043123,0.139896,20.8823,67.6689,-0.152424,0.0,0.0
2696,673.75,46.2165,52.2523,136.372,104.56,105.246,0.00460688,0.13283,20.8902,67.5888,-0.0590923,0.0,0.0
2704,675.75,45.5114,51.6968,138.985,104.551,106.148,0.00487089,0.125924,20.8989,67.5388,-0.137183,0.0,0.0
2712,677.75,45.343,51.5322,136.806,104.519,106.026,0.00507417,0.119797,20.905,67.4587,-0.129521,0.0,0.0
2720,679.75,44.0994,50.1183,136.2,104.469,105.958,0.00535133,0.11485,20.911,67.4087,-0.128035,0.0,0.0
2728,681.75,43.3313,49.3716,139.729,104.444,105.836,0.00562629,0.109818,20.9174,67.3987,-0.11977,0.0,0.0
2736,683.75,42.9014,48.9659,137.772,104.431,105.936,0.00581421,0.105163,20.9229,67.3887,-0.12942,0.0,0.0
2744,685.75,42.1261,48.252,138.337,104.417,105.455,0.00595392,0.100898,20.9266,67.3686,-0.089455,0.0,0.0
2752,687.75,41.6667,47.274,138.017,104.401,105.059,0.00608888,0.0977473,20.9281,67.3286,-0.0568974,0.0,0.0
2760,689.75,40.8457,47.0252,135.076,104.388,105.847,0.0062213,0.0945258,20.9319,67.3086,-0.125595,0.0,0.0
2768,691.75,40.282,46.0903,138.176,104.382,105.741,0.0063845,0.0915179,20.9358,67.3086,-0.117025,0.0,0.0
2776,693.75,39.7069,45.7972,138.089,104.374,105.298,0.00661202,0.0889225,20.9389,67.2886,-0.0797537,0.0,0.0
2784,695.75,39.3565,44.6074,140.03,104.367,105.268,0.00692624,0.086858,20.9421,67.2886,-0.0777757,0.0,0.0
2792,697.75,38.5745,44.2218,138.896,104.39,105.478,0.00727163,0.0852489,20.9442,67.2686,-0.093756,0.0,0.0
2800,699.75,38.2085,43.3398,133.67,104.49,105.669,0.00749413,0.0832164,20.9457,67.2485,-0.10152,0.0,0.0
2808,701.75,37.9617,43.051,141.87,104.597,105.9,0.0076802,0.0814998,20.9473,67.2185,-0.112021,0.0,0.0
2816,703.75,37.3809,42.4965,136.243,104.669,105.243,0.00797424,0.080519,20.9486,67.1885,-0.0494247,0.0,0.0
2824,705.75,36.8116,41.8913,134.673,104.752,105.506,0.0082644,0.0795823,20.9503,67.1385,-0.0648944,0.0,0.0
2832,707.75,36.1676,41.4558,139.992,104.82,105.261,0.00844061,0.0786376,20.951,67.1385,-0.0379956,0.0,0.0
2840,709.75,36.0783,40.9375,140.881,104.898,105.973,0.00842741,0.0780533,20.9515,67.1084,-0.0922362,0.0,0.0
2848,711.75,35.4505,40.3933,138.141,104.969,105.76,0.00829566,0.0774432,20.9522,67.0884,-0.0678555,0.0,0.0
2856,713.75,35.1712,39.552,140.29,105.024,105.288,0.0082774,0.0762893,20.9533,67.0384,-0.0227544,0.0,0.0
2864,715.75,34.8077,39.4738,138.375,105.086,106.007,0.00834298,0.0750558,20.9551,66.9583,-0.0788982,0.0,0.0
2872,717.75,34.5878,38.7828,137.594,105.118,106.063,0.00844333,0.0742991,20.9563,66.9883,-0.0809015,0.0,0.0
2880,719.75,34.0323,38.6748,142.442,105.157,106.05,0.00858655,0.0737634,20.9569,66.9783,-0.0765196,0.0,0.0
2888,721.75,33.5892,37.8781,141.955,105.18,106.084,0.00869026,0.0732329,20.9571,66.9383,-0.0774233,0.0,0.0
2896,723.75,33.4561,37.3741,137.826,105.224,105.566,0.00884066,0.0727717,20.9578,66.9583,-0.0293337,0.0,0.0
2904,725.75,33.5088,37.769,141.088,105.251,105.938,0.00910432,0.072815,20.9582,66.9483,-0.0588373,0.0,0.0
2912,727.75,33.1548,36.9512,138.333,105.248,105.523,0.00927978,0.073102,20.959,66.8982,-0.0236268,0.0,0.0
2920,729.75,32.7118,36.5053,137.133,105.275,105.701,0.00940043,0.0730721,20.9593,66.8382,-0.0365777,0.0,0.0
2928,731.75,32.2723,36.2622,139.522,105.268,105.626,0.00970595,0.0723947,20.9595,66.8082,-0.0306634,0.0,0.0
2936,733.75,32.559,35.4747,141.617,105.27,105.812,0.0101526,0.0711527,20.9613,66.8282,-0.0464186,0.0,0.0
2944,735.75,30.3064,33.6395,139.777,105.266,105.583,0.0106021,0.0702065,20.9624,66.8282,-0.0272109,0.0,0.0
2952,737.75,30.1302,33.6103,137.93,105.261,105.255,0.0108644,0.0696756,20.9629,66.8582,0.00056178,0.0,0.0
2960,739.75,29.542,32.8832,139.542,105.245,106.012,0.0110135,0.0694252,20.9631,66.7781,-0.0657025,0.0,0.0
2968,741.75,29.7282,32.5149,136.403,105.231,105.817,0.0110766,0.0692152,20.9632,66.6981,-0.0501983,0.0,0.0
2976,743.75,29.7937,32.4875,139.791,105.221,106.082,0.0111675,0.0690765,20.9632,66.7581,-0.0737361,0.0,0.0
2984,745.75,29.0982,32.1074,136.485,105.194,105.676,0.0113297,0.0691346,20.9632,66.7181,-0.0414034,0.0,0.0
2992,747.75,29.2088,32.2869,140.246,105.185,105.438,0.0114679,0.0694983,20.9632,66.678,-0.0216951,0.0,0.0
3000,749.75,29.4832,32.0097,138.642,105.16,105.718,0.0115867,0.0698364,20.9632,66.668,-0.0479356,0.0,0.0
3008,751.75,28.4981,31.2461,139.108,105.146,105.191,0.0115964,0.07006,20.9621,66.648,-0.0038741,0.0,0.0
3016,753.75,28.3884,30.9867,137.763,105.119,106.003,0.0115237,0.0703366,20.9614,66.658,-0.075747,0.0,0.0
3024,755.75,28.7106,30.7365,145.637,105.095,105.185,0.0114781,0.0706093,20.9611,66.638,-0.00771695,0.0,0.0
3032,757.75,28.529,30.9586,139.113,105.073,105.375,0.0114276,0.0706933,20.9622,66.648,-0.0258964,0.0,0.0
3040,759.75,28.6343,30.7386,145.533,105.051,105.823,0.0113332,0.0708482,20.9628,66.598,-0.066169,0.0,0.0
3048,761.75,28.567,30.5918,139.2,105.029,105.653,0.0113403,0.0710301,20.963,66.598,-0.0535917,0.0,0.0
3056,763.75,27.7706,30.2799,138.817,104.996,105.489,0.0113627,0.0711799,20.9631,66.568,-0.0423508,0.0,0.0
3064,765.75,28.1264,29.9113,140.159,104.988,105.476,0.0112909,0.0708611,20.9632,66.5479,-0.0419234,0.0,0.0
3072,767.75,27.8427,29.6295,141.08,104.952,105.264,0.0111843,0.0707668,20.9645,66.5179,-0.0269,0.0,0.0
3080,769.75,27.663,29.8942,141.69,104.89,105.066,0.0111861,0.0710907,20.9639,66.5579,-0.0151904,0.0,0.0
3088,771.75,27.6778,29.4469,138.118,104.84,105.442,0.0112981,0.0717662,20.9635,66.5379,-0.0518346,0.0,0.0
3096,773.75,27.1192,29.183,140.524,104.777,105.154,0.0113676,0.0718117,20.9633,66.4779,-0.0325067,0.0,0.0
3104,775.75,27.3221,28.8824,142.306,104.725,104.953,0.0113246,0.0717814,20.9633,66.4779,-0.019707,0.0,0.0
3112,777.75,26.5713,28.8817,137.443,104.698,105.45,0.0113181,0.0717533,20.9632,66.4679,-0.0647342,0.0,0.0
3120,779.75,26.9673,28.9997,141.679,104.709,105.268,0.0113945,0.0721057,20.9616,66.4879,-0.0481535,0.0,0.0
3128,781.75,27.0119,28.3949,139.801,104.744,104.982,0.0113865,0.0724709,20.9603,66.4879,-0.0205164,0.0,0.0
3136,783.75,27.0611,28.3054,140.487,104.752,105.278,0.011279,0.0725716,20.9597,66.4378,-0.0453468,0.0,0.0
3144,785.75,26.752,27.9649,138.288,104.784,104.887,0.0112971,0.0724502,20.9605,66.4178,-0.00889554,0.0,0.0
3152,787.75,26.9537,28.0655,140.121,104.802,105.51,0.0113449,0.0723879,20.9611,66.3878,-0.060949,0.0,0.0
3160,789.75,27.0033,28.2446,141.446,104.854,105.821,0.0113826,0.0723608,20.9614,66.3778,-0.0829847,0.0,0.0
3168,791.75,26.4416,27.8703,139.107,104.849,105.825,0.0114351,0.0726307,20.9603,66.3778,-0.0838134,0.0,0.0
3176,793.75,26.4287,27.8939,141.186,104.887,105.29,0.0114703,0.0730767,20.9602,66.3578,-0.0347163,0.0,0.0
3184,795.75,26.9287,27.7314,144.501,104.909,105.45,0.0114998,0.0734749,20.9602,66.3478,-0.0465715,0.0,0.0
3192,797.75,26.582,27.9204,137.191,104.951,105.567,0.011537,0.0736247,20.9601,66.3277,-0.0529913,0.0,0.0
3200,799.75,26.1933,27.1097,139.513,104.977,105.053,0.0115914,0.0740869,20.9601,66.3177,-0.00656549,0.0,0.0
3208,801.75,26.528,27.8211,139.794,105.013,106.001,0.0116514,0.0743671,20.9601,66.2977,-0.0847533,0.0,0.0
3216,803.75,26.4669,27.3513,140.407,105.054,106.251,0.0116659,0.0742909,20.9594,66.2877,-0.102501,0.0,0.0
3224,805.75,26.3378,27.4184,142.323,105.062,105.363,0.0115324,0.0744764,20.9588,66.2277,-0.0259559,0.0,0.0
3232,807.75,26.4496,26.8859,139.88,105.09,105.395,0.0113034,0.0745791,20.959,66.2177,-0.0261603,0.0,0.0
3240,809.75,26.4529,26.7201,142.14,105.116,104.979,0.0111373,0.0744281,20.96,66.1376,0.0118267,0.0,0.0
3248,811.75,26.2837,26.9178,138.484,105.154,105.69,0.0110663,0.0740025,20.9604,66.1376,-0.0460165,0.0,0.0
3256,813.75,25.9668,26.9029,141.697,105.195,106.031,0.0110079,0.0742489,20.9606,66.1776,-0.0716191,0.0,0.0
3264,815.75,25.8653,26.6612,142.086,105.221,106.058,0.0109765,0.0747943,20.9606,66.1376,-0.0717104,0.0,0.0
3272,817.75,25.7065,26.7184,138.468,105.261,105.564,0.0110862,0.075171,20.9605,66.1576,-0.0260143,0.0,0.0
3280,819.75,25.9989,26.9306,139.128,105.295,105.587,0.0112724,0.0752949,20.9593,66.1476,-0.0249881,0.0,0.0
3288,821.75,25.5038,26.6714,136.941,105.322,106.145,0.0114043,0.075276,20.9588,66.1076,-0.0703802,0.0,0.0
3296,823.75,26.0985,26.5968,140.203,105.341,105.733,0.0114225,0.0753791,20.9586,66.0675,-0.0335516,0.0,0.0
3304,825.75,26.0042,26.8438,139.299,105.373,105.806,0.0113262,0.0754877,20.9586,66.0575,-0.0371202,0.0,0.0
3312,827.75,26.0634,26.7866,139.851,105.401,105.991,0.0111663,0.0756384,20.9577,66.0075,-0.0504872,0.0,0.0
3320,829.75,26.0552,26.5565,140.188,105.412,105.626,0.0110033,0.075936,20.9573,65.9774,-0.0182877,0.0,0.0
3328,831.75,26.2829,26.5864,140.689,105.449,105.382,0.010844,0.0761965,20.9571,65.9574,0.00575201,0.0,0.0
3336,833.75,26.1779,26.267,136.193,105.466,105.38,0.0108017,0.0761098,20.9563,65.9474,0.00743833,0.0,0.0
3344,835.75,25.6283,26.3292,137.888,105.485,105.864,0.0108854,0.0759744,20.9557,65.9274,-0.032451,0.0,0.0
3352,837.75,25.7649,26.292,138.925,105.499,106.422,0.0110106,0.0762602,20.9554,65.9074,-0.0788427,0.0,0.0
3360,839.75,25.6715,26.2984,144.247,105.507,106.058,0.0110183,0.0764897,20.9553,65.8874,-0.0471465,0.0,0.0
3368,841.75,25.9741,26.3034,142.076,105.524,105.77,0.0109172,0.076301,20.9553,65.8974,-0.0210747,0.0,0.0
3376,843.75,25.9666,26.2521,140.526,105.532,106.065,,0.0763911,,65.8874,-0.045641,0.0,0.0
3384,845.75,26.0037,26.1865,135.841,105.549,105.71,,,,65.8974,-0.0137977,0.0,0.0
3392,847.75,25.2533,26.2444,140.838,105.564,105.849,,,,65.8773,-0.024402,0.0,0.0
3400,849.75,25.7617,25.7118,137.511,105.564,105.624,,,,65.8573,-0.00519407,0.0,0.0
3408,851.75,25.6994,25.6435,137.943,105.573,105.769,,,,65.8373,-0.0167173,0.0,0.0
3415,853.5,25.7445,25.539,140.187,105.567,105.705,,,,65.7673,-0.0118049,0.0,0.0