File: 01_Data/Engineered_Flooring/Cone/Engineered_Hardwood_Flooring_Cone_HF75Scan_220524_R3.csv
Names,Time,Stack TC,Smoke TC,Exh Press,Smoke Comp,Smoke Meas,CO Meter,CO2 Meter,O2 Meter,Sample Mass,Ext Coeff,Start Test,Flame Verif
Chan Gain,,500,500,1,1,1,1,1,1,1,1,1.0,1.0
Offset,,0,0,0.138596,0,0,0,0,0,0,0,0.0,0.0
Gain,,1,1,25.011,13.8491,15.2622,1,1,1,1.00087,1.03118,1.0,1.0
Units,sec,C,C,Pa,%,%,%,%,%,g,/m,,
Baseline,,50.8459,52.9267,129.952,104.913,111.982,0.000551715,0.0455062,20.995,-453.072,-0.589766,,
17,4,46.4509,48.1745,126.98,105.242,111.571,0.000500091,0.0470445,20.9937,119.494,-0.528181,0.0,0.0
34,8.25,46.0099,48.6867,126.947,105.242,112.067,0.000639021,0.0469771,20.9926,119.424,-0.568381,0.0,0.0
51,12.5,46.8465,48.7672,120.725,105.275,111.298,0.00241987,0.0918846,20.8921,119.164,-0.503266,0.0,1.0
68,16.75,52.0481,51.5664,103.675,105.25,103.575,0.00608935,0.590954,20.3444,118.173,0.145159,0.0,1.0
85,21,59.8102,57.1507,107.111,105.236,98.8506,0.0083719,0.807164,20.0662,117.142,0.566213,0.0,0.0
102,25.25,66.1372,63.7391,106.657,105.201,101.74,0.00898756,0.800079,20.0577,116.161,0.302606,0.0,0.0
119,29.5,72.2338,69.5478,98.34,105.175,101.451,0.00885455,0.863082,20.0014,115.1,0.326106,0.0,0.0
136,33.75,76.9977,75.1733,101.194,105.155,102.607,0.00879895,0.889466,19.9703,113.879,0.221908,0.0,0.0
153,38,81.8837,79.6562,108.533,105.129,104.803,0.00810718,0.858509,19.9889,112.998,0.0280968,0.0,0.0
170,42.25,85.1294,83.5085,103.215,105.097,105.112,0.00736779,0.800595,20.062,111.987,-0.00135715,0.0,0.0
187,46.5,86.9815,86.0849,105.104,105.09,105.915,0.00654785,0.736869,20.1242,110.977,-0.0707013,0.0,0.0
204,50.75,88.2354,88.2398,110.468,105.069,107.304,0.00604884,0.692974,20.1835,110.136,-0.190403,0.0,0.0
221,55,88.6417,89.9178,106.738,105.029,107.679,0.00573823,0.64295,20.2447,109.325,-0.225452,0.0,0.0
238,59.25,89.5708,90.9294,110.251,104.993,107.64,0.00540174,0.613401,20.2802,108.444,-0.225258,0.0,0.0
255,63.5,89.799,92.6038,110.641,104.965,108.544,0.00516035,0.582325,20.3206,107.624,-0.303241,0.0,0.0
272,67.75,90.0239,93.0743,108.692,104.958,109.38,0.00509744,0.54268,20.3647,106.913,-0.37334,0.0,0.0
289,72,90.0609,93.9301,110.08,104.965,108.744,0.00476494,0.523117,20.393,106.222,-0.319916,0.0,0.0
306,76.25,89.721,94.0869,110.343,104.954,108.79,0.00427001,0.501438,20.4222,105.452,-0.324695,0.0,0.0
323,80.5,89.7276,94.7508,113.324,104.967,109.907,0.00388342,0.476739,20.4518,104.691,-0.415998,0.0,0.0
340,84.75,89.1938,94.7263,119.012,104.925,109.975,0.00380393,0.461256,20.4732,104.111,-0.425162,0.0,0.0
357,89,88.1857,94.3168,114.321,104.853,110.45,0.00386215,0.451155,20.4864,103.29,-0.470386,0.0,0.0
374,93.25,87.7768,93.6897,112.379,104.881,110.213,0.00374406,0.442092,20.4979,102.609,-0.448546,0.0,0.0
391,97.5,87.7157,94.2237,109.198,104.948,110.953,0.00367906,0.433989,20.508,102.049,-0.503289,0.0,0.0
408,101.75,86.9812,93.8114,115.884,105.018,110.58,0.00377664,0.427775,20.5161,101.278,-0.466852,0.0,0.0
425,106,86.4142,93.6139,112.89,105.042,111.381,0.0039046,0.422107,20.5232,100.658,-0.530071,0.0,0.0
442,110.25,86.7525,93.3014,114.859,105.083,111.15,0.00381756,0.420339,20.5273,99.967,-0.50776,0.0,0.0
459,114.5,85.6685,93.421,117.792,105.089,111.464,0.00358162,0.418566,20.5284,99.3965,-0.532764,0.0,0.0
476,118.75,85.9201,93.0585,111.793,105.121,111.446,0.00360065,0.421848,20.5247,98.6959,-0.528526,0.0,0.0
493,123,85.9865,92.7384,117.378,105.148,111.364,0.00362639,0.423291,20.5244,98.0554,-0.519542,0.0,0.0
510,127.25,85.7138,92.8296,117.639,105.141,111.628,0.00346213,0.420804,20.5294,97.4348,-0.541584,0.0,0.0
527,131.5,85.4749,92.0467,116.356,105.144,111.763,0.00362538,0.422813,20.529,96.6541,-0.552268,0.0,0.0
544,135.75,84.7084,92.5558,114.157,105.112,110.617,0.00347739,0.41922,20.5301,95.9635,-0.461746,0.0,0.0
561,140,84.7443,92.0292,110.504,105.13,111.094,0.00365393,0.424884,20.5253,95.4031,-0.499099,0.0,0.0
578,144.25,85.2566,92.1409,112.194,105.06,110.413,0.00383134,0.428487,20.5187,94.7124,-0.449522,0.0,0.0
595,148.5,85.3004,92.2157,112.918,105.005,110.335,0.00386684,0.428785,20.5188,94.0919,-0.447844,0.0,0.0
612,152.75,85.395,92.2751,113.149,104.979,110.418,0.00384562,0.42717,20.5221,93.5014,-0.456895,0.0,0.0
629,157,85.1149,92.3824,111.848,104.9,110.803,0.00385419,0.424134,20.5248,92.7908,-0.495206,0.0,0.0
646,161.25,85.0413,92.3013,112.206,104.808,109.441,0.00373976,0.424009,20.5261,92.1202,-0.391288,0.0,0.0
663,165.5,85.3718,92.3311,116.443,104.804,110.402,0.00392218,0.427306,20.5271,91.4896,-0.470724,0.0,0.0
680,169.75,84.8412,91.8674,113.461,104.841,109.689,0.00394794,0.424261,20.5291,90.8291,-0.408825,0.0,0.0
697,174,85.115,92.065,118.01,104.885,108.209,0.00391816,0.426995,20.5264,90.1685,-0.282213,0.0,0.0
714,178.25,84.5478,91.8777,115.008,104.964,109.029,0.00406257,0.428735,20.524,89.598,-0.343704,0.0,0.0
731,182.5,84.5069,91.4855,114.005,105.012,109.441,0.00423382,0.427287,20.5237,88.9975,-0.373685,0.0,0.0
748,186.75,84.9736,91.5679,114.109,105.048,109.075,0.00428403,0.43364,20.5203,88.2969,-0.340246,0.0,0.0
765,191,84.801,91.2085,114.336,105.096,108.603,0.0043991,0.436038,20.5153,87.6463,-0.296885,0.0,0.0
782,195.25,84.9036,91.9561,114.25,105.171,108.304,0.00478472,0.438652,20.5109,87.0558,-0.265546,0.0,0.0
799,199.5,85.6255,91.5831,115.64,105.208,108.307,0.00442822,0.445731,20.5025,86.3852,-0.262581,0.0,0.0
816,203.75,85.2586,92.0942,109.382,105.25,108.007,0.0046253,0.455866,20.4893,85.7346,-0.233826,0.0,0.0
833,208,85.6193,91.9222,110.25,105.322,108.984,0.00498161,0.464147,20.4785,85.054,-0.309197,0.0,0.0
850,212.25,86.4457,92.8979,113.288,105.372,108.42,0.00510129,0.473911,20.4682,84.3735,-0.257942,0.0,0.0
867,216.5,86.0334,92.8963,109.131,105.425,108.507,0.005238,0.482828,20.4562,83.6728,-0.260637,0.0,0.0
884,220.75,86.7876,93.4024,110.544,105.476,108.751,0.00526931,0.496774,20.4385,83.0123,-0.27657,0.0,0.0
901,225,87.4325,93.6485,114.029,105.539,106.592,0.0055769,0.515444,20.4138,82.3017,-0.0898029,0.0,0.0
918,229.25,89.3166,94.4254,108.777,105.581,107.177,0.00597318,0.535316,20.3879,81.541,-0.135725,0.0,0.0
935,233.5,89.2289,95.1231,111.789,105.626,107.112,0.00597418,0.551833,20.3711,80.8404,-0.126383,0.0,0.0
952,237.75,89.9711,95.7902,106.896,105.663,106.852,0.00611772,0.573537,20.344,80.0397,-0.101259,0.0,0.0
969,242,91.1193,96.58,109.535,105.673,106.245,0.00660349,0.592385,20.3198,79.249,-0.0488696,0.0,0.0
986,246.25,92.4179,98.0134,104.643,105.695,105.755,0.00708505,0.616208,20.2924,78.4483,-0.00517573,0.0,0.0
1003,250.5,93.1718,98.8823,108.483,105.712,106.006,0.00728178,0.633959,20.2682,77.6176,-0.0250638,0.0,0.0
1020,254.75,94.3362,100.028,103.658,105.719,105.362,0.00717255,0.657454,20.2449,76.7468,0.030613,0.0,0.0
1037,259,95.6893,101.783,100.93,105.736,103.777,0.00749013,0.68034,20.2204,75.8661,0.169204,0.0,0.0
1054,263.25,97.0572,102.607,106.01,105.747,103.894,0.00798769,0.700894,20.1956,75.0053,0.159882,0.0,0.0
1071,267.5,98.4005,103.996,104.4,105.739,103.565,0.00793317,0.730985,20.1631,74.0345,0.187906,0.0,0.0
1088,271.75,99.3466,105.748,106.841,105.739,103.187,0.00824879,0.762278,20.1241,73.0836,0.220922,0.0,0.0
1105,276,101.576,106.548,103.301,105.756,101.242,0.00890788,0.801441,20.0799,72.1128,0.394499,0.0,0.0
1122,280.25,103.095,108.728,104.426,105.722,104.171,0.00882591,0.848071,20.0207,71.0919,0.133693,0.0,0.0
1139,284.5,105.957,110.817,100.36,105.696,101.782,0.00863478,0.925665,19.9273,69.9609,0.341376,0.0,0.0
1156,288.75,107.717,113.112,105.403,105.653,98.7375,0.00950311,0.93906,19.9033,68.9,0.612324,0.0,0.0
1173,293,108.307,114.656,105.358,105.592,98.5106,0.00947557,0.870241,19.9759,67.9692,0.627879,0.0,0.0
1190,297.25,107.596,114.831,107.032,105.48,100.411,0.0084074,0.791977,20.0551,67.0484,0.445486,0.0,0.0
1207,301.5,106.509,114.565,109.504,105.362,101.619,0.00779973,0.721107,20.1294,66.2777,0.32722,0.0,0.0
1224,305.75,105.718,113.691,107.032,105.202,104.124,0.00693491,0.672519,20.1951,65.6171,0.0931917,0.0,0.0
1241,310,104.847,112.234,113.398,105.009,103.17,0.00558269,0.609734,20.2658,64.9165,0.159777,0.0,0.0
1258,314.25,103.137,111.368,111.988,104.808,106.355,0.00452848,0.535396,20.3641,64.3961,-0.13251,0.0,0.0
1275,318.5,101.212,109.987,113.558,104.649,108.131,0.00378567,0.461823,20.4529,63.9457,-0.296067,0.0,0.0
1292,322.75,98.9482,108.542,115.031,104.474,110.298,0.00299408,0.38672,20.5439,63.5954,-0.490707,0.0,0.0
1309,327,96.6349,106.405,119.874,104.543,112.968,0.00242919,0.305789,20.6388,63.3051,-0.701046,0.0,0.0
1326,331.25,93.8076,104.066,121.195,104.377,113.336,0.00198873,0.223976,20.7361,63.165,-0.744917,0.0,0.0
1343,335.5,90.1631,100.723,124.672,104.211,112.817,0.0016393,0.171234,20.8085,63.0849,-0.717705,0.0,0.0
1360,339.75,87.119,97.2208,124.561,104.076,112.466,0.00131977,0.146276,20.8454,62.9748,-0.701325,0.0,0.0
1377,344,84.0736,95.1142,125.055,103.994,113.182,0.00155114,0.133116,20.864,62.8747,-0.765849,0.0,0.0
1394,348.25,81.3872,92.1702,123.235,103.974,112.529,0.00184823,0.126017,20.8709,62.7947,-0.715275,0.0,0.0
1411,352.5,79.5927,89.3914,123.441,103.97,111.841,0.0018966,0.121174,20.8759,62.6545,-0.660101,0.0,0.0
1428,356.75,77.1004,87.5217,124.954,104.02,112.662,0.00190511,0.118536,20.8801,62.6345,-0.721895,0.0,0.0
1445,361,75.3234,85.4119,126.09,104.127,112.689,0.00180607,0.11546,20.8848,62.5645,-0.714845,0.0,0.0
1462,365.25,73.9244,83.8717,123.515,104.247,112.898,0.00167175,0.113499,20.8889,62.4744,-0.721084,0.0,0.0
1479,369.5,72.1756,81.5895,126.333,104.401,112.717,0.00151651,0.111219,20.8914,62.4043,-0.693217,0.0,0.0
1496,373.75,71.5446,79.8474,124.073,104.591,112.168,0.00166836,0.110577,20.8931,62.3443,-0.632652,0.0,0.0
1513,378,70.6262,77.9794,121.495,104.751,113.86,0.00173201,0.109086,20.8948,62.2842,-0.754246,0.0,0.0
1530,382.25,68.8197,76.8245,124.671,104.904,113.274,0.00191746,0.107681,20.8967,62.2442,-0.694376,0.0,0.0
1547,386.5,68.1228,75.6769,126.054,105.053,112.554,0.00217508,0.107429,20.8988,62.2142,-0.623872,0.0,0.0
1564,390.75,67.2771,74.1386,126.12,105.172,114.257,0.00199735,0.107237,20.8991,62.1441,-0.749404,0.0,0.0
1581,395,66.4314,73.0478,124.115,105.241,112.956,0.00163781,0.107065,20.8997,62.054,-0.639939,0.0,0.0
1598,399.25,66.0471,72.0699,125.155,105.279,114.311,0.0015778,0.107216,20.9003,62.034,-0.744561,0.0,0.0
1615,403.5,65.2642,71.0389,127.909,105.26,113.665,0.00168553,0.107059,20.9007,62.014,-0.694894,0.0,0.0
1632,407.75,65.3153,69.9482,122.139,105.195,113.982,0.00181241,0.107213,20.9013,61.9339,-0.725696,0.0,0.0
1649,412,64.2122,69.5397,126.02,105.103,113.278,0.00196904,0.107146,20.9021,61.9039,-0.677562,0.0,0.0
1666,416.25,63.3276,68.5876,127.273,105.007,113.072,0.00209944,0.107563,20.9023,61.8739,-0.669368,0.0,0.0
1683,420.5,63.3003,67.8879,123.323,104.846,112.932,0.00241329,0.108236,20.9029,61.8138,-0.672028,0.0,0.0
1700,424.75,62.5911,67.1326,125.226,104.725,113.338,0.00244007,0.108205,20.905,61.7738,-0.714972,0.0,0.0
1717,429,62.4053,66.8766,127.557,104.637,112.362,0.00247506,0.108262,20.9054,61.7738,-0.644318,0.0,0.0
1734,433.25,61.9876,66.1394,127.821,104.568,112.965,0.00260154,0.109128,20.9044,61.6937,-0.698664,0.0,0.0
1751,437.5,62.0795,65.6465,124.455,104.535,113.2,0.00270914,0.110309,20.9033,61.6337,-0.720367,0.0,0.0
1768,441.75,61.6221,65.141,125.78,104.496,112.712,0.00300619,0.109887,20.9046,61.6136,-0.684644,0.0,0.0
1785,446,61.4187,64.804,127.804,104.515,112.044,0.00311325,0.110749,20.9028,61.6136,-0.629162,0.0,0.0
1802,450.25,61.1011,63.8075,127.845,104.603,112.285,0.0030919,0.111366,20.9031,61.4635,-0.641051,0.0,0.0
1819,454.5,59.896,63.6205,127.474,104.663,113.396,0.00320763,0.111009,20.9039,61.4335,-0.724911,0.0,0.0
1836,458.75,60.3867,63.3795,126.013,104.684,112.736,0.00297788,0.111803,20.9041,61.4235,-0.670284,0.0,0.0
1853,463,59.9613,62.9963,125.003,104.676,111.827,0.00315938,0.112187,20.9041,61.3334,-0.597772,0.0,0.0
1870,467.25,59.9201,62.4236,122.895,104.702,113.647,0.00371994,0.113191,20.9035,61.3234,-0.741518,0.0,0.0
1887,471.5,59.98,62.6144,121.899,104.74,113.322,0.00393959,0.113965,20.9036,61.2934,-0.712394,0.0,0.0
1904,475.75,59.9307,62.4652,127.522,104.734,113.044,0.0039481,0.11296,20.9046,61.2033,-0.690645,0.0,0.0
1921,480,58.7055,61.9777,126.844,104.799,113.041,0.0041904,0.113465,20.9041,61.2233,-0.684766,0.0,0.0
1938,484.25,59.4344,61.2671,124.339,104.884,113.638,0.00442343,0.114858,20.9032,61.1733,-0.725053,0.0,0.0
1955,488.5,58.7466,60.9718,129.881,104.993,113.162,0.00423776,0.113203,20.9042,61.0632,-0.677758,0.0,0.0
1972,492.75,59.1163,61.1732,127.664,105.092,112.643,0.00443136,0.113926,20.9031,61.0832,-0.627634,0.0,0.0
1989,497,58.6376,60.969,126.297,105.176,113.631,0.00457556,0.115488,20.902,61.0732,-0.699419,0.0,0.0
2006,501.25,58.7677,60.7764,124.763,105.205,112.883,0.00478102,0.114859,20.9026,61.0331,-0.637132,0.0,0.0
2023,505.5,58.0543,60.4616,123.933,105.217,114.059,0.00475453,0.11477,20.902,60.923,-0.729902,0.0,0.0
2040,509.75,58.1708,60.329,123.027,105.256,113.886,0.00483228,0.115383,20.9019,60.9431,-0.71281,0.0,0.0
2057,514,58.4724,60.2839,125.734,105.294,113.343,0.00472434,0.114787,20.904,60.913,-0.666341,0.0,0.0
2074,518.25,58.0155,59.7067,128.731,105.278,112.988,0.00478111,0.114818,20.9047,60.913,-0.639316,0.0,0.0
2091,522.5,57.6811,59.5437,127.659,105.294,113.449,0.00497039,0.116904,20.9034,60.8029,-0.674811,0.0,0.0
2108,526.75,57.315,59.0688,127.191,105.302,113.275,0.00504318,0.114392,20.9046,60.7129,-0.660185,0.0,0.0
2125,531,57.0598,58.9658,126.814,105.292,113.681,0.00547417,0.116149,20.9033,60.7028,-0.693395,0.0,0.0
2142,535.25,57.2766,59.1927,123.337,105.3,112.888,0.00575877,0.118524,20.8999,60.5827,-0.629408,0.0,0.0
2159,539.5,57.2888,59.0044,129.493,105.313,113.915,0.00561586,0.115911,20.9025,60.6428,-0.710166,0.0,0.0
2176,543.75,57.1831,58.9622,123.476,105.283,113.331,0.00565914,0.116307,20.903,60.6028,-0.666318,0.0,0.0
2193,548,56.9793,58.9843,128.85,105.272,113.373,0.00585052,0.116756,20.9031,60.5127,-0.670571,0.0,0.0
2210,552.25,56.6127,58.7005,124.51,105.261,113.501,0.00563212,0.116403,20.9048,60.4827,-0.681766,0.0,0.0
2227,556.5,56.5806,58.664,127.076,105.247,114.06,0.00582212,0.116594,20.9047,60.4726,-0.727397,0.0,0.0
2244,560.75,56.7438,58.7297,124.601,105.212,113.054,0.00570383,0.116132,20.9051,60.3425,-0.650201,0.0,0.0
2261,565,56.6212,58.0896,125.284,105.212,113.742,0.00585765,0.114964,20.9041,60.2925,-0.705076,0.0,0.0
2278,569.25,56.2843,58.4021,123.999,105.221,113.18,0.00590818,0.117383,20.9007,60.3225,-0.659568,0.0,0.0
2295,573.5,56.705,58.3489,128.809,105.207,113.053,0.00616881,0.119673,20.9,60.2224,-0.650599,0.0,0.0
2312,577.75,56.6144,58.3484,126.474,105.199,113.842,0.00610735,0.116964,20.9027,60.1924,-0.714163,0.0,0.0
2329,582,56.7151,58.0241,125.106,105.218,113.988,0.006112,0.11673,20.9048,60.1624,-0.724141,0.0,0.0
2346,586.25,56.4353,58.1752,129.308,105.2,112.325,0.00654373,0.116819,20.9053,60.0323,-0.592783,0.0,0.0
2363,590.5,56.3567,58.2677,123.187,105.203,114.105,0.00695838,0.116968,20.9054,60.0323,-0.734794,0.0,0.0
2380,594.75,56.2248,57.9958,125.858,105.225,113.365,0.0067263,0.115909,20.9054,60.0323,-0.674007,0.0,0.0
2397,599,56.1014,57.9493,128.257,105.227,112.803,0.00682709,0.115189,20.9072,59.9422,-0.628821,0.0,0.0
2414,603.25,55.7206,58.0292,124.31,105.242,114.167,0.00695665,0.115381,20.9078,59.8921,-0.736362,0.0,0.0
2431,607.5,56.3773,57.6673,126.89,105.25,112.502,0.00697985,0.115011,20.9081,59.8921,-0.602773,0.0,0.0
2448,611.75,56.1883,57.5419,128.617,105.258,112.818,0.00702641,0.115371,20.9068,59.8621,-0.627364,0.0,0.0
2465,616,55.6001,57.7171,127.226,105.24,112.741,0.00709065,0.115025,20.9079,59.8021,-0.622763,0.0,0.0
2482,620.25,55.9255,57.5479,124.633,105.238,113.114,0.00735485,0.115564,20.9091,59.722,-0.652864,0.0,0.0
2499,624.5,56.0034,57.3748,128.465,105.249,112.934,0.00753487,0.114157,20.9088,59.772,-0.637495,0.0,0.0
2516,628.75,55.6827,57.503,126.699,105.204,113.117,0.00754213,0.114543,20.9095,59.6719,-0.656069,0.0,0.0
2533,633,55.6465,57.2425,126.722,105.222,113.056,0.00771258,0.114542,20.9108,59.6219,-0.649589,0.0,0.0
2550,637.25,55.363,57.3873,127.235,105.243,113.066,0.00778582,0.114174,20.9101,59.5518,-0.648555,0.0,0.0
2567,641.5,55.512,57.5672,124.947,105.212,113.309,0.00776724,0.114138,20.9091,59.4918,-0.670673,0.0,0.0
2584,645.75,55.6174,57.5986,129.692,105.2,113.073,0.00781805,0.114067,20.9088,59.4518,-0.652819,0.0,0.0
2601,650,55.4842,57.0922,130.117,105.182,113.034,0.00786981,0.114175,20.9089,59.4518,-0.651289,0.0,0.0
2618,654.25,55.5745,56.9906,126.095,105.14,113.16,0.00804346,0.114213,20.909,59.4117,-0.664909,0.0,0.0
2635,658.5,55.1696,56.9121,125.959,105.116,112.768,0.00854037,0.11432,20.909,59.3417,-0.63558,0.0,0.0
2652,662.75,55.4891,57.2653,130.23,105.071,112.607,0.00842046,0.114279,20.9086,59.3116,-0.626537,0.0,0.0
2669,667,55.2358,56.8706,127.789,105.016,113.618,0.00825168,0.11476,20.9089,59.2516,-0.712131,0.0,0.0
2686,671.25,55.5204,57.2789,130.184,104.976,113.209,0.0084934,0.114594,20.909,59.2316,-0.682975,0.0,0.0
2703,675.5,55.4998,57.1816,126.986,104.957,113.557,0.00842627,0.113304,20.9111,59.1715,-0.712407,0.0,0.0
2720,679.75,55.3057,57.3994,130.186,104.938,112.718,0.00838432,0.113214,20.9117,59.1715,-0.646942,0.0,0.0
2737,684,54.9864,56.6257,127.896,104.917,112.859,0.00890605,0.113635,20.912,59.0914,-0.660045,0.0,0.0
2754,688.25,55.3218,56.8165,123.936,104.884,112.986,0.00893529,0.113768,20.911,59.0314,-0.673074,0.0,0.0
2771,692.5,54.7392,57.1922,123.397,104.908,113.039,0.00904324,0.113986,20.9121,59.0314,-0.675283,0.0,0.0
2788,696.75,55.1373,57.5145,125.772,104.889,112.71,0.00892294,0.113454,20.9113,58.9613,-0.650533,0.0,0.0
2805,701,55.0623,56.9083,128.031,104.908,113.179,0.00888601,0.112948,20.91,58.9213,-0.686383,0.0,0.0
2822,705.25,55.335,57.1099,125.577,104.947,113.19,0.00897015,0.111842,20.9093,58.9113,-0.683961,0.0,0.0
2839,709.5,55.0721,57.1558,129.152,104.981,112.78,0.00920843,0.112131,20.9092,58.8312,-0.648197,0.0,0.0
2856,713.75,55.041,56.8767,126.222,105.032,111.916,0.00890339,0.11183,20.9098,58.7712,-0.574191,0.0,0.0
2873,718,54.8935,56.7752,126.061,105.084,113.807,0.00897277,0.112717,20.9082,58.7612,-0.721314,0.0,0.0
2890,722.25,55.1729,56.9582,130.331,105.152,114.082,0.0093003,0.112064,20.9094,58.7411,-0.737275,0.0,0.0
2907,726.5,55.0177,56.9449,127.041,105.205,113.447,0.00940735,0.112303,20.91,58.6911,-0.682253,0.0,0.0
2924,730.75,54.9844,57.1315,124.997,105.276,112.864,0.00948718,0.112708,20.9084,58.621,-0.629499,0.0,0.0
2941,735,54.8382,56.8337,124.164,105.323,114.102,0.0092673,0.111716,20.9106,58.641,-0.724223,0.0,0.0
2958,739.25,54.717,56.7863,128.909,105.339,113.353,0.009105,0.111061,20.9121,58.581,-0.663237,0.0,0.0
2975,743.5,54.6053,57.035,129.172,105.342,113.897,0.00941955,0.111646,20.913,58.5109,-0.706328,0.0,0.0
2992,747.75,54.1618,56.66,127.408,105.343,112.999,0.00960231,0.111867,20.9137,58.5109,-0.634582,0.0,0.0
3009,752,54.5138,56.9379,124.506,105.279,113.126,0.00981815,0.112196,20.9123,58.4309,-0.650274,0.0,0.0
3026,756.25,54.5091,56.6038,125.729,105.217,112.839,0.0095719,0.111682,20.913,58.4109,-0.632643,0.0,0.0
3043,760.5,54.2112,56.3241,128.438,105.125,112.317,0.00945015,0.110497,20.9157,58.3708,-0.598615,0.0,0.0
3060,764.75,54.8115,56.9883,125.926,104.993,112.807,0.00943457,0.111144,20.915,58.2907,-0.649308,0.0,0.0
3077,769,55.0563,56.8817,131.737,104.896,113.417,0.00957555,0.111075,20.9123,58.2707,-0.706479,0.0,0.0
3094,773.25,55.0706,57.1011,131.591,104.96,113.063,0.00964672,0.110636,20.9118,58.2207,-0.672702,0.0,0.0
3111,777.5,54.5512,56.6902,128.488,105.025,112.893,0.00992769,0.110103,20.9117,58.2107,-0.653483,0.0,0.0
3128,781.75,54.4881,56.9562,127.756,105.078,113.023,0.0101086,0.110588,20.91,58.1306,-0.659304,0.0,0.0
3145,786,54.6947,56.8836,129.15,105.149,112.924,0.0103388,0.10959,20.9114,58.1106,-0.64525,0.0,0.0
3162,790.25,54.8961,56.661,125.592,105.224,112.509,0.0104432,0.110936,20.9113,58.1406,-0.605477,0.0,0.0
3179,794.5,54.9873,56.8097,128.644,105.263,113.419,0.0104851,0.110263,20.9128,58.0405,-0.675049,0.0,0.0
3196,798.75,54.6003,56.7479,125.671,105.311,113.426,0.0103209,0.109228,20.9132,58.0305,-0.671467,0.0,0.0
3213,803,54.367,56.5519,125.983,105.362,114.083,0.0103223,0.110749,20.9133,58.0005,-0.719333,0.0,0.0
3230,807.25,54.3997,56.4458,125.349,105.385,113.239,0.0107632,0.110371,20.9133,57.9805,-0.650172,0.0,0.0
3247,811.5,54.1444,56.7976,127.364,105.385,113.43,0.0109471,0.110386,20.9118,57.9404,-0.66545,0.0,0.0
3264,815.75,54.7305,56.9799,131.367,105.407,112.546,0.0109058,0.109766,20.9137,57.9605,-0.592792,0.0,0.0
3281,820,54.5439,56.4987,126.671,105.386,113.141,0.0111855,0.108501,20.9158,57.9404,-0.642283,0.0,0.0
3298,824.25,53.3316,56.3479,128.755,105.339,112.843,0.0109484,0.109022,20.9154,57.7603,-0.622409,0.0,0.0
3315,828.5,54.2213,56.0789,125.635,105.284,113.723,0.0106801,0.108336,20.9145,57.8203,-0.697457,0.0,0.0
3332,832.75,53.6787,55.7228,128.718,105.196,112.098,0.0106323,0.108813,20.9144,57.7603,-0.574898,0.0,0.0
3349,837,53.5198,56.3321,125.997,105.089,113.857,0.0103032,0.108192,20.9157,57.6602,-0.724838,0.0,0.0
3366,841.25,54.0889,56.0512,127.755,105.021,112.755,0.0105562,0.108225,20.9157,57.6202,-0.642721,0.0,0.0
3383,845.5,53.538,56.0447,132.363,104.947,113.383,0.010757,0.108829,20.9151,57.6302,-0.699284,0.0,0.0
3400,849.75,54.3788,55.7944,125.657,104.879,113.249,0.0108358,0.107878,20.9162,57.5601,-0.694592,0.0,0.0
3417,854,53.9191,55.9128,128.357,104.847,112.123,0.0107926,0.107733,20.9174,57.5201,-0.606885,0.0,0.0
3434,858.25,54.4064,56.0969,127.171,104.956,113.519,0.0111421,0.107956,20.9159,57.48,-0.709401,0.0,0.0
3451,862.5,54.0001,55.9022,130.513,105.02,113.572,0.0112764,0.107184,20.9163,57.42,-0.708132,0.0,0.0
3468,866.75,53.6895,56.2904,126.296,105.087,112.843,0.0112757,0.107616,20.9168,57.43,-0.64414,0.0,0.0
3485,871,54.0926,56.148,128.919,105.143,114.008,0.0111059,0.107151,20.9162,57.42,-0.732237,0.0,0.0
3502,875.25,53.3304,55.5332,128.878,105.202,112.178,0.0113239,0.107358,20.9152,57.3199,-0.580776,0.0,0.0
3519,879.5,53.7864,55.6784,129.312,105.236,113.394,0.0110955,0.106991,20.9153,57.2699,-0.675331,0.0,0.0
3536,883.75,53.8255,55.7721,132.168,105.272,112.96,0.0109975,0.107752,20.9146,57.2398,-0.637585,0.0,0.0
3553,888,53.9649,55.808,127.077,105.291,114.306,0.0111805,0.107806,20.9141,57.1998,-0.74303,0.0,0.0
3570,892.25,53.5859,56.0026,130.069,105.298,112.949,0.0112133,0.107321,20.9153,57.1998,-0.634477,0.0,0.0
3587,896.5,53.7707,56.0615,128.455,105.292,112.996,0.011224,0.10749,20.9161,57.1297,-0.638788,0.0,0.0
3604,900.75,53.4123,55.6415,126.451,105.291,113.298,0.0114523,0.107042,20.9148,57.0897,-0.662989,0.0,0.0
3621,905,53.7261,55.6861,132.183,105.234,113.506,0.0115941,0.106647,20.9157,57.1097,-0.684499,0.0,0.0
3638,909.25,53.143,55.7967,128.373,105.185,112.822,0.0116597,0.106847,20.9147,56.9796,-0.633988,0.0,0.0
3655,913.5,53.7291,55.8176,124.679,105.119,112.771,0.0117069,0.107145,20.9141,57.0096,-0.63566,0.0,0.0
3672,917.75,53.5591,55.3657,125.322,105.007,113.971,0.0117619,0.10732,20.9148,56.8995,-0.74096,0.0,0.0
3689,922,53.6671,55.6583,125.62,104.888,112.644,0.0116165,0.106359,20.916,56.8395,-0.645297,0.0,0.0
3706,926.25,53.2131,55.7189,128.882,104.816,113.656,0.0117532,0.107615,20.9162,56.8895,-0.732407,0.0,0.0
3723,930.5,53.6482,55.3381,130.729,104.769,111.125,0.0115824,0.107438,20.9169,56.7794,-0.532712,0.0,0.0
3740,934.75,53.5192,55.7277,127.447,104.723,112.823,0.0111831,0.104713,20.9213,56.7994,-0.67391,0.0,0.0
3757,939,53.5856,55.9771,124.942,104.718,113.194,0.0111857,0.104527,20.9206,56.6793,-0.704026,0.0,0.0
3774,943.25,53.72,55.9105,125.992,104.707,112.573,0.0113908,0.10633,20.9185,56.6793,-0.655186,0.0,0.0
3791,947.5,53.505,55.489,125.937,104.695,112.313,0.0112995,0.104925,20.9191,56.6193,-0.635337,0.0,0.0
3808,951.75,53.3561,55.4216,121.508,104.696,111.784,0.0113272,0.107078,20.9185,56.6193,-0.592587,0.0,0.0
3825,956,53.5131,55.9151,130.62,104.719,112.844,0.011456,0.107239,20.918,56.5392,-0.675919,0.0,0.0
3842,960.25,53.3035,55.6527,129.588,104.715,112.981,0.0110627,0.106202,20.9198,56.4491,-0.687329,0.0,0.0
3859,964.5,53.2486,55.3053,126.421,104.73,113.165,0.0112594,0.105959,20.9202,56.4091,-0.700732,0.0,0.0
3876,968.75,53.5408,55.5957,126.428,104.74,112.972,0.0111022,0.10527,20.9207,56.4191,-0.684318,0.0,0.0
3893,973,53.5272,55.94,125.684,104.759,112.322,0.0105647,0.104898,20.9205,56.3591,-0.630613,0.0,0.0
3910,977.25,53.4473,55.393,132.6,104.768,112.026,0.0108726,0.105045,20.9208,56.309,-0.605849,0.0,0.0
3927,981.5,53.2996,55.4568,127.508,104.788,112.694,0.0111813,0.105255,20.9192,56.3491,-0.657903,0.0,0.0
3944,985.75,53.4843,55.5835,129.741,104.787,113.017,0.0112438,0.104872,20.9187,56.289,-0.683959,0.0,0.0
3961,990,53.7596,55.0401,128.231,104.759,113.655,0.0115284,0.104546,20.92,56.229,-0.737257,0.0,0.0
3978,994.25,53.4065,55.3419,130.278,104.745,112.475,0.0115721,0.104302,20.9212,56.1889,-0.644074,0.0,0.0
3995,998.5,53.0336,55.3006,129.663,104.731,112.728,0.0115009,0.103813,20.9227,56.1389,-0.665633,0.0,0.0
4012,1002.75,53.1033,54.9253,131.911,104.678,112.254,0.0117612,0.104576,20.9212,56.1189,-0.632071,0.0,0.0
4029,1007,52.4073,55.0268,130.861,104.645,112.645,0.0115765,0.103636,20.9217,56.0288,-0.666317,0.0,0.0
4046,1011.25,52.3432,55.1239,126.348,104.588,113.444,0.0117381,0.103852,20.9211,56.0388,-0.735242,0.0,0.0
4063,1015.5,52.3157,55.5072,126.239,104.557,111.649,0.0116815,0.104336,20.9213,55.9687,-0.593637,0.0,0.0
4080,1019.75,52.7681,55.0738,127.862,104.517,111.811,0.011655,0.104736,20.9206,55.9287,-0.610195,0.0,0.0
4097,1024,52.8787,55.3868,124.568,104.542,111.617,0.0115939,0.104176,20.9208,55.9387,-0.592349,0.0,0.0
4114,1028.25,53.0463,55.5526,126.182,104.531,112.791,0.011703,0.104858,20.9204,55.8586,-0.687886,0.0,0.0
4131,1032.5,52.4755,55.4331,127.954,104.536,112.641,0.0117154,0.104648,20.9204,55.8086,-0.675486,0.0,0.0
4148,1036.75,52.9851,55.0746,127.117,104.552,112.622,0.0117117,0.103814,20.9208,55.8186,-0.672526,0.0,0.0
4165,1041,53.0771,55.4916,127.412,104.558,112.474,0.0117327,0.104237,20.9209,55.7485,-0.660183,0.0,0.0
4182,1045.25,53.5294,54.8779,125.694,104.551,112.834,0.0117113,0.104078,20.9187,55.6885,-0.68964,0.0,0.0
4199,1049.5,52.7675,55.0539,126.732,104.566,111.749,0.0115605,0.103031,20.92,55.6685,-0.600941,0.0,0.0
4216,1053.75,53.0281,55.2698,128.963,104.575,112.091,0.0114666,0.103258,20.9202,55.6785,-0.627841,0.0,0.0
4233,1058,52.8803,55.4636,129.775,104.57,113.049,0.0112103,0.103488,20.9202,55.5784,-0.705266,0.0,0.0
4250,1062.25,53.133,55.0539,126.891,104.578,112.492,0.0110597,0.102921,20.9202,55.5183,-0.659889,0.0,0.0
4267,1066.5,52.6854,55.5791,127.06,104.595,111.706,0.0113238,0.103306,20.9204,55.5784,-0.59495,0.0,0.0
4284,1070.75,53.0606,54.6578,124.54,104.597,112.6,0.0114699,0.103825,20.9194,55.4783,-0.666891,0.0,0.0
4301,1075,52.8946,55.1911,126.151,104.593,111.706,0.0113273,0.102293,20.9203,55.4383,-0.59517,0.0,0.0
4318,1079.25,52.5956,55.6728,127.821,104.613,112.317,0.0114863,0.102512,20.9198,55.4383,-0.642762,0.0,0.0
4335,1083.5,52.9495,55.3436,127.515,104.599,113.007,0.0115442,0.103,20.9207,55.3382,-0.699352,0.0,0.0
4352,1087.75,52.9187,54.8518,127.996,104.607,113.076,0.0113025,0.102557,20.9214,55.3182,-0.704173,0.0,0.0
4369,1092,52.7256,55.2928,127.83,104.616,112.282,0.0109103,0.102651,20.9215,55.3081,-0.63973,0.0,0.0
4386,1096.25,53.0882,54.9826,128.041,104.602,112.14,0.0110305,0.102726,20.9215,55.2581,-0.629448,0.0,0.0
4403,1100.5,53.1605,55.4243,131.2,104.591,113.049,0.0113363,0.102813,20.9215,55.1981,-0.703439,0.0,0.0
4420,1104.75,52.8652,55.2727,128.895,104.597,112.235,0.0111398,0.102709,20.9203,55.128,-0.637473,0.0,0.0
4437,1109,52.2272,55.6123,129.417,104.565,111.31,0.0113084,0.102875,20.92,55.168,-0.56543,0.0,0.0
4454,1113.25,52.8406,55.0722,129.131,104.544,113.362,0.0110064,0.10239,20.9196,55.0579,-0.732505,0.0,0.0
4471,1117.5,52.6538,55.3836,129.474,104.593,112.749,0.011078,0.101446,20.9212,55.0479,-0.679186,0.0,0.0
4488,1121.75,52.4234,55.5497,124.771,104.704,113.019,0.0111965,0.102362,20.9215,55.0779,-0.691261,0.0,0.0
4505,1126,52.7664,55.3513,126.154,104.799,113.011,0.0114743,0.102128,20.9204,54.9578,-0.68238,0.0,0.0
4522,1130.25,52.3103,54.8827,127.617,104.868,111.993,0.0113323,0.102953,20.9195,54.9278,-0.594535,0.0,0.0
4539,1134.5,53.2461,54.7855,125.707,105.027,112.535,0.0112438,0.102242,20.921,54.9578,-0.624521,0.0,0.0
4556,1138.75,53.2877,54.6512,128.369,105.148,112.643,0.0113008,0.102285,20.9237,54.8778,-0.622872,0.0,0.0
4573,1143,52.9672,54.2836,124.755,105.234,112.668,0.0112416,0.101772,20.9244,54.8477,-0.617477,0.0,0.0
4590,1147.25,52.5068,55.0802,128.734,105.31,114.149,0.0109847,0.101453,20.9245,54.8778,-0.729076,0.0,0.0
4607,1151.5,52.7598,54.8275,128.626,105.328,113.886,0.0110779,0.10258,20.9245,54.8077,-0.706565,0.0,0.0
4624,1155.75,52.8001,55.2047,129.352,105.35,113.177,0.0112995,0.102012,20.9228,54.7877,-0.64827,0.0,0.0
4641,1160,52.5609,55.1506,126.87,105.338,114.141,0.0110352,0.102412,20.9231,54.7377,-0.72598,0.0,0.0
4658,1164.25,52.6997,55.2566,127.048,105.289,112.562,0.0110786,0.102433,20.924,54.7477,-0.604189,0.0,0.0
4675,1168.5,52.6656,55.3556,124.839,105.188,112.979,0.0113185,0.101333,20.9243,54.5975,-0.646344,0.0,0.0
4692,1172.75,52.8748,55.1447,129.504,105.081,113.953,0.0112833,0.101908,20.9241,54.5975,-0.733185,0.0,0.0
4709,1177,53.1121,55.0329,127.405,104.906,112.576,0.0108346,0.102402,20.9236,54.6075,-0.638341,0.0,0.0
4726,1181.25,52.3812,55.2741,130.293,104.952,113.28,0.0107579,0.101655,20.924,54.5375,-0.690706,0.0,0.0
4743,1185.5,52.9441,55.2006,123.735,105.03,112.78,0.0109248,0.101568,20.9239,54.4874,-0.643974,0.0,0.0
4760,1189.75,53.0038,55.281,127.321,105.12,113.61,0.0108121,0.101812,20.9242,54.5275,-0.702513,0.0,0.0
4777,1194,52.8263,55.3121,127.532,105.185,112.208,0.0106951,0.100971,20.925,54.4674,-0.584634,0.0,0.0
4794,1198.25,53.3039,55.4639,128.964,105.241,113.316,0.0107906,0.102067,20.9251,54.4574,-0.668687,0.0,0.0
4811,1202.5,52.9826,55.2584,127.755,105.281,112.695,0.0107855,0.101513,20.9251,54.4574,-0.615539,0.0,0.0
4828,1206.75,53.0927,55.7126,129.628,105.315,112.044,0.0107084,0.102102,20.9239,54.3473,-0.560258,0.0,0.0
4845,1211,52.846,55.4307,128.255,105.365,113.598,0.0110613,0.102045,20.9236,54.3373,-0.680553,0.0,0.0
4862,1215.25,52.9907,55.3299,127.744,105.406,113.651,0.0109402,0.102139,20.922,54.3273,-0.681262,0.0,0.0
4879,1219.5,52.8944,55.4007,132.02,105.38,113.183,0.0108131,0.101338,20.9233,54.2873,-0.646142,0.0,0.0
4896,1223.75,52.7908,55.0964,126.242,105.38,113.382,0.0105245,0.10215,20.9235,54.1872,-0.662022,0.0,0.0
4913,1228,52.7563,55.3915,127.225,105.367,112.954,0.0105472,0.10201,20.9236,54.1972,-0.628971,0.0,0.0
4930,1232.25,52.9931,55.3768,129.816,105.354,112.206,0.0102492,0.10166,20.9238,54.1872,-0.569883,0.0,0.0
4947,1236.5,52.8541,55.2173,129.611,105.337,113.232,0.0105059,0.102146,20.9225,54.1271,-0.653751,0.0,0.0
4964,1240.75,52.5666,54.8429,127.547,105.324,113.819,0.010788,0.101775,20.9221,54.027,-0.701599,0.0,0.0
4981,1245,52.7601,54.9475,125.068,105.314,114,0.0108007,0.101004,20.9248,54.0571,-0.716858,0.0,0.0
4998,1249.25,52.7316,54.9604,129.012,105.3,112.76,0.0104692,0.100877,20.9246,53.947,-0.619137,0.0,0.0
5015,1253.5,52.4616,54.8904,125.844,105.293,113.4,0.0101417,0.100947,20.9227,53.987,-0.670983,0.0,0.0
5032,1257.75,52.4247,54.7088,127.765,105.27,113.439,0.0103949,0.100151,20.9227,53.987,-0.676065,0.0,0.0
5049,1262,52.5063,54.7932,130.442,105.246,112.961,0.0110662,0.102938,20.9191,53.937,-0.63995,0.0,0.0
5066,1266.25,52.8597,54.7307,127.532,105.187,112.914,0.0110359,0.102584,20.9181,53.8569,-0.641196,0.0,0.0
5083,1270.5,52.6102,54.7401,127.43,105.157,112.026,0.0109265,0.102742,20.9196,53.7868,-0.572377,0.0,0.0
5100,1274.75,52.295,54.6841,127.414,105.085,113.26,0.010599,0.10213,20.9209,53.7968,-0.677677,0.0,0.0
5117,1279,52.2891,54.3205,128.446,105.02,112.6,0.0105291,0.101829,20.9222,53.7168,-0.630416,0.0,0.0
5134,1283.25,52.2697,54.6013,127.979,104.982,112.665,0.0107835,0.101889,20.9229,53.6967,-0.638892,0.0,0.0
5151,1287.5,52.574,54.6199,129.151,104.941,112.914,0.0106988,0.101501,20.923,53.7368,-0.662372,0.0,0.0
5168,1291.75,52.3515,54.5528,123.959,104.883,112.85,0.0107007,0.102554,20.9224,53.6367,-0.662214,0.0,0.0
5185,1296,52.5241,54.845,126.326,104.821,112.454,0.0104814,0.101894,20.9228,53.6167,-0.635748,0.0,0.0
5202,1300.25,52.8918,55.0851,129.405,104.925,113.396,0.0103212,0.101888,20.925,53.6067,-0.702367,0.0,0.0
5219,1304.5,52.3201,54.3887,128.315,105.019,113.818,0.0106587,0.101486,20.925,53.5766,-0.727844,0.0,0.0
5236,1308.75,51.9743,55.13,125.893,105.13,112.999,0.0110619,0.101813,20.924,53.4866,-0.652928,0.0,0.0
5253,1313,52.3592,54.719,129.793,105.236,113.694,0.0107456,0.101543,20.9242,53.4766,-0.699263,0.0,0.0
5270,1317.25,52.0753,54.8212,128.11,105.273,113.633,0.0103615,0.100577,20.9242,53.3965,-0.691174,0.0,0.0
5287,1321.5,51.9814,54.216,127.793,105.254,113.845,0.0101133,0.101404,20.9246,53.3364,-0.709698,0.0,0.0
5304,1325.75,52.0945,54.4236,129.698,105.227,112.907,0.00981327,0.099299,20.9266,53.3364,-0.63722,0.0,0.0
5321,1330,52.1101,54.5664,131.055,105.163,112.872,0.010172,0.102113,20.9255,53.3765,-0.639907,0.0,0.0
5338,1334.25,52.0384,53.8604,127.751,105.075,112.262,0.00991887,0.101483,20.9242,53.2063,-0.598481,0.0,0.0
5355,1338.5,51.8949,54.4107,130.293,105.015,112.918,0.00995111,0.100588,20.9243,53.1963,-0.656335,0.0,0.0
5372,1342.75,52.0929,54.3925,128.228,104.962,112.43,0.0102316,0.101184,20.9241,53.2163,-0.6217,0.0,0.0
5389,1347,51.8623,54.7535,125.653,104.889,112.546,0.0102105,0.103054,20.9217,53.1463,-0.637404,0.0,0.0
5406,1351.25,51.9686,54.6645,126.526,104.831,111.98,0.0100355,0.101832,20.9225,53.0362,-0.596726,0.0,0.0
5423,1355.5,52.2502,54.4873,129.681,104.825,113.383,0.00964113,0.101853,20.9221,53.1062,-0.709818,0.0,0.0
5440,1359.75,51.8615,54.5073,126.856,104.794,112.587,0.00983899,0.101397,20.922,52.9861,-0.648828,0.0,0.0
5457,1364,52.1903,54.3418,127.56,104.787,112.742,0.00977665,0.0999892,20.922,52.9361,-0.661901,0.0,0.0
5474,1368.25,51.8206,54.5258,128.419,104.802,112.446,0.00971782,0.101173,20.9234,52.9861,-0.636864,0.0,0.0
5491,1372.5,52.1219,54.4866,128.805,104.801,112.487,0.0101141,0.100436,20.9243,52.876,-0.640233,0.0,0.0
5508,1376.75,51.9978,54.7349,126.4,104.812,112.537,0.0100293,0.100907,20.9251,52.846,-0.643217,0.0,0.0
5525,1381,52.4113,54.9318,124.944,104.819,113.182,0.00980436,0.100092,20.9265,52.846,-0.694337,0.0,0.0
5542,1385.25,52.2987,54.6969,128.669,104.812,112.886,0.0100394,0.0997743,20.9268,52.846,-0.671252,0.0,0.0
5559,1389.5,51.9562,54.4422,127.283,104.787,113.312,0.0100833,0.099843,20.927,52.7759,-0.707489,0.0,0.0
5576,1393.75,52.3316,54.6588,128.539,104.748,112.505,0.0094377,0.0994653,20.9278,52.7459,-0.646216,0.0,0.0
5593,1398,52.461,54.5249,130.081,104.722,112.091,0.009798,0.100161,20.9267,52.7659,-0.615128,0.0,0.0
5610,1402.25,52.0572,54.6259,127.068,104.687,112.063,0.00984505,0.0996049,20.9281,52.6558,-0.615903,0.0,0.0
5627,1406.5,52.2777,54.472,127.202,104.644,112.283,0.00973832,0.100189,20.9265,52.6158,-0.637282,0.0,0.0
5644,1410.75,51.9434,54.2563,126.696,104.616,113.076,0.00972304,0.100034,20.9277,52.6558,-0.703369,0.0,0.0
5661,1415,52.3979,54.7399,125.77,104.593,112.602,0.00977217,0.0999735,20.9249,52.5257,-0.667371,0.0,0.0
5678,1419.25,51.9929,54.7346,124.291,104.541,111.814,0.00954678,0.0997172,20.925,52.5057,-0.608412,0.0,0.0
5695,1423.5,51.951,54.5523,130.362,104.542,112.383,0.00945974,0.100247,20.925,52.5157,-0.654154,0.0,0.0
5712,1427.75,52.233,54.2558,126.547,104.51,111.232,0.00941654,0.0995077,20.9255,52.4356,-0.563822,0.0,0.0
5729,1432,52.2329,54.6326,125.913,104.51,113.099,0.00956799,0.0992633,20.9249,52.3756,-0.714446,0.0,0.0
5746,1436.25,52.2342,54.8173,128.916,104.513,112.665,0.00959561,0.0999639,20.9236,52.3656,-0.679331,0.0,0.0
5763,1440.5,52.4913,54.9058,126.063,104.523,112.564,0.00947211,0.0994525,20.9251,52.3656,-0.670409,0.0,0.0
5780,1444.75,52.3974,54.763,126.591,104.508,112.462,0.00950434,0.0994697,20.9257,52.2755,-0.663487,0.0,0.0
5797,1449,52.1879,54.4236,127.519,104.529,112.208,0.00919618,0.0991112,20.9258,52.2455,-0.641182,0.0,0.0
5814,1453.25,51.9618,54.634,126.351,104.537,112.17,0.0091002,0.0988222,20.9274,52.2955,-0.637445,0.0,0.0
5831,1457.5,52.3291,54.6769,126.032,104.517,112.313,0.00920077,0.0992629,20.9268,52.1354,-0.650724,0.0,0.0
5848,1461.75,52.4869,54.9365,127.498,104.537,112.092,0.00920294,0.0991536,20.9284,52.1554,-0.631133,0.0,0.0
5865,1466,52.3007,54.6176,130.605,104.572,112.519,0.0091192,0.098305,20.9295,52.1754,-0.662498,0.0,0.0
5882,1470.25,52.0589,54.428,130.914,104.576,112.331,0.00902389,0.099062,20.9275,52.0653,-0.647104,0.0,0.0
5899,1474.5,51.8106,54.6207,124.387,104.603,112.33,0.00892667,0.0994661,20.9271,52.0353,-0.64469,0.0,0.0
5916,1478.75,52.3413,54.547,124.887,104.64,113.13,0.00901066,0.0986114,20.9275,52.0553,-0.705681,0.0,0.0
5933,1483,52.4152,54.68,128.009,104.634,111.898,0.00917913,0.0990585,20.9273,51.9652,-0.607114,0.0,0.0
5950,1487.25,51.8904,54.5272,129.253,104.64,112.009,0.00906738,0.0983243,20.928,51.9252,-0.615595,0.0,0.0
5967,1491.5,52.1859,54.7852,127.625,104.677,112.781,0.00904409,0.0986673,20.9273,51.9352,-0.674566,0.0,0.0
5984,1495.75,52.4728,54.6962,129.087,104.709,112.568,0.0089303,0.0988452,20.9261,51.9252,-0.65463,0.0,0.0
6001,1500,52.4587,54.8448,129.347,104.741,112.471,0.00887074,0.0984591,20.9258,51.8451,-0.644067,0.0,0.0
6018,1504.25,52.079,54.445,128.4,104.795,112.287,0.00874179,0.098652,20.9274,51.8151,-0.624624,0.0,0.0
6035,1508.5,52.1609,54.5224,130.874,104.854,112.849,0.00858208,0.0983552,20.9272,51.8551,-0.664619,0.0,0.0
6052,1512.75,52.4269,54.5987,128.969,104.87,112.78,0.00853438,0.0981371,20.9281,51.725,-0.657779,0.0,0.0
6069,1517,52.2482,54.3062,125.856,104.964,113.239,0.00908726,0.0979745,20.9292,51.685,-0.686338,0.0,0.0
6086,1521.25,51.9814,54.2469,126.055,105.06,112.004,0.00890757,0.0981815,20.9294,51.735,-0.578939,0.0,0.0
6103,1525.5,52.2384,54.437,126.652,105.126,113.021,0.00828315,0.0976175,20.9294,51.6149,-0.655008,0.0,0.0
6120,1529.75,52.3883,54.2525,124.368,105.195,113.426,0.00833591,0.0976088,20.9299,51.5849,-0.681455,0.0,0.0
6137,1534,52.2009,54.3568,127.391,105.261,113.718,0.00853628,0.0977639,20.9301,51.6249,-0.698974,0.0,0.0
6154,1538.25,52.3664,54.655,128.618,105.293,113.595,0.00868335,0.0982186,20.9294,51.5449,-0.686537,0.0,0.0
6171,1542.5,52.1637,54.5739,129.97,105.326,113.181,0.00872257,0.0981001,20.9302,51.4848,-0.650601,0.0,0.0
6188,1546.75,52.3997,54.6617,132.281,105.354,113.168,0.00857385,0.0974924,20.9304,51.4948,-0.647236,0.0,0.0
6205,1551,52.0722,54.7073,125.468,105.343,113.43,0.00853653,0.0974122,20.9298,51.5148,-0.669042,0.0,0.0
6222,1555.25,51.8945,54.5313,125.189,105.308,113.338,0.00863629,0.0977013,20.929,51.3947,-0.664735,0.0,0.0
6239,1559.5,52.3823,54.5201,125.913,105.235,113.223,0.00851028,0.0976503,20.9288,51.3447,-0.661793,0.0,0.0
6256,1563.75,52.4748,54.5963,132.852,105.139,113.56,0.00866644,0.0977987,20.9288,51.4148,-0.696871,0.0,0.0
6273,1568,52.0606,54.5359,125.941,104.983,112.343,0.00841526,0.0978293,20.9288,51.2846,-0.612944,0.0,0.0
6290,1572.25,52.0193,54.8244,126.261,104.923,113.176,0.00833573,0.097407,20.9288,51.2746,-0.684848,0.0,0.0
6307,1576.5,52.5408,54.566,129.337,105.041,112.63,0.00851204,0.098083,20.9295,51.3547,-0.630954,0.0,0.0
6324,1580.75,52.3028,54.9627,127.823,105.116,113.226,0.00826469,0.0965886,20.9317,51.2146,-0.672194,0.0,0.0
6341,1585,52.3776,54.8332,128.27,105.249,112.944,0.00834915,0.0975172,20.9304,51.1946,-0.638315,0.0,0.0
6358,1589.25,52.4028,55.0712,126.668,105.389,113.811,0.00845154,0.0977248,20.9301,51.2446,-0.695492,0.0,0.0
6375,1593.5,52.6099,54.6616,128.486,105.482,112.945,0.00804984,0.0966449,20.9319,51.1745,-0.618288,0.0,0.0
6392,1597.75,52.6033,54.5279,126.801,105.597,113.021,0.00809722,0.0967423,20.9321,51.0645,-0.614587,0.0,0.0
6409,1602,52.2374,54.7361,124.802,105.687,113.446,0.00813022,0.0968315,20.9318,51.0544,-0.640813,0.0,0.0
6426,1606.25,52.2342,54.5881,126.549,105.771,113.631,0.00778838,0.0965927,20.9298,51.0645,-0.648347,0.0,0.0
6443,1610.5,52.9506,54.9369,128.22,105.804,114.242,0.00802339,0.0969138,20.9314,50.9744,-0.694117,0.0,0.0
6460,1614.75,52.6264,55.0581,125.168,105.822,113.24,0.00817694,0.0961771,20.9311,50.9444,-0.612813,0.0,0.0
6477,1619,52.618,54.5691,127.135,105.821,113.993,0.00816676,0.0962826,20.9309,50.9944,-0.672847,0.0,0.0
6494,1623.25,52.3918,54.7142,125.701,105.766,113.352,0.00810396,0.0968144,20.9314,50.8643,-0.626618,0.0,0.0
6511,1627.5,52.6163,54.841,127.846,105.676,113.758,0.0078933,0.0970905,20.9321,50.8643,-0.666636,0.0,0.0
6528,1631.75,52.7779,55.2107,125.766,105.585,114.199,0.00794435,0.097034,20.9322,50.9343,-0.709459,0.0,0.0
6545,1636,52.9244,55.5125,126.058,105.455,113.017,0.00792052,0.0970978,20.9334,50.8142,-0.626461,0.0,0.0
6562,1640.25,52.7068,54.9328,127.792,105.348,113.079,0.00808499,0.0970432,20.932,50.7642,-0.640595,0.0,0.0
6579,1644.5,52.3484,55.3494,127.334,105.302,113.661,0.00809763,0.0970537,20.9315,50.8242,-0.691003,0.0,0.0
6596,1648.75,52.8734,55.0326,125.903,105.399,113.02,0.00784213,0.0969833,20.9331,50.8042,-0.631472,0.0,0.0
6613,1653,52.6616,55.2233,130.643,105.414,113.351,0.00781028,0.0960839,20.934,50.6941,-0.656667,0.0,0.0
6630,1657.25,52.8541,55.1524,126.345,105.398,114.594,0.00771031,0.0964489,20.9324,50.6941,-0.756671,0.0,0.0
6647,1661.5,52.181,55.1453,128.634,105.382,113.403,0.00797121,0.0961327,20.9337,50.7342,-0.663513,0.0,0.0
6664,1665.75,52.2442,54.929,126.993,105.382,113.261,0.00801848,0.0962578,20.9341,50.594,-0.652248,0.0,0.0
6681,1670,52.2313,54.9828,126.347,105.417,113.483,0.00788307,0.0963824,20.933,50.6141,-0.66689,0.0,0.0
6698,1674.25,52.2922,54.8293,125.07,105.469,114.013,0.00765018,0.0958579,20.9328,50.6041,-0.704615,0.0,0.0
6715,1678.5,52.4235,54.9279,131.718,105.485,113.735,0.00790973,0.0960731,20.9309,50.6041,-0.681152,0.0,0.0
6732,1682.75,51.9789,54.6008,124.811,105.51,113.916,0.00793713,0.0968335,20.9305,50.534,-0.693411,0.0,0.0
6749,1687,52.0831,54.6902,129.117,105.551,112.679,0.00750545,0.0967326,20.9309,50.584,-0.591058,0.0,0.0
6766,1691.25,52.2201,54.7233,128.75,105.586,112.683,0.00804954,0.0972118,20.9323,50.494,-0.588498,0.0,0.0
6783,1695.5,51.5564,54.3092,126.577,105.615,113.908,0.00824956,0.0974073,20.9332,50.4039,-0.683728,0.0,0.0
6800,1699.75,52.0088,54.5864,130.188,105.658,114.345,0.007697,0.0953146,20.934,50.4239,-0.714664,0.0,0.0
6817,1704,52.0315,54.6711,130.043,105.691,113.717,0.00763074,0.0965006,20.9326,50.3739,-0.662038,0.0,0.0
6834,1708.25,51.7883,54.3618,125.947,105.704,114.219,0.00773141,0.0967517,20.9317,50.3538,-0.700841,0.0,0.0
6851,1712.5,51.6289,54.2234,130.536,105.755,113.532,0.00771779,0.0958205,20.9324,50.2938,-0.641894,0.0,0.0
6868,1716.75,51.8094,53.9539,126.873,105.758,114.442,0.00761933,0.0951177,20.9332,50.2738,-0.71379,0.0,0.0
6885,1721,51.6856,54.2444,122.501,105.755,113.216,0.00768396,0.0962235,20.9333,50.2137,-0.616662,0.0,0.0
6902,1725.25,52.1232,54.368,127.618,105.712,114.348,0.00783813,0.0957106,20.9334,50.1737,-0.710292,0.0,0.0
6919,1729.5,51.9987,54.0425,124.836,105.635,113.659,0.00788017,0.0955561,20.9334,50.2537,-0.662181,0.0,0.0
6936,1733.75,51.9553,54.2624,124.082,105.527,113.441,0.00775697,0.095081,20.9345,50.1737,-0.654087,0.0,0.0
6953,1738,51.96,54.2656,125.572,105.408,113.871,0.00773608,0.0945484,20.9364,50.1737,-0.698524,0.0,0.0
6970,1742.25,51.7228,54.2596,126.796,105.291,113.902,0.00771779,0.0950287,20.9364,50.0636,-0.711055,0.0,0.0
6987,1746.5,51.6198,53.6642,130.888,105.13,112.009,0.0074709,0.0951093,20.9351,50.0336,-0.57324,0.0,0.0
7004,1750.75,51.4938,54.2381,125.571,104.974,112.679,0.0073657,0.0963029,20.935,50.0135,-0.640706,0.0,0.0
7021,1755,51.5842,54.1347,126.967,104.865,112.834,0.00727974,0.0952198,20.9355,50.0636,-0.662513,0.0,0.0
7038,1759.25,51.5728,53.9887,126.31,104.933,112.559,0.0073204,0.0949587,20.9351,50.0135,-0.634588,0.0,0.0
7055,1763.5,51.1869,53.6759,128.445,105.086,112.679,0.00742697,0.0954189,20.9348,49.9235,-0.631097,0.0,0.0
7072,1767.75,51.3247,53.9762,127.818,105.216,113.59,0.00736697,0.0955576,20.9347,50.0135,-0.69274,0.0,0.0
7089,1772,51.0297,53.8267,129.253,105.274,113.024,0.0072335,0.0948929,20.9342,49.8934,-0.64255,0.0,0.0
7106,1776.25,51.7654,53.1958,129.211,105.285,113.643,0.0073864,0.0952469,20.9339,49.8234,-0.69101,0.0,0.0
7123,1780.5,51.2774,53.7441,126.755,105.283,112.852,0.00720567,0.095561,20.9343,49.8134,-0.628058,0.0,0.0
7140,1784.75,51.5218,53.9941,132.498,105.26,112.836,0.00728008,0.0943116,20.9342,49.7833,-0.628639,0.0,0.0
7157,1789,51.4315,53.8995,125.281,105.23,112.485,0.00707525,0.0944288,20.9342,49.7033,-0.603095,0.0,0.0
7174,1793.25,51.6,53.6992,127.767,105.183,112.46,0.00709573,0.0940649,20.933,49.6732,-0.60507,0.0,0.0
7191,1797.5,51.509,54.231,125.484,105.149,113.472,0.0073023,0.0963954,20.9302,49.7333,-0.689057,0.0,0.0
7208,1801.75,52.0483,54.4189,125.311,105.081,112.477,0.00700268,0.0959314,20.9309,49.5631,-0.615256,0.0,0.0
7225,1806,51.9044,54.2177,128.852,105.039,112.816,0.00734611,0.0972419,20.9297,49.5732,-0.646086,0.0,0.0
7242,1810.25,51.5896,54.0763,126.375,105.018,112.863,0.00741267,0.0972968,20.9295,49.5631,-0.65164,0.0,0.0
7259,1814.5,51.6271,54.1553,130.267,104.981,111.859,0.00714962,0.0971457,20.9294,49.5031,-0.574003,0.0,0.0
7276,1818.75,51.8083,54.0345,128.612,104.953,112.265,0.00716183,0.0958391,20.93,49.4731,-0.609153,0.0,0.0
7293,1823,52.1043,54.6468,126.703,104.928,112.095,0.00690703,0.0958412,20.9314,49.5031,-0.597632,0.0,0.0
7310,1827.25,51.4641,54.4465,126.733,104.879,112.061,0.00686972,0.0946127,20.9322,49.4931,-0.599151,0.0,0.0
7327,1831.5,52.1652,53.8157,127.293,104.829,112.032,0.00686287,0.0935227,20.9351,49.383,-0.601085,0.0,0.0
7344,1835.75,51.5962,54.4185,128.553,104.787,112.487,0.00687045,0.0933403,20.9352,49.3229,-0.641363,0.0,0.0
7361,1840,51.6116,53.7936,127.636,104.738,112.876,0.00685892,0.0938917,20.9349,49.383,-0.676815,0.0,0.0
7378,1844.25,52.0261,53.8644,126.788,104.679,112.21,0.00678224,0.0946895,20.9348,49.3129,-0.628358,0.0,0.0
7395,1848.5,50.0615,52.6858,130.524,104.611,112.06,0.00691841,0.0951847,20.933,49.2829,-0.622252,0.0,0.0
7412,1852.75,49.8469,52.3816,127.607,104.571,112.214,0.00662047,0.0946815,20.9341,49.3029,-0.63805,0.0,0.0
7429,1857,50.3835,52.8477,125.682,104.516,111.786,0.00629569,0.0934139,20.9358,49.1728,-0.608234,0.0,0.0
7446,1861.25,50.3868,52.6203,129.75,104.527,111.9,0.00610561,0.0918119,20.937,49.1728,-0.616549,0.0,0.0
7463,1865.5,50.0488,52.234,129.841,104.549,112.226,0.0061873,0.091423,20.9389,49.1928,-0.640889,0.0,0.0
7480,1869.75,50.0988,52.5974,127.406,104.538,111.969,0.00615182,0.091267,20.9392,49.1728,-0.62117,0.0,0.0
7497,1874,50.3943,52.9857,128.694,104.562,111.946,0.00630158,0.0912134,20.9393,49.0427,-0.617239,0.0,0.0
7514,1878.25,49.867,52.6028,126.077,104.552,112.53,0.00614123,0.0908156,20.9393,49.1027,-0.665152,0.0,0.0
7531,1882.5,49.9299,52.9508,129.933,104.562,112.977,0.00620981,0.090757,20.9393,49.0727,-0.700182,0.0,0.0
7548,1886.75,50.4814,52.8716,130.734,104.557,112.169,0.00611547,0.0905659,20.9394,48.9826,-0.635614,0.0,0.0
7565,1891,50.5493,52.9703,126.129,104.546,112.901,0.00623924,0.0902894,20.94,48.9326,-0.695454,0.0,0.0
7582,1895.25,50.3639,53.056,130.799,104.55,112.169,0.00645659,0.0908544,20.9408,48.9926,-0.636274,0.0,0.0
7599,1899.5,50.576,53.487,130.746,104.525,112.033,0.00618989,0.0898938,20.9425,48.9126,-0.627493,0.0,0.0
7616,1903.75,50.241,52.4495,130.44,104.542,112.018,0.00599171,0.0896663,20.942,48.8625,-0.624827,0.0,0.0
7633,1908,50.2201,52.2645,124.952,104.587,112.337,0.00584786,0.0899847,20.9418,48.9226,-0.646568,0.0,0.0
7650,1912.25,50.0605,52.3773,132.281,104.614,111.757,0.00553644,0.0891326,20.9418,48.8325,-0.597452,0.0,0.0
7667,1916.5,49.9187,52.5332,128.909,104.647,111.972,0.00543365,0.0892835,20.9401,48.8025,-0.612001,0.0,0.0
7684,1920.75,50.5718,52.6277,124.263,104.682,113.058,0.00587343,0.0892894,20.9396,48.8625,-0.696292,0.0,0.0
7701,1925,50.0867,52.8281,127.571,104.726,111.982,0.00591785,0.0894796,20.9393,48.7925,-0.605999,0.0,0.0
7718,1929.25,50.5653,52.7986,126.373,104.779,112.655,0.00571817,0.0888414,20.939,48.7124,-0.65564,0.0,0.0
7735,1933.5,50.4489,52.3479,131.358,104.845,112.134,0.00571957,0.0892766,20.9385,48.7024,-0.608005,0.0,0.0
7752,1937.75,50.4332,52.8192,129.37,104.899,112.043,0.00564016,0.0892135,20.9385,48.7524,-0.596009,0.0,0.0
7769,1942,50.2095,52.9476,128.166,104.943,112.284,0.00553834,0.0883158,20.9409,48.6323,-0.611603,0.0,0.0
7786,1946.25,49.8886,52.7441,128.881,105.016,112.968,0.00511153,0.0878343,20.9431,48.6023,-0.660254,0.0,0.0
7803,1950.5,50.1881,52.5092,128.885,105.092,112.994,0.00492314,0.0882019,20.9451,48.7024,-0.655829,0.0,0.0
7820,1954.75,49.5316,52.6142,128.041,105.151,113.382,,0.0877667,,48.5523,-0.681705,0.0,0.0
7837,1959,50.6562,52.7192,131.936,105.223,112.957,,,,48.5523,-0.641612,0.0,0.0
7854,1963.25,50.1704,52.8761,126.332,105.299,113.581,,,,48.6323,-0.68488,0.0,0.0
7857,1964,50.504,52.7906,129.032,105.284,112.342,,,,48.5222,-0.586867,0.0,0.0