File: 01_Data/Wool_Rug/Cone/Wool_Rug_Cone_HF25Scan_220323_R1.csv
Names,Time,Stack TC,Smoke TC,Exh Press,Smoke Comp,Smoke Meas,CO Meter,CO2 Meter,O2 Meter,Sample Mass,Ext Coeff,Start Test,Flame Verif
Chan Gain,,500,500,1,1,1,1,1,1,1,1,1.0,1.0
Offset,,0,0,0.138078,0,0,0,0,0,0,0,0.0,0.0
Gain,,1,1,25.011,13.1874,13.4895,1,1,1,1.00089,1.01187,1.0,1.0
Units,sec,C,C,Pa,%,%,%,%,%,g,/m,,
Baseline,,16.2791,16.9101,161.273,100.072,96.2453,0.000896437,0.0679446,21.0032,-836.373,0.346082,,
10,2.25,15.0973,15.4264,162.513,99.3758,95.7058,0.000870081,0.0716815,21.0057,-305.623,0.334007,0.0,0.0
20,4.75,15.4575,15.861,159.163,99.4269,95.1188,0.000762221,0.0710063,21.0063,-305.673,0.393183,0.0,0.0
30,7.25,15.1906,16.2505,157.697,99.4724,94.8376,0.000721443,0.0700893,21.0066,-305.723,0.423519,0.0,0.0
40,9.75,15.2395,15.5091,161.116,99.5372,95.3913,0.000837107,0.0692979,21.0084,-305.783,0.377628,0.0,0.0
50,12.25,15.4051,15.7006,161.538,99.5706,95.2756,0.00119281,0.0688558,21.0094,-305.843,0.391376,0.0,0.0
60,14.75,15.4368,16.2438,158.593,99.6257,93.4894,0.00158167,0.0687948,21.0096,-305.893,0.564278,0.0,0.0
70,17.25,15.6978,16.0709,160.82,99.662,93.6553,0.00175724,0.0692494,21.0083,-305.923,0.551767,0.0,0.0
80,19.75,15.9744,16.0399,157.257,99.7091,92.0201,0.00174986,0.0699078,21.0079,-306.003,0.712298,0.0,0.0
90,22.25,16.0648,16.1637,164.905,99.7264,91.9102,0.00178557,0.0708092,21.0049,-306.053,0.724446,0.0,0.0
100,24.75,15.694,16.9938,156.703,99.7666,90.9103,0.00186502,0.0722162,21.0027,-306.113,0.825124,0.0,0.0
110,27.25,15.8402,16.7793,157.907,99.7891,91.755,0.00205604,0.0739121,21.0011,-306.173,0.745032,0.0,0.0
120,29.75,16.2264,16.6647,158.675,99.8282,90.7526,0.00224769,0.0755727,20.9978,-306.233,0.846008,0.0,0.0
130,32.25,16.3267,16.9857,164.694,99.8491,90.9552,0.00232844,0.0784369,20.9944,-306.303,0.828082,0.0,0.0
140,34.75,16.2972,16.7888,158.053,99.8773,90.0145,0.00241912,0.0807111,20.9928,-306.323,0.922859,0.0,0.0
150,37.25,16.583,16.8569,159.181,99.8974,90.3558,0.00252072,0.0814977,20.9936,-306.383,0.891059,0.0,0.0
160,39.75,16.9142,17.0115,159.099,99.9252,90.6625,0.00247918,0.0807602,20.9947,-306.453,0.863449,0.0,0.0
170,42.25,16.6166,17.3499,158.367,99.9248,91.2129,0.00252077,0.0791494,20.9959,-306.493,0.809691,0.0,0.0
180,44.75,17.0755,17.4451,163.936,99.938,92.0872,0.002599,0.0775278,20.9976,-306.543,0.726188,0.0,0.0
190,47.25,16.9327,17.1792,157.346,99.9453,91.2322,0.00281882,0.0763403,20.9985,-306.604,0.809632,0.0,0.0
200,49.75,16.6167,17.3318,163.124,99.9469,92.1453,0.00301278,0.0754607,20.9993,-306.644,0.721381,0.0,0.0
210,52.25,16.4327,17.4703,154.681,99.9582,91.5455,0.00291957,0.0749389,20.9996,-306.684,0.780348,0.0,0.0
220,54.75,15.9772,17.5399,161.385,99.955,92.2704,0.0027732,0.0753968,20.9991,-306.714,0.71005,0.0,0.0
230,57.25,16.7592,17.5259,163.807,99.9566,92.5347,0.00283136,0.0760292,20.9984,-306.774,0.684805,0.0,0.0
240,59.75,16.8859,17.8456,160.223,99.9533,92.4203,0.00294041,0.076825,20.9978,-306.804,0.695504,0.0,0.0
250,62.25,16.7213,17.164,158.601,99.963,92.559,0.0029039,0.0774103,20.9973,-306.854,0.683049,0.0,0.0
260,64.75,17.0547,18.0645,158.34,99.9538,92.692,0.00276637,0.0776023,20.9972,-306.904,0.669484,0.0,0.0
270,67.25,17.2284,18.1119,158.71,99.9586,92.9867,0.00265834,0.0771084,20.9971,-306.934,0.641732,0.0,0.0
280,69.75,17.3829,17.6627,161.816,99.9457,92.2359,0.00268431,0.076696,20.9981,-306.974,0.712555,0.0,0.0
290,72.25,17.1343,17.6666,161.122,99.9546,92.4549,0.00270089,0.0762873,20.9989,-307.024,0.692291,0.0,0.0
300,74.75,17.1066,17.9035,158.597,99.9457,92.9937,0.00259716,0.0756643,20.9993,-307.064,0.639921,0.0,0.0
310,77.25,17.1701,17.9031,158.257,99.9562,93.326,0.00255657,0.0749485,21,-307.074,0.609197,0.0,0.0
320,79.75,17.2088,17.7183,158.046,99.9521,93.051,0.00271565,0.0745259,21.0013,-307.114,0.635033,0.0,0.0
330,82.25,17.6857,17.5777,160.632,99.9457,93.7166,0.00295206,0.0743299,21.0021,-307.154,0.571189,0.0,0.0
340,84.75,17.1083,17.8885,160.258,99.9437,93.4317,0.00292299,0.0742213,21.0023,-307.194,0.598032,0.0,0.0
350,87.25,17.5426,17.8801,156.954,99.9284,92.8739,0.00267251,0.0743793,21.0024,-307.244,0.649825,0.0,0.0
360,89.75,17.7861,18.0339,158.314,99.9348,93.7594,0.00249792,0.074733,21.0024,-307.294,0.56617,0.0,0.0
370,92.25,17.6704,18.4046,160.655,99.9042,94.5819,0.002374,0.0759092,20.9989,-307.324,0.485927,0.0,0.0
380,94.75,17.2598,18.1902,156.045,99.9018,94.6902,0.00225298,0.0788438,20.9946,-307.384,0.475558,0.0,0.0
390,97.25,17.7251,18.6629,160.288,99.8829,92.3347,0.00229281,0.0798905,20.9942,-307.424,0.697475,0.0,0.0
400,99.75,17.7604,18.7529,160.956,99.8737,93.3811,0.00238376,0.0780347,20.9959,-307.444,0.596623,0.0,0.0
410,102.25,17.2348,18.0605,162.222,99.8451,93.0094,0.00264888,0.0764823,20.9974,-307.484,0.629488,0.0,0.0
420,104.75,18.0721,18.0964,159.709,99.8556,93.1465,0.00282252,0.0758389,20.998,-307.524,0.617346,0.0,0.0
430,107.25,17.5333,18.0169,156.903,99.8201,92.3017,0.00283369,0.0756526,20.9983,-307.564,0.695061,0.0,0.0
440,109.75,17.9523,18.4098,162.899,99.8101,92.7825,0.00275883,0.0753719,20.9996,-307.624,0.648048,0.0,0.0
450,112.25,17.7592,18.7456,164.683,99.7779,93.5491,0.00264097,0.0748622,21.0008,-307.654,0.572156,0.0,0.0
460,114.75,18.0489,18.5079,157.338,99.7706,92.8505,0.00258821,0.0743207,21.0013,-307.725,0.638043,0.0,0.0
470,117.25,17.7948,18.7067,160.451,99.7248,93.4239,0.00266247,0.0737466,21.0015,-307.775,0.57931,0.0,0.0
480,119.75,17.6135,18.1411,155.701,99.6954,93.2959,0.00267003,0.0736595,21.0016,-307.815,0.588867,0.0,0.0
490,122.25,17.8663,18.447,159.284,99.6588,93.3445,0.00273721,0.073738,21.0017,-307.845,0.580986,0.0,0.0
500,124.75,17.6212,18.6912,159.016,99.6169,93.2247,0.00278346,0.0737515,21.0023,-307.905,0.588656,0.0,0.0
510,127.25,17.8714,18.6086,161.409,99.5831,93.7714,0.00270792,0.0737855,21.0025,-307.945,0.533745,0.0,0.0
520,129.75,17.8405,18.9089,160.745,99.5433,93.5063,0.00267726,0.0735941,21.0025,-308.005,0.555322,0.0,0.0
530,132.25,18.2049,18.6274,159.915,99.501,92.5623,0.00271743,0.0736409,21.0025,-308.045,0.641613,0.0,0.0
540,134.75,17.8709,19.0168,161.235,99.4386,93.6273,0.00280198,0.0736856,21.0026,-308.105,0.534506,0.0,0.0
550,137.25,17.6935,18.6724,161.953,99.4004,92.4335,0.00290235,0.0737806,21.0026,-308.135,0.644998,0.0,0.0
560,139.75,18.1898,18.9602,159.742,99.3376,93.2794,0.00287372,0.073773,21.0026,-308.175,0.558523,0.0,0.0
570,142.25,17.7845,18.9912,162.151,99.2941,92.9649,0.00286284,0.073878,21.0026,-308.225,0.584617,0.0,0.0
580,144.75,18.49,18.9869,163.452,99.2273,92.7418,0.00270402,0.0738441,21.0026,-308.295,0.599972,0.0,0.0
590,147.25,17.9762,18.9791,160.1,99.1738,92.6792,0.00264951,0.0739413,21.0026,-308.335,0.601175,0.0,0.0
600,149.75,18.1565,18.9102,160.551,99.1452,92.6879,0.00280443,0.0739922,21.0026,-308.395,0.597788,0.0,0.0
610,152.25,17.659,18.9599,157.812,99.1714,92.8398,0.00274121,0.0740258,21.0026,-308.445,0.585595,0.0,0.0
620,154.75,17.942,18.6518,157.827,99.1714,92.2988,0.00267383,0.0741377,21.0026,-308.505,0.637462,0.0,0.0
630,157.25,18.107,18.9777,156.782,99.179,93.0164,0.00279204,0.0741455,21.0026,-308.545,0.56941,0.0,0.0
640,159.75,18.0392,19.2001,156.647,99.1947,92.8225,0.00279606,0.0744021,21.0026,-308.615,0.589337,0.0,0.0
650,162.25,18.2029,18.9125,160.964,99.1971,92.6747,0.00276424,0.0745606,21.0011,-308.655,0.603697,0.0,0.0
660,164.75,18.2918,19.0347,158.822,99.2217,92.6064,0.00279071,0.0746402,21.0005,-308.715,0.612441,0.0,0.0
670,167.25,17.6754,19.084,160.171,99.2205,93.3482,0.00267676,0.0746935,21.0003,-308.765,0.541513,0.0,0.0
680,169.75,18.0815,19.1649,161.383,99.235,92.9196,0.00255438,0.074908,20.9992,-308.825,0.583652,0.0,0.0
690,172.25,18.2437,18.8303,162.915,99.2285,92.8974,0.00243356,0.0750245,20.9981,-308.886,0.5852,0.0,0.0
700,174.75,18.4729,18.8953,158.926,99.2507,92.6101,0.00239804,0.0750942,20.9978,-308.936,0.614677,0.0,0.0
710,177.25,18.1072,19.6613,163.099,99.2487,93.0522,0.00248538,0.0753262,20.9961,-308.986,0.572222,0.0,0.0
720,179.75,18.3723,19.1623,161.473,99.2676,92.2692,0.00256715,0.075516,20.9955,-309.046,0.648918,0.0,0.0
730,182.25,17.8265,19.1972,159.156,99.2676,92.3137,0.00258528,0.0754121,20.9967,-309.106,0.644642,0.0,0.0
740,184.75,17.879,19.2147,157.53,99.2748,92.1976,0.00255179,0.0752921,20.9972,-309.156,0.656459,0.0,0.0
750,187.25,18.4126,19.0689,161.029,99.299,92.4981,0.00248652,0.0753199,20.996,-309.216,0.629733,0.0,0.0
760,189.75,18.1596,19.2125,163.192,99.3135,92.5265,0.00249133,0.0754014,20.9955,-309.276,0.628303,0.0,0.0
770,192.25,18.5274,19.2475,160.929,99.3046,92.1017,0.00245803,0.0752319,20.9972,-309.326,0.66836,0.0,0.0
780,194.75,18.2169,19.2668,160.103,99.3239,92.6821,0.00245679,0.0750919,20.9989,-309.386,0.614322,0.0,0.0
790,197.25,18.1744,19.3214,157.669,99.3243,92.8879,0.0024945,0.0748009,20.9995,-309.446,0.594668,0.0,0.0
800,199.75,18.5652,19.308,156.274,99.3352,92.8785,0.00264305,0.0747255,20.9997,-309.486,0.596544,0.0,0.0
810,202.25,18.3982,19.3263,157.888,99.3561,93.5503,0.00272224,0.0747264,20.9998,-309.556,0.534439,0.0,0.0
820,204.75,18.3813,19.4553,164.493,99.3589,93.2712,0.00269502,0.0746695,20.9998,-309.616,0.561212,0.0,0.0
830,207.25,17.8316,19.5409,161.901,99.3742,93.1156,0.00251858,0.0745467,21.0003,-309.656,0.5774,0.0,0.0
840,209.75,18.9778,19.5427,161.261,99.3738,92.2548,0.00232054,0.0742579,21.001,-309.706,0.659799,0.0,0.0
850,212.25,18.7907,19.3755,159.945,99.398,93.3766,0.00211632,0.0740796,21.0018,-309.756,0.554675,0.0,0.0
860,214.75,18.8845,19.2248,156.363,99.3935,92.9229,0.00200374,0.0738603,21.0022,-309.806,0.597509,0.0,0.0
870,217.25,19.0961,19.0916,159.651,99.4117,92.9328,0.00205788,0.0739643,21.0026,-309.856,0.598183,0.0,0.0
880,219.75,18.2408,19.2891,161.037,99.4048,92.2503,0.00222517,0.0740921,21.0028,-309.906,0.663002,0.0,0.0
890,222.25,18.3688,19.1163,161.138,99.4298,92.9476,0.00222145,0.0742413,21.0024,-309.967,0.598384,0.0,0.0
900,224.75,18.7501,19.0752,156.431,99.429,91.9539,0.00208028,0.0742943,21.0012,-310.027,0.693723,0.0,0.0
910,227.25,18.529,19.1883,158.72,99.433,93.2704,0.0021297,0.0744501,21.0008,-310.077,0.567903,0.0,0.0
920,229.75,18.2983,19.3283,165.528,99.4378,91.9432,0.00214777,0.074492,21.0006,-310.127,0.695546,0.0,0.0
930,232.25,18.5226,19.6345,159.78,99.4406,92.5207,0.00229071,0.0744841,21.0006,-310.187,0.640215,0.0,0.0
940,234.75,17.6988,19.3823,158.045,99.4446,93.2317,0.00244433,0.0745174,21.0005,-310.217,0.572629,0.0,0.0
950,237.25,18.6061,18.8613,160.674,99.4402,93.3898,0.0023234,0.0745459,20.9995,-310.287,0.557197,0.0,0.0
960,239.75,18.6213,19.7725,164.145,99.4567,92.9258,0.00215537,0.0744782,20.9988,-310.337,0.602874,0.0,0.0
970,242.25,18.8926,19.7399,156.725,99.4402,93.0267,0.00212492,0.0745044,20.9992,-310.387,0.591774,0.0,0.0
980,244.75,18.6364,19.0177,157.304,99.4579,92.7747,0.00217105,0.0746218,21.0003,-310.447,0.617425,0.0,0.0
990,247.25,18.8165,19.3345,161.147,99.4527,93.3358,0.00223436,0.0745239,21.0006,-310.497,0.563437,0.0,0.0
1000,249.75,18.7167,19.4655,161.008,99.4624,93.2951,0.00234206,0.0741973,21.0007,-310.557,0.568176,0.0,0.0
1010,252.25,18.798,19.2477,160.069,99.4499,93.242,0.00238544,0.0740191,21.0008,-310.587,0.572116,0.0,0.0
1020,254.75,18.4328,19.484,158.979,99.468,93.3527,0.00235771,0.0741208,21.0008,-310.647,0.563197,0.0,0.0
1030,257.25,18.7749,19.6694,159.255,99.4515,92.8468,0.00235947,0.0742117,21.0006,-310.697,0.609961,0.0,0.0
1040,259.75,18.3311,19.0999,157.92,99.4543,92.7579,0.00241487,0.0742602,20.9989,-310.747,0.618717,0.0,0.0
1050,262.25,18.2072,19.8355,156.786,99.4531,92.7278,0.00245536,0.0743028,20.9986,-310.817,0.621485,0.0,0.0
1060,264.75,18.574,19.2378,162.529,99.4515,93.2757,0.00226228,0.0741961,20.9985,-310.867,0.569047,0.0,0.0
1070,267.25,18.9334,19.6259,158.827,99.4515,93.433,0.00200084,0.0742544,20.9985,-310.907,0.554095,0.0,0.0
1080,269.75,18.1377,19.8572,159.104,99.4543,92.8311,0.00191983,0.0742979,20.9987,-310.947,0.611708,0.0,0.0
1090,272.25,18.5766,19.3953,160.043,99.4519,92.8468,0.0020313,0.0742043,20.9991,-311.007,0.609996,0.0,0.0
1100,274.75,18.6296,19.8476,157.362,99.4531,92.7719,0.00208192,0.0744201,20.9993,-311.057,0.61727,0.0,0.0
1110,277.25,18.3264,19.7421,158.417,99.4527,93.6141,0.00213649,0.0741095,20.9993,-311.108,0.537012,0.0,0.0
1120,279.75,18.753,20.191,158.672,99.4487,93.7866,0.00214919,0.0742336,20.9993,-311.148,0.520313,0.0,0.0
1130,282.25,19.2273,19.241,161.539,99.4539,93.0049,0.00218788,0.0741867,20.9993,-311.198,0.595076,0.0,0.0
1140,284.75,18.5387,19.7872,157.52,99.4426,92.8888,0.00218763,0.0742319,20.9999,-311.248,0.605157,0.0,0.0
1150,287.25,18.4795,19.7295,159.285,99.4515,93.9072,0.00220352,0.0742316,21.0005,-311.288,0.509157,0.0,0.0
1160,289.75,18.6023,19.5227,158.267,99.441,93.2276,0.00221835,0.0740207,21.0007,-311.328,0.572697,0.0,0.0
1170,292.25,18.6093,19.5829,161.69,99.4495,92.7229,0.00213485,0.0740981,21.0008,-311.388,0.621634,0.0,0.0
1180,294.75,18.8757,19.9857,160.277,99.4362,93.7664,0.00191771,0.0744147,21.0008,-311.448,0.521109,0.0,0.0
1190,297.25,18.68,19.702,156.969,99.4511,92.9723,0.00176272,0.0754205,20.9993,-311.478,0.59793,0.0,0.0
1200,299.75,19.1467,19.6919,155.631,99.4366,93.4,0.00185707,0.0773998,20.9959,-311.538,0.555895,0.0,0.0
1210,302.25,19.106,19.8364,155.986,99.4418,91.7229,0.00204065,0.0789821,20.9945,-311.568,0.717193,0.0,0.0
1220,304.75,18.8821,20.2046,157.113,99.4354,93.6742,0.00204446,0.0794889,20.9949,-311.618,0.52977,0.0,0.0
1230,307.25,18.8405,19.6971,159.278,99.4342,92.9863,0.0019322,0.0787923,20.9962,-311.668,0.595084,0.0,0.0
1240,309.75,19.0539,19.7798,160.066,99.4273,93.6293,0.00187057,0.0776288,20.9975,-311.698,0.533304,0.0,0.0
1250,312.25,19.003,19.1838,155.734,99.4149,92.4569,0.00194452,0.0764815,20.9979,-311.768,0.644039,0.0,0.0
1260,314.75,18.9341,19.5112,158.67,99.4088,92.9295,0.00194305,0.075692,20.998,-311.808,0.598245,0.0,0.0
1270,317.25,19.0332,20.1309,160.609,99.3956,92.3779,0.00188885,0.0752479,20.999,-311.848,0.649905,0.0,0.0
1280,319.75,18.6432,19.7049,156.426,99.4064,92.3462,0.00181535,0.0749075,21,-311.908,0.653922,0.0,0.0
1290,322.25,18.5661,19.9709,160.529,99.3996,92.8406,0.0017011,0.0746883,21.0003,-311.958,0.605916,0.0,0.0
1300,324.75,19.117,19.4663,161.183,99.4012,92.6101,0.00164151,0.0743898,21.0004,-311.998,0.628127,0.0,0.0
1310,327.25,18.8703,19.5325,157.306,99.3871,93.1172,0.00171634,0.0740555,21.0004,-312.028,0.578393,0.0,0.0
1320,329.75,18.8917,19.7209,158.038,99.3964,92.7751,0.00180208,0.0740487,21.0004,-312.068,0.611889,0.0,0.0
1330,332.25,18.6732,19.4327,162.076,99.3863,92.5742,0.0018618,0.0741722,21.0008,-312.118,0.630231,0.0,0.0
1340,334.75,18.773,19.4656,158.172,99.3859,93.8599,0.00186743,0.0740012,21.001,-312.178,0.507776,0.0,0.0
1350,337.25,19.4249,19.2229,160.356,99.3786,93.5639,0.00189545,0.0738177,21.0026,-312.219,0.535163,0.0,0.0
1360,339.75,18.4618,19.7635,156.879,99.3742,92.4104,0.00192226,0.0745978,21.0016,-312.239,0.644875,0.0,0.0
1370,342.25,18.9548,19.5896,160.529,99.3722,93.8442,0.00173093,0.0764166,20.9998,-312.269,0.508033,0.0,0.0
1380,344.75,19.1365,20.1264,162.063,99.3807,93.8471,0.00172936,0.0776695,20.9991,-312.319,0.508515,0.0,0.0
1390,347.25,18.9478,19.6525,158.414,99.363,93.5203,0.00190524,0.0780484,20.9989,-312.369,0.537902,0.0,0.0
1400,349.75,19.1677,19.804,159.075,99.3549,93.3099,0.00197376,0.0772795,21,-312.409,0.557171,0.0,0.0
1410,352.25,19.075,19.4365,159.358,99.3525,93.0324,0.00191935,0.0761912,21.0007,-312.449,0.583389,0.0,0.0
1420,354.75,18.9566,19.9011,161.257,99.3436,93.4536,0.00183182,0.0753509,21.0011,-312.489,0.542508,0.0,0.0
1430,357.25,18.4799,20.1868,161.277,99.3404,92.9345,0.00174857,0.074443,21.0022,-312.529,0.591663,0.0,0.0
1440,359.75,18.9277,19.397,162.139,99.3452,93.5474,0.00172942,0.0738573,21.0036,-312.569,0.533743,0.0,0.0
1450,362.25,18.5443,19.9021,160.093,99.3432,93.2271,0.00176647,0.0734116,21.0046,-312.609,0.564003,0.0,0.0
1460,364.75,18.9871,19.9468,159.357,99.336,92.9801,0.0019175,0.0731575,21.0047,-312.669,0.586904,0.0,0.0
1470,367.25,18.6405,19.6763,158.73,99.334,92.4512,0.00195451,0.0732427,21.0028,-312.699,0.637368,0.0,0.0
1480,369.75,18.9203,19.8177,156.645,99.3356,92.9913,0.00180985,0.0732781,21.0013,-312.729,0.585807,0.0,0.0
1490,372.25,18.9162,20.055,162.549,99.3408,92.7146,0.00167982,0.0732513,21.0007,-312.769,0.612719,0.0,0.0
1500,374.75,19.0313,19.8725,161.003,99.3271,93.6363,0.00155479,0.0731383,21.0006,-312.809,0.523691,0.0,0.0
1510,377.25,18.6004,19.5862,161.006,99.3408,93.1852,0.00145703,0.0729776,21.0018,-312.859,0.567787,0.0,0.0
1520,379.75,19.1629,19.6761,158.165,99.3239,92.1959,0.00151765,0.0732105,21.0029,-312.889,0.661007,0.0,0.0
1530,382.25,18.9645,20.252,161.14,99.3183,93.0217,0.00179429,0.0735434,21.0019,-312.929,0.581353,0.0,0.0
1540,384.75,18.9564,19.6778,160.416,99.3034,93.2206,0.00197992,0.0737258,21.0016,-312.979,0.561069,0.0,0.0
1550,387.25,19.0092,19.7928,160.451,99.3002,92.9044,0.00193432,0.0739171,21.0015,-312.999,0.590936,0.0,0.0
1560,389.75,19.0657,20.3652,155.706,99.3022,93.7109,0.00186565,0.0739464,21.0014,-313.049,0.5144,0.0,0.0
1570,392.25,19.0818,19.7651,152.742,99.2933,93.2152,0.00198216,0.0736321,21.0014,-313.089,0.56068,0.0,0.0
1580,394.75,18.5708,19.9832,161.074,99.297,93.3457,0.00210049,0.073566,21.0014,-313.119,0.548586,0.0,0.0
1590,397.25,19.172,19.7809,158.757,99.2724,92.0214,0.00200908,0.0737304,21.0014,-313.149,0.673221,0.0,0.0
1600,399.75,18.7643,19.7074,159.561,99.2857,93.9727,0.00191728,0.0736964,21.0017,-313.189,0.488161,0.0,0.0
1610,402.25,18.6107,20.1307,156.809,99.2664,92.0094,0.00197569,0.0734382,21.0035,-313.219,0.673833,0.0,0.0
1620,404.75,18.9909,19.7244,163.377,99.2708,92.9933,0.00204969,0.073362,21.0041,-313.259,0.579819,0.0,0.0
1630,407.25,18.945,20.4784,155.734,99.243,93.2943,0.00213845,0.0732631,21.0049,-313.31,0.548658,0.0,0.0
1640,409.75,18.7623,19.7617,155.71,99.2386,92.5244,0.00208167,0.0731132,21.0061,-313.35,0.621807,0.0,0.0
1650,412.25,18.9625,20.1529,157.956,99.2229,93.1679,0.00199873,0.0731382,21.0065,-313.37,0.558891,0.0,0.0
1660,414.75,19.0293,19.6944,159.504,99.2112,93.9344,0.00201007,0.0729083,21.0071,-313.4,0.485119,0.0,0.0
1670,417.25,19.6121,19.7715,157.096,99.1935,92.2009,0.0020506,0.0726707,21.0084,-313.44,0.64887,0.0,0.0
1680,419.75,19.0925,19.8396,165.677,99.2064,93.0592,0.00201896,0.0726923,21.0089,-313.47,0.567775,0.0,0.0
1690,422.25,19.3578,19.6858,159.945,99.1887,93.6261,0.00188194,0.0726175,21.009,-313.51,0.512286,0.0,0.0
1700,424.75,18.952,19.8616,158.87,99.179,93.2099,0.0017304,0.0725334,21.0071,-313.52,0.550966,0.0,0.0
1710,427.25,19.3891,19.9356,156.29,99.1678,93.4849,0.00165376,0.0727673,21.0056,-313.57,0.523809,0.0,0.0
1720,429.75,19.2305,19.6678,160.904,99.1553,93.2893,0.00160162,0.0728318,21.0043,-313.61,0.541278,0.0,0.0
1730,432.25,19.2116,19.8842,159.731,99.1553,92.9122,0.00165846,0.0728972,21.0025,-313.64,0.57723,0.0,0.0
1740,434.75,19.0764,19.6776,158.292,99.1448,93.538,0.00182897,0.0729031,21.0019,-313.68,0.516716,0.0,0.0
1750,437.25,19.441,20.2789,157.232,99.1432,93.5404,0.00194707,0.0729826,21.0009,-313.69,0.516337,0.0,0.0
1760,439.75,19.3601,20.4666,160.419,99.1356,93.6116,0.00200934,0.0730869,20.9998,-313.74,0.508896,0.0,0.0
1770,442.25,19.1759,20.064,160.119,99.1444,93.1267,0.00200264,0.0735015,20.9994,-313.77,0.555791,0.0,0.0
1780,444.75,18.9189,20.1184,163.25,99.146,92.8159,0.00207535,0.0735684,20.9993,-313.8,0.585609,0.0,0.0
1790,447.25,18.9195,19.6318,160.292,99.1416,93.9525,0.00214885,0.0733724,20.9999,-313.83,0.477177,0.0,0.0
1800,449.75,19.1056,20.4172,162.663,99.1428,93.7743,0.00216062,0.0733253,21.0006,-313.86,0.494141,0.0,0.0
1810,452.25,19.5039,20.2492,158.698,99.1505,93.9155,0.00199147,0.0732056,21.001,-313.89,0.48147,0.0,0.0
1820,454.75,19.2901,20.2921,154.71,99.1472,93.4886,0.00187033,0.0732162,21.0023,-313.92,0.521621,0.0,0.0
1830,457.25,19.4133,19.9129,159.458,99.1484,92.7974,0.00199271,0.0733088,21.0031,-313.96,0.587596,0.0,0.0
1840,459.75,19.1949,19.945,162.115,99.136,93.3877,0.00212702,0.0733842,21.0034,-313.98,0.530193,0.0,0.0
1850,462.25,18.8935,20.0005,159.055,99.1203,93.0822,0.002132,0.0733792,21.0035,-314.04,0.557868,0.0,0.0
1860,464.75,18.9036,19.7555,161.031,99.1267,93.5927,0.00201174,0.0732643,21.0024,-314.05,0.509899,0.0,0.0
1870,467.25,18.8656,20.1335,158.659,99.1046,93.3754,0.00183071,0.0731563,21.0016,-314.08,0.528556,0.0,0.0
1880,469.75,19.1855,20.3255,157.473,99.0977,93.2605,0.00176147,0.0734464,21.0019,-314.11,0.538867,0.0,0.0
1890,472.25,19.2691,19.9796,159.139,99.0812,93.0213,0.00199035,0.0737721,21.0024,-314.14,0.560182,0.0,0.0
1900,474.75,19.3184,20.334,157.846,99.0925,93.1292,0.00225714,0.073985,21.0011,-314.17,0.550906,0.0,0.0
1910,477.25,19.2173,20.4544,162.45,99.0672,93.0238,0.00237322,0.0740846,21.0007,-314.2,0.558685,0.0,0.0
1920,479.75,18.8988,20.0377,159.144,99.068,93.6862,0.0022147,0.0738712,21.0013,-314.23,0.495779,0.0,0.0
1930,482.25,19.4934,19.8396,159.647,99.0615,93.2564,0.00192693,0.0733094,21.0022,-314.26,0.536014,0.0,0.0
1940,484.75,19.5548,19.6277,161.041,99.0515,92.1799,0.001943,0.0731945,21.0039,-314.31,0.638171,0.0,0.0
1950,487.25,19.6802,20.307,161.581,99.0402,93.1275,0.00213373,0.0730619,21.0047,-314.33,0.546376,0.0,0.0
1960,489.75,19.7974,20.2027,158.651,99.043,93.3581,0.0021993,0.0730533,21.0049,-314.36,0.524683,0.0,0.0
1970,492.25,19.4916,20.1702,159.068,99.0249,93.4474,0.00218723,0.0728559,21.005,-314.38,0.514571,0.0,0.0
1980,494.75,19.2694,19.9602,157.236,99.0156,92.4503,0.00225665,0.0729224,21.005,-314.4,0.608955,0.0,0.0
1990,497.25,19.6145,20.2141,161.334,99.0084,92.8628,0.00229431,0.0734335,21.0037,-314.441,0.568791,0.0,0.0
2000,499.75,19.6488,20.1224,158.751,98.9867,92.7817,0.00237917,0.0736295,21.0033,-314.471,0.574597,0.0,0.0
2010,502.25,19.1322,19.9991,155.914,98.9867,92.326,0.00240624,0.0737777,21.0031,-314.511,0.618301,0.0,0.0
2020,504.75,18.6217,19.9779,159.061,98.9681,92.3235,0.00227478,0.0737301,21.0031,-314.581,0.616879,0.0,0.0
2030,507.25,19.5328,19.5525,157.912,98.9617,92.1609,0.00212506,0.0738052,21.0015,-314.601,0.631948,0.0,0.0
2040,509.75,19.154,20.4338,162.539,98.9384,92.3441,0.00210273,0.0741941,21.001,-314.651,0.612229,0.0,0.0
2050,512.25,19.4207,20.4149,160.396,98.9456,93.6479,0.00212902,0.0743525,21.0021,-314.641,0.488438,0.0,0.0
2060,514.75,19.5663,19.7485,157.637,98.9231,92.7471,0.00221386,0.0741284,21.0027,-314.671,0.572202,0.0,0.0
2070,517.25,18.7561,20.235,162.425,98.9299,92.1885,0.0022958,0.0741936,21.0026,-314.721,0.62644,0.0,0.0
2080,519.75,19.5067,20.5782,159.01,98.9219,93.0621,0.00242168,0.0745114,21.0024,-314.741,0.542005,0.0,0.0
2090,522.25,19.4737,20.5559,158.157,98.9025,91.5813,0.00263874,0.0744015,21.0024,-314.781,0.682641,0.0,0.0
2100,524.75,19.1252,20.5188,158.13,98.9098,92.7883,0.00275243,0.0742461,21.0024,-314.821,0.567072,0.0,0.0
2110,527.25,18.9269,19.9367,158.195,98.9066,92.9069,0.0026542,0.0739358,21.0024,-314.841,0.555449,0.0,0.0
2120,529.75,19.3842,19.9384,158.766,98.8933,92.3635,0.00247255,0.0736632,21.0024,-314.861,0.606325,0.0,0.0
2130,532.25,19.2632,20.1073,160.033,98.8776,92.1766,0.00239032,0.0737341,21.0024,-314.891,0.622895,0.0,0.0
2140,534.75,18.9806,20.2833,160.168,98.8732,91.8645,0.00253078,0.0738991,21.0024,-314.951,0.652596,0.0,0.0
2150,537.25,19.0012,20.1658,161.068,98.8559,92.5742,0.00279692,0.0738152,21.0024,-315.031,0.582732,0.0,0.0
2160,539.75,19.0564,19.9007,160.502,98.843,92.2198,0.00295325,0.0742573,21.0029,-315.061,0.615625,0.0,0.0
2170,542.25,19.3103,20.1892,161.28,98.818,93.7347,0.00271859,0.0769204,20.9956,-315.081,0.468759,0.0,0.0
2180,544.75,19.046,20.3378,158.647,98.8112,94.0567,0.00225084,0.0850251,20.9803,-315.141,0.437712,0.0,0.0
2190,547.25,19.66,20.1443,156.6,98.7738,93.3638,0.00191158,0.0972426,20.9628,-315.171,0.499973,0.0,0.0
2200,549.75,19.6973,20.4031,156.746,98.7846,93.2132,0.0018819,0.108886,20.9445,-315.251,0.515286,0.0,0.0
2210,552.25,20.1278,20.3417,153.974,98.7428,94.2625,0.00202371,0.1189,20.9289,-315.311,0.412161,0.0,0.0
2220,554.75,20.2146,20.788,152.778,98.7251,92.4717,0.00218314,0.127812,20.9166,-315.381,0.580814,0.0,0.0
2230,557.25,20.3697,21.5769,153.825,98.7001,92.4475,0.00235395,0.138669,20.8978,-315.431,0.580902,0.0,0.0
2240,559.75,21.5576,22.0592,156.005,98.676,91.8789,0.00252189,0.14969,20.8841,-315.582,0.633483,0.0,0.0
2250,562.25,21.5173,22.1841,159.44,98.649,91.5998,0.00271488,0.157247,20.8763,-315.602,0.658063,0.0,0.0
2260,564.75,21.8785,22.9205,154.138,98.6196,92.8978,0.00293458,0.161995,20.8707,-315.792,0.530525,0.0,0.0
2270,567.25,22.0965,23.1868,148.102,98.5923,91.1832,0.00303251,0.169088,20.8616,-315.782,0.693416,0.0,0.0
2280,569.75,22.7401,23.7224,153.575,98.5556,92.0041,0.0030243,0.177713,20.8493,-315.892,0.61057,0.0,0.0
2290,572.25,23.7119,24.4408,154.148,98.5311,92.2939,0.00296629,0.184252,20.8387,-316.032,0.580443,0.0,0.0
2300,574.75,23.7731,24.2768,154.425,98.4856,91.0359,0.00294523,0.191357,20.8282,-316.132,0.698167,0.0,0.0
2310,577.25,23.9832,25.0913,149.767,98.4538,92.4582,0.00281791,0.19905,20.8134,-316.272,0.557697,0.0,0.0
2320,579.75,24.6915,25.3502,148.609,98.4071,91.2614,0.0026365,0.210359,20.7927,-316.312,0.669124,0.0,1.0
2330,582.25,25.0139,25.8945,155.134,98.3814,89.8741,0.00256038,0.221208,20.7769,-316.442,0.802765,0.0,1.0
2340,584.75,25.0253,26.1093,149.415,98.3431,90.5279,0.00270913,0.229834,20.7646,-316.602,0.734987,0.0,1.0
2350,587.25,25.6012,26.7931,155.193,98.3069,88.9487,0.00284951,0.235317,20.7582,-316.753,0.887918,0.0,1.0
2360,589.75,25.7415,27.524,152.623,98.2763,89.0282,0.00291018,0.239249,20.7529,-316.873,0.87723,0.0,0.0
2370,592.25,26.7587,27.5862,144.161,98.2542,88.7083,0.00306133,0.242891,20.7467,-317.013,0.907177,0.0,0.0
2380,594.75,27.4623,28.5829,149.503,98.2248,89.1216,0.00322647,0.246853,20.7429,-317.153,0.863264,0.0,0.0
2390,597.25,27.9501,28.7842,148.28,98.2019,89.8927,0.00326422,0.249143,20.7415,-316.212,0.784728,0.0,0.0
2400,599.75,28.1706,29.2528,149.587,98.1697,90.1561,0.00311014,0.251221,20.7399,-316.632,0.755841,0.0,0.0
2410,602.25,27.8641,29.3017,152.564,98.1439,90.6197,0.00296329,0.25276,20.7403,-316.372,0.707992,0.0,0.0
2420,604.75,29.252,30.569,148.963,98.119,89.4431,0.00296791,0.2524,20.7409,-315.842,0.82173,0.0,0.0
2430,607.25,28.6815,30.2108,151.952,98.1005,89.7243,0.00308182,0.2524,20.7412,-315.902,0.792198,0.0,0.0
2440,609.75,29.3825,30.6964,146.065,98.0751,88.6379,0.00303191,0.251653,20.7432,-317.884,0.898031,0.0,0.0
2450,612.25,29.7397,31.8336,142.724,98.0554,88.388,0.00290745,0.249349,20.749,-317.994,0.921305,0.0,0.0
2460,614.75,29.8767,31.2497,149.044,98.0365,88.4181,0.00291898,0.246605,20.7534,-318.144,0.916575,0.0,0.0
2470,617.25,30.5682,31.9211,146.215,97.9882,88.817,0.00301779,0.244475,20.755,-318.294,0.872247,0.0,0.0
2480,619.75,30.8505,32.3951,149.199,98.0156,88.6877,0.00299801,0.243005,20.7579,-318.354,0.887652,0.0,0.0
2490,622.25,31.142,32.7221,152.505,97.9669,90.0713,0.0029272,0.241085,20.7596,-318.494,0.745835,0.0,0.0
2500,624.75,31.3712,33.0455,146.103,97.9608,88.3436,0.00292244,0.239159,20.7625,-318.624,0.917205,0.0,0.0
2510,627.25,31.5821,33.5227,148.02,97.9423,89.9602,0.00293935,0.236126,20.7671,-318.724,0.754571,0.0,0.0
2520,629.75,31.6891,33.2609,147.811,97.9351,89.9528,0.00300121,0.233561,20.7695,-318.854,0.754646,0.0,0.0
2530,632.25,32.0821,33.872,150.949,97.9318,90.6518,0.00284412,0.231166,20.7719,-318.965,0.685646,0.0,0.0
2540,634.75,32.3151,33.9594,147.779,97.9568,89.6905,0.00262398,0.229088,20.7757,-319.095,0.782528,0.0,0.0
2550,637.25,32.2835,34.1209,147.135,97.962,89.2426,0.00272652,0.226793,20.7784,-319.185,0.827439,0.0,0.0
2560,639.75,31.9337,34.227,147.193,97.9415,89.7058,0.00281377,0.224483,20.7806,-319.285,0.779635,0.0,0.0
2570,642.25,32.6682,34.3104,146.335,97.9371,89.5539,0.00287431,0.222355,20.7816,-319.395,0.794277,0.0,0.0
2580,644.75,32.4522,33.9555,147.393,97.9182,89.5683,0.0029384,0.220582,20.7822,-319.515,0.791134,0.0,0.0
2590,647.25,32.3061,34.4222,152.299,97.9093,90.8654,0.00293663,0.218213,20.7849,-319.625,0.662708,0.0,0.0
2600,649.75,32.3969,33.9434,153.325,97.8856,90.0828,0.00287164,0.216097,20.7872,-319.705,0.73733,0.0,0.0
2610,652.25,32.6671,34.694,155.176,97.8803,90.8387,0.00283109,0.214098,20.7897,-319.805,0.662695,0.0,0.0
2620,654.75,33.1369,34.9879,151.287,97.8598,91.105,0.00285305,0.210974,20.7954,-319.895,0.634846,0.0,0.0
2630,657.25,32.3806,34.4825,155.113,97.8775,91.0606,0.00277417,0.207527,20.8003,-319.995,0.640784,0.0,0.0
2640,659.75,32.5901,34.9585,152.824,97.8779,89.8416,0.00271238,0.204266,20.8053,-320.096,0.760439,0.0,0.0
2650,662.25,32.5709,34.6789,147.853,97.8783,90.1989,0.00273774,0.202358,20.8087,-320.196,0.725243,0.0,0.0
2660,664.75,32.3669,34.369,154.437,97.898,90.8642,0.00278101,0.201508,20.8101,-320.276,0.661806,0.0,0.0
2670,667.25,32.3086,34.3482,152.317,97.9053,90.4962,0.00288873,0.199612,20.8137,-320.376,0.698487,0.0,0.0
2680,669.75,32.0439,34.2112,151.942,97.9133,90.9972,0.00286008,0.197476,20.8192,-320.466,0.650213,0.0,0.0
2690,672.25,32.1752,34.3438,151.057,97.9363,91.04,0.00280772,0.194589,20.822,-320.546,0.648117,0.0,0.0
2700,674.75,32.0299,34.1883,150.048,97.9544,91.005,0.0027792,0.193333,20.8231,-320.646,0.653171,0.0,0.0
2710,677.25,31.867,33.9913,148.986,97.9765,90.7567,0.00277492,0.192319,20.8247,-320.736,0.679421,0.0,0.0
2720,679.75,32.0634,34.3565,150.451,98.0071,91.117,0.00285012,0.190143,20.8271,-320.846,0.647032,0.0,0.0
2730,682.25,31.8083,34.055,154.198,98.0248,91.089,0.00296692,0.187808,20.8313,-320.906,0.651363,0.0,0.0
2740,684.75,31.8472,33.9866,153.748,98.0731,91.322,0.00294209,0.185351,20.8354,-320.956,0.633059,0.0,0.0
2750,687.25,31.7199,33.7667,152.432,98.0956,91.2841,0.00271576,0.184205,20.8371,-321.026,0.638781,0.0,0.0
2760,689.75,31.3765,33.6182,152.314,98.1455,91.35,0.00263315,0.183081,20.8407,-321.136,0.636893,0.0,0.0
2770,692.25,31.449,33.7406,150.474,98.1794,91.6632,0.00265937,0.180886,20.8446,-321.197,0.609562,0.0,0.0
2780,694.75,31.5803,33.8026,152.674,98.2204,92.228,0.00259081,0.179634,20.8466,-321.247,0.558748,0.0,0.0
2790,697.25,31.4295,33.5293,156.227,98.2619,92.1305,0.0025234,0.177962,20.8499,-321.347,0.571888,0.0,0.0
2800,699.75,30.4481,32.7419,150.395,98.3206,91.7139,0.00261932,0.176618,20.851,-321.427,0.617422,0.0,0.0
2810,702.25,31.8087,34.041,150.07,98.3383,91.9971,0.00263627,0.176837,20.8511,-321.547,0.591651,0.0,0.0
2820,704.75,30.7232,32.7718,153.804,98.4087,91.5842,0.00263699,0.176416,20.8524,-321.597,0.637934,0.0,0.0
2830,707.25,29.8392,31.603,151.711,98.4595,92.0247,0.00272426,0.175544,20.8531,-321.667,0.599919,0.0,0.0
2840,709.75,30.5602,32.5671,156.798,98.5126,92.2622,0.0028906,0.175016,20.8533,-321.757,0.581825,0.0,0.0
2850,712.25,30.811,32.786,156.42,98.5653,92.0206,0.00288221,0.174834,20.8528,-321.777,0.609852,0.0,0.0
2860,714.75,30.5653,32.6532,151.706,98.6204,92.4536,0.00284141,0.175039,20.8518,-321.887,0.573141,0.0,0.0
2870,717.25,30.6427,32.744,147.559,98.6788,91.5381,0.0028197,0.174882,20.8513,-321.967,0.666726,0.0,0.0
2880,719.75,30.5744,32.5244,154.596,98.7396,92.9419,0.00281791,0.174184,20.8512,-322.027,0.537106,0.0,0.0
2890,722.25,30.4626,32.5704,150.99,98.7971,92.24,0.00287038,0.173361,20.8503,-322.077,0.609564,0.0,0.0
2900,724.75,30.4033,32.6086,152.777,98.8466,92.5224,0.00283221,0.173632,20.8506,-322.177,0.586875,0.0,0.0
2910,727.25,30.0462,32.1518,157.069,98.9239,92.5356,0.00275642,0.172841,20.8527,-322.267,0.592548,0.0,0.0
2920,729.75,29.9619,31.9265,155.295,98.9657,93.2086,0.0027672,0.171675,20.8553,-322.308,0.531975,0.0,0.0
2930,732.25,29.9288,31.9671,151.446,99.0317,92.7471,0.00290087,0.170072,20.858,-322.428,0.581947,0.0,0.0
2940,734.75,30.1084,32.2063,154.284,99.0833,92.7229,0.00296948,0.168698,20.8604,-322.458,0.588887,0.0,0.0
2950,737.25,30.0283,32.0513,155.499,99.1629,92.8538,0.00299993,0.168226,20.8617,-322.528,0.583501,0.0,0.0
2960,739.75,29.6344,31.6581,156.524,99.2136,93.617,0.00299469,0.167197,20.8637,-322.588,0.515378,0.0,0.0
2970,742.25,29.574,31.6143,156.724,99.2752,93.7747,0.00290657,0.166778,20.8655,-322.678,0.505947,0.0,0.0
2980,744.75,29.0227,30.8743,154.701,99.3275,91.8464,0.00286715,0.16736,20.8661,-322.748,0.695042,0.0,0.0
2990,747.25,29.3869,31.3581,155.032,99.3666,94.2234,0.00290536,0.166611,20.8686,-322.778,0.471741,0.0,0.0
3000,749.75,29.8535,31.6111,155.59,99.3935,93.5528,0.00283884,0.164846,20.8726,-322.848,0.537548,0.0,0.0
3010,752.25,29.2969,31.1561,153.138,99.4422,93.6652,0.00275543,0.164457,20.8747,-322.908,0.531239,0.0,0.0
3020,754.75,29.2485,31.1739,155.147,99.4768,93.6907,0.00275912,0.162817,20.8804,-322.978,0.531909,0.0,0.0
3030,757.25,28.9314,30.7578,152.726,99.5131,93.2321,0.00274696,0.160964,20.8831,-323.108,0.578695,0.0,0.0
3040,759.75,29.2828,31.1796,156.769,99.5509,93.6964,0.00273249,0.16054,20.8829,-323.118,0.537968,0.0,0.0
3050,762.25,29.1574,30.9688,155.339,99.5839,93.4556,0.00274739,0.159511,20.8829,-323.198,0.563754,0.0,0.0
3060,764.75,28.9756,30.8009,154.884,99.6358,94.4564,0.00277512,0.158885,20.8829,-323.198,0.473837,0.0,0.0
3070,767.25,28.3197,30.2168,151.959,99.6656,93.5042,0.00269697,0.158569,20.8834,-323.288,0.56642,0.0,0.0
3080,769.75,28.6157,30.2687,156.231,99.7042,93.4729,0.00265421,0.158215,20.8824,-323.348,0.57283,0.0,0.0
3090,772.25,29.3482,31.0736,152.737,99.7324,93.6668,0.00274278,0.15752,20.8828,-323.439,0.556945,0.0,0.0
3100,774.75,28.3907,30.2124,155.086,99.7751,94.1118,0.00277444,0.156614,20.8839,-323.499,0.518671,0.0,0.0
3110,777.25,28.0379,29.7293,153.713,99.8028,94.3424,0.00265559,0.15547,20.886,-323.499,0.499424,0.0,0.0
3120,779.75,28.4539,30.1928,154.525,99.8403,94.0052,0.00274405,0.153604,20.8889,-323.549,0.534531,0.0,0.0
3130,782.25,28.1445,29.9377,160.473,99.8543,93.61,0.00295565,0.153023,20.89,-323.609,0.573176,0.0,0.0
3140,784.75,27.9136,29.7587,154.019,99.8898,93.7874,0.00297481,0.152664,20.8903,-323.689,0.559516,0.0,0.0
3150,787.25,28.4045,30.1901,152.389,99.9079,94.7783,0.00288384,0.152873,20.8892,-323.729,0.46784,0.0,0.0
3160,789.75,28.3361,29.9204,154.251,99.9272,94.3078,0.00289567,0.152881,20.888,-323.759,0.513732,0.0,0.0
3170,792.25,28.2745,29.8423,154.383,99.9336,94.7639,0.0028945,0.152942,20.8879,-323.799,0.471477,0.0,0.0
3180,794.75,27.7926,29.9772,157.114,99.9525,94.5387,0.00295158,0.153617,20.887,-323.879,0.494274,0.0,0.0
3190,797.25,28.1746,29.7681,150.969,99.9582,94.1073,0.00291744,0.155406,20.8843,-323.959,0.535373,0.0,0.0
3200,799.75,27.7449,29.4941,154.937,99.9538,94.2683,0.00289257,0.156706,20.8823,-323.989,0.519812,0.0,0.0
3210,802.25,28.1995,29.8848,152.648,99.9682,94.1826,0.00279156,0.156047,20.8831,-324.039,0.529164,0.0,0.0
3220,804.75,28.163,29.6694,152.16,99.9638,94.0777,0.00268019,0.154874,20.8838,-324.109,0.538669,0.0,0.0
3230,807.25,27.8997,29.447,154.755,99.9606,94.1287,0.00268653,0.153459,20.8851,-324.159,0.533568,0.0,0.0
3240,809.75,27.6307,29.3574,157.022,99.9493,94.6758,0.00276338,0.152855,20.8843,-324.219,0.481127,0.0,0.0
3250,812.25,27.5605,29.1218,158.475,99.9409,95.0764,0.00283223,0.153756,20.8803,-324.259,0.442902,0.0,0.0
3260,814.75,27.601,28.9381,149.233,99.9195,94.8853,0.00286926,0.154739,20.8776,-324.319,0.458859,0.0,0.0
3270,817.25,27.5028,29.1289,155.947,99.9163,94.684,0.00275848,0.154708,20.8765,-324.359,0.477423,0.0,0.0
3280,819.75,27.9051,29.3999,156.809,99.8885,94.5844,0.00269862,0.153989,20.8775,-324.399,0.4843,0.0,0.0
3290,822.25,27.0405,28.5496,155.665,99.8845,94.3584,0.00273834,0.153574,20.8779,-324.439,0.505178,0.0,0.0
3300,824.75,27.3125,28.7914,153.784,99.8725,94.4305,0.00283572,0.152777,20.8794,-324.509,0.49733,0.0,0.0
3310,827.25,27.0145,28.5873,150.865,99.858,94.6173,0.00278787,0.150535,20.8835,-324.56,0.478492,0.0,0.0
3320,829.75,27.6884,29.045,155.262,99.8539,95.3983,0.00278259,0.148012,20.8861,-324.59,0.405176,0.0,0.0
3330,832.25,27.2459,28.6949,157.576,99.837,94.5482,0.00290829,0.146509,20.8871,-324.64,0.483122,0.0,0.0
3340,834.75,26.926,28.4477,156.037,99.8225,94.9438,0.00297356,0.145808,20.8874,-324.69,0.444772,0.0,0.0
3350,837.25,27.3934,28.8783,161.628,99.8,95.5481,0.00284215,0.144989,20.8875,-324.74,0.386449,0.0,0.0
3360,839.75,26.8016,28.1623,153.934,99.7932,94.889,0.00259216,0.144068,20.8875,-324.77,0.447279,0.0,0.0
3370,842.25,26.9246,28.2851,153.305,99.7791,95.2196,0.00259581,0.143452,20.8891,-324.82,0.415158,0.0,0.0
3380,844.75,26.8824,28.3876,155.983,99.7751,95.269,0.00290637,0.143053,20.8915,-324.86,0.410197,0.0,0.0
3390,847.25,26.6334,28.1118,158.362,99.7578,94.633,0.00321567,0.142437,20.8937,-324.91,0.468112,0.0,0.0
3400,849.75,26.6207,28.0012,153.2,99.7421,95.4164,0.00324419,0.140759,20.8969,-324.92,0.39354,0.0,0.0
3410,852.25,26.0814,27.4114,162.396,99.7215,95.3732,0.00302852,0.138653,20.8984,-324.97,0.395734,0.0,0.0
3420,854.75,26.4935,27.8711,154.914,99.7243,94.633,0.00287433,0.137866,20.9004,-325.02,0.465141,0.0,0.0
3430,857.25,26.2491,27.6779,158.215,99.7002,94.8129,0.00273562,0.137781,20.9006,-325.04,0.446133,0.0,0.0
3440,859.75,25.9811,27.5071,153.832,99.6789,95.4197,0.00267534,0.137003,20.9018,-325.06,0.387609,0.0,0.0
3450,862.25,26.1725,27.6426,158.523,99.6624,95.2476,0.00267496,0.135937,20.9028,-325.12,0.402161,0.0,0.0
3460,864.75,26.3392,27.8361,157.139,99.6523,95.1159,0.00259492,0.134521,20.9056,-325.14,0.413549,0.0,0.0
3470,867.25,26.3912,27.7043,157.955,99.6362,94.8895,0.00265144,0.132421,20.9088,-325.16,0.433269,0.0,0.0
3480,869.75,26.374,27.8498,154.192,99.6205,95.5889,0.00281731,0.13034,20.9134,-325.2,0.366687,0.0,0.0
3490,872.25,26.214,27.2138,153.946,99.6012,94.7511,0.00283886,0.128771,20.9179,-325.25,0.443098,0.0,0.0
3500,874.75,26.117,27.4138,155.753,99.5895,94.9529,0.00277999,0.127142,20.9204,-325.28,0.423181,0.0,0.0
3510,877.25,25.9038,27.1225,157.857,99.5831,95.6424,0.00268229,0.127174,20.9221,-325.31,0.358383,0.0,0.0
3520,879.75,25.9495,27.3595,155.76,99.561,94.8915,0.00276664,0.126151,20.9236,-325.32,0.42637,0.0,0.0
3530,882.25,25.4155,26.5939,157.746,99.5513,95.3234,0.00285564,0.124918,20.9257,-325.36,0.385207,0.0,0.0
3540,884.75,25.8164,26.8676,154.498,99.53,95.3723,0.00285788,0.123876,20.9279,-325.41,0.378744,0.0,0.0
3550,887.25,25.9292,27.1599,159.357,99.5328,95.5065,0.00278629,0.122609,20.93,-325.45,0.366514,0.0,0.0
3560,889.75,25.6202,26.7788,158.823,99.5131,95.1356,0.00266227,0.121814,20.9309,-325.48,0.399294,0.0,0.0
3570,892.25,25.2282,26.2739,161.009,99.5102,95.2645,0.00262363,0.121391,20.9314,-325.5,0.387028,0.0,0.0
3580,894.75,25.7149,26.9097,158.881,99.4616,95.4954,0.00261897,0.120928,20.9329,-325.53,0.361192,0.0,0.0
3590,897.25,25.45,26.6617,162.188,99.4595,95.1253,0.00250896,0.120475,20.9342,-325.56,0.395478,0.0,0.0
3600,899.75,25.3846,26.6401,152.099,99.4459,94.7857,0.00243697,0.120249,20.9345,-325.59,0.426003,0.0,0.0
3610,902.25,25.2931,26.6347,159.891,99.4281,95.4312,0.00252079,0.120644,20.934,-325.641,0.364182,0.0,0.0
3620,904.75,24.8998,25.9869,156.334,99.4084,96.0722,0.00279515,0.120808,20.9338,-325.661,0.303005,0.0,0.0
3630,907.25,25.0291,26.2715,156.576,99.396,95.9746,0.0028546,0.120727,20.9337,-325.671,0.310909,0.0,0.0
3640,909.75,24.7633,26.0286,156.46,99.3799,95.3913,0.00280789,0.120398,20.9342,-325.671,0.363585,0.0,0.0
3650,912.25,24.8847,26.1135,154.295,99.3686,95.3485,0.00295699,0.119142,20.9358,-325.711,0.366563,0.0,0.0
3660,914.75,25.0517,26.1294,156.946,99.377,94.9524,0.00301254,0.117062,20.9392,-325.761,0.40426,0.0,0.0
3670,917.25,24.8575,25.943,154.682,99.3795,95.3489,0.00290924,0.114404,20.9438,-325.781,0.367495,0.0,0.0
3680,919.75,24.8538,26.0163,157.872,99.3976,95.0253,0.00268464,0.112499,20.9464,-325.801,0.399285,0.0,0.0
3690,922.25,25.2813,26.1386,154.656,99.4012,94.8067,0.00246911,0.111281,20.9488,-325.841,0.42005,0.0,0.0
3700,924.75,24.4177,25.4358,156.31,99.4286,95.5477,0.00240508,0.109963,20.9496,-325.861,0.353389,0.0,0.0
3710,927.25,23.9007,25.0835,157.599,99.437,95.5555,0.00241746,0.109477,20.9499,-325.901,0.353417,0.0,0.0
3720,929.75,24.3701,25.5346,159.484,99.4632,95.3987,0.00245757,0.109646,20.949,-325.921,0.370333,0.0,0.0
3730,932.25,24.4351,25.5181,155.784,99.4821,95.7371,0.00255574,0.111976,20.9449,-325.921,0.340592,0.0,0.0
3740,934.75,25.0358,26.1679,157.437,99.5247,95.4308,0.00279941,0.116977,20.9408,-325.951,0.372838,0.0,0.0
3750,937.25,24.6874,25.7022,160.164,99.5602,95.8503,0.00317239,0.120196,20.9373,-325.981,0.337065,0.0,0.0
3760,939.75,24.754,25.66,153.594,99.5948,95.0216,0.00338757,0.120009,20.939,-326.011,0.417223,0.0,0.0
3770,942.25,24.479,25.5031,160.055,99.6173,95.7857,0.00326178,0.118008,20.9412,-325.991,0.348147,0.0,0.0
3780,944.75,24.0678,25.6116,158.319,99.6418,95.8351,0.00308673,0.1148,20.9451,-326.031,0.345756,0.0,0.0
3790,947.25,24.188,25.2153,157.588,99.6765,95.8997,0.00298084,0.111955,20.9484,-326.061,0.342855,0.0,0.0
3800,949.75,23.9419,25.5991,154.068,99.693,95.7334,0.00301263,0.109811,20.9508,-326.121,0.359731,0.0,0.0
3810,952.25,24.9709,25.9326,151.977,99.7372,95.6597,0.00306483,0.108056,20.9533,-326.111,0.370507,0.0,0.0
3820,954.75,24.0474,24.8951,155.334,99.7626,95.5893,0.00298879,0.106702,20.9545,-326.121,0.379297,0.0,0.0
3830,957.25,23.8346,24.8968,157.304,99.8089,95.7638,0.00279956,0.105055,20.9571,-326.131,0.367221,0.0,0.0
3840,959.75,23.8427,24.8973,155.386,99.8274,95.7729,0.0025987,0.103822,20.9586,-326.171,0.368027,0.0,0.0
3850,962.25,23.9153,24.8886,156.005,99.8652,96.4418,0.00258608,0.103273,20.9592,-326.221,0.309608,0.0,0.0
3860,964.75,24.1875,25.1258,155.283,99.8982,95.5033,0.00270229,0.103216,20.9594,-326.241,0.399348,0.0,0.0
3870,967.25,23.7769,24.7998,157.857,99.9304,95.8972,0.00267553,0.102774,20.9599,-326.231,0.365668,0.0,0.0
3880,969.75,23.9693,25.0149,151.697,99.9324,95.9911,0.00272555,0.102175,20.9611,-326.241,0.357164,0.0,0.0
3890,972.25,23.9467,24.8519,156.867,99.9332,96.3303,0.00293109,0.101664,20.9629,-326.231,0.325924,0.0,0.0
3900,974.75,24.2417,25.1029,157.981,99.8926,95.8659,0.00319509,0.100871,20.9638,-326.261,0.365204,0.0,0.0
3910,977.25,24.1036,24.9377,160.212,99.8559,95.8161,0.00326122,0.100809,20.9649,-326.301,0.366562,0.0,0.0
3920,979.75,23.8834,24.9095,156.617,99.7899,95.034,0.00315631,0.0994396,20.9681,-326.301,0.433448,0.0,0.0
3930,982.25,23.9363,24.636,154.731,99.6893,94.8615,0.0030539,0.0978578,20.9706,-326.331,0.440619,0.0,0.0
3940,984.75,23.9991,24.8952,154.371,99.5863,94.8244,0.003159,0.0963602,20.972,-326.361,0.434908,0.0,0.0
3950,987.25,23.9639,24.7225,161.029,99.4446,95.134,0.00330428,0.0953693,20.972,-326.401,0.393343,0.0,0.0
3960,989.75,24.0739,24.8068,155.014,99.2784,95.5806,0.00331689,0.0949776,20.9714,-326.411,0.336919,0.0,0.0
3970,992.25,23.7073,24.9208,159.278,99.0937,95.2801,0.00336988,0.0956054,20.9701,-326.431,0.34834,0.0,0.0
3980,994.75,23.5108,24.4206,157.533,98.9138,94.6877,0.0033236,0.0961364,20.9697,-326.451,0.387569,0.0,0.0
3990,997.25,23.2269,24.107,158.223,98.6889,94.1538,0.00324986,0.0957157,20.9696,-326.471,0.417551,0.0,0.0
4000,999.75,23.8134,24.6024,158.775,98.4756,93.9233,0.00320081,0.0949532,20.9703,-326.481,0.420106,0.0,0.0
4010,1002.25,23.1945,24.3074,157.272,98.2639,94.0855,0.00300914,0.093933,20.9723,-326.471,0.38569,0.0,0.0
4020,1004.75,23.69,24.6,155.332,98.0828,93.9167,0.00286024,0.0936002,20.9735,-326.471,0.385254,0.0,0.0
4030,1007.25,23.4638,24.3664,157.888,97.9451,94.302,0.00294321,0.0939551,20.9741,-326.501,0.336448,0.0,0.0
4040,1009.75,23.3288,24.1741,151.92,97.8361,93.6602,0.00298749,0.0945376,20.9747,-326.531,0.387172,0.0,0.0
4050,1012.25,23.058,23.9775,155.9,97.797,93.6137,0.00294398,0.0948394,20.9749,-326.531,0.38804,0.0,0.0
4060,1014.75,23.4133,23.8851,162.044,97.8481,93.6557,0.00308862,0.0946997,20.9771,-326.541,0.388696,0.0,0.0
4070,1017.25,23.3171,24.1139,158.559,97.9439,93.5845,0.00316937,0.0935894,20.9788,-326.561,0.404133,0.0,0.0
4080,1019.75,23.1544,24.1782,153.095,98.0884,94.3205,0.00312062,0.0925396,20.979,-326.581,0.347677,0.0,0.0
4090,1022.25,23.1384,23.9913,150.097,98.2788,94.0513,0.00300072,0.0922097,20.9789,-326.581,0.390259,0.0,0.0
4100,1024.75,22.9516,23.7942,156.207,98.4961,94.7046,0.00291986,0.0921179,20.9789,-326.591,0.348421,0.0,0.0
4110,1027.25,23.1851,23.8823,160.01,98.7239,94.4778,0.00295494,0.0918022,20.9789,-326.631,0.390209,0.0,0.0
4120,1029.75,23.1681,23.788,157.309,98.8989,94.9701,0.00308629,0.0918444,20.9789,-326.661,0.359799,0.0,0.0
4130,1032.25,22.8216,23.5766,156.531,99.0841,94.3197,0.00315957,0.0916698,20.9789,-326.661,0.437399,0.0,0.0
4140,1034.75,23.0222,23.8692,154.712,99.1899,94.451,0.00317061,0.0915691,20.9789,-326.661,0.434527,0.0,0.0
4150,1037.25,22.8499,23.7047,157.913,99.28,95.2118,0.0031965,0.0918707,20.9789,-326.701,0.371382,0.0,0.0
4160,1039.75,23.1875,24.042,157.643,99.3308,95.5629,0.00299824,0.0925532,20.9776,-326.701,0.343239,0.0,0.0
4170,1042.25,22.9172,23.7537,159.081,99.3304,94.6276,0.00289933,0.0930473,20.9769,-326.711,0.430504,0.0,0.0
4180,1044.75,22.6832,23.1296,160.714,99.2664,94.5721,0.00300556,0.0926649,20.9792,-326.751,0.429999,0.0,0.0
4190,1047.25,22.2655,22.6802,158.075,99.1706,94.7927,0.00307129,0.09189,20.9814,-326.751,0.400745,0.0,0.0
4200,1049.75,22.202,22.895,157.185,99.0833,94.7104,0.00286137,0.0915077,20.9821,-326.741,0.400638,0.0,0.0
4210,1052.25,22.2115,22.7774,159.734,99.0189,94.9207,0.00268817,0.0916295,20.9824,-326.751,0.375175,0.0,0.0
4220,1054.75,22.1887,23.0012,158.341,99.4056,95.0862,0.00281346,0.0916882,20.9825,-326.762,0.394314,0.0,0.0
4230,1057.25,22.1503,22.9325,156.81,99.6837,95.4024,0.0029918,0.0910156,20.9837,-326.762,0.389646,0.0,0.0
4240,1059.75,21.9585,22.6123,158.082,99.7992,95.3995,0.00307144,0.0897298,20.9859,-326.781,0.400194,0.0,0.0
4250,1062.25,21.7049,22.7356,157.253,99.7497,95.6436,0.00315589,0.0885766,20.9875,-326.832,0.373106,0.0,0.0
4260,1064.75,21.3173,22.0288,157.105,99.5481,95.2221,0.0031697,0.0873402,20.9888,-326.802,0.394354,0.0,0.0
4270,1067.25,21.381,22.574,157.499,99.1839,95.3106,0.00311779,0.0862594,20.9893,-326.842,0.353573,0.0,0.0
4280,1069.75,22.043,22.3927,154.417,99.3404,94.4202,0.00301222,0.0853451,20.9913,-326.862,0.450886,0.0,0.0
4290,1072.25,21.8461,22.5802,158.541,99.542,95.0348,0.00297483,0.0844385,20.9921,-326.842,0.411294,0.0,0.0
4300,1074.75,21.5991,22.5467,156.463,99.7678,95.2653,0.00308725,0.0837761,20.9928,-326.862,0.409897,0.0,0.0
4310,1077.25,21.7267,22.7045,160.725,99.9304,96.0314,0.00305275,0.0834368,20.9942,-326.892,0.353256,0.0,0.0
4320,1079.75,22.0153,22.1742,154.376,99.9618,95.9162,0.00287127,0.0835349,20.9932,-326.902,0.366704,0.0,0.0
4330,1082.25,21.4883,22.0077,162.392,99.8366,94.9738,0.00280773,0.0836683,20.9927,-326.922,0.443215,0.0,0.0
4340,1084.75,21.6449,22.249,160.052,99.5919,95.0545,0.00287676,0.0838326,20.9926,-326.942,0.413897,0.0,0.0
4350,1087.25,21.3927,22.2452,160.124,99.2072,94.3308,0.0029626,0.0837438,20.9926,-326.952,0.447379,0.0,0.0
4360,1089.75,21.5046,22.0497,155.685,98.783,94.3831,0.00303186,0.0835935,20.9925,-326.972,0.404427,0.0,0.0
4370,1092.25,21.1982,21.7266,160.16,98.3657,94.3885,0.00301034,0.0836602,20.9925,-326.982,0.366345,0.0,0.0
4380,1094.75,21.3911,22.0952,156.959,98.0353,94.1954,0.00293685,0.0834662,20.9932,-326.982,0.354654,0.0,0.0
4390,1097.25,21.5597,22.3832,159.922,97.8715,93.1687,0.00299167,0.083177,20.9942,-326.982,0.437088,0.0,0.0
4400,1099.75,21.4145,21.6129,160.538,97.8864,93.1312,0.00313244,0.0829712,20.9946,-327.002,0.442008,0.0,0.0
4410,1102.25,20.7655,21.6499,163.121,98.086,93.7072,0.00334215,0.0830066,20.9948,-327.002,0.40537,0.0,0.0
4420,1104.75,21.3396,21.8863,161.715,98.3762,93.5944,0.00344863,0.0830378,20.9953,-327.002,0.442281,0.0,0.0
4430,1107.25,21.5552,22.2744,156.514,98.7198,94.1756,0.00338989,0.0829955,20.996,-327.032,0.418282,0.0,0.0
4440,1109.75,21.2037,21.9837,158.381,99.0193,93.9385,0.00320305,0.0826025,20.9968,-327.022,0.467539,0.0,0.0
4450,1112.25,21.1755,21.8404,154.009,99.2245,94.3642,0.00306734,0.0826679,20.9956,-327.032,0.445789,0.0,0.0
4460,1114.75,20.8678,22.0584,158.638,99.2853,94.8512,0.00315713,0.0829831,20.9941,-327.022,0.405533,0.0,0.0
4470,1117.25,21.2827,21.5917,152.49,99.313,94.6581,0.0032613,0.0834538,20.9927,-327.072,0.426101,0.0,0.0
4480,1119.75,20.7146,21.9446,156.204,99.2402,94.4827,0.00327105,0.0837055,20.9937,-327.112,0.436048,0.0,0.0
4490,1122.25,20.7571,21.6221,161.065,99.0961,94.633,0.00321804,0.0837197,20.994,-327.112,0.409048,0.0,0.0
4500,1124.75,21.7489,21.6944,157.29,98.9987,94.1188,0.00321094,0.08356,20.9941,-327.152,0.448677,0.0,0.0
4510,1127.25,21.124,22.5004,158.261,99.4897,95.1616,0.00321659,0.0834459,20.9942,-327.122,0.394792,0.0,0.0
4520,1129.75,20.711,21.3849,154.828,99.7553,95.3118,0.00317564,0.083564,20.9942,-327.102,0.404453,0.0,0.0
4530,1132.25,21.0975,21.5913,158.327,99.763,94.7059,0.00313217,0.0837382,20.9946,-327.142,0.461746,0.0,0.0
4540,1134.75,21.5574,21.9239,154.928,99.5066,95.0714,0.00317516,0.0833807,20.9959,-327.152,0.404714,0.0,0.0
4550,1137.25,21.1472,21.7757,155.576,99.233,94.7009,0.00318956,0.0831497,20.9955,-327.162,0.414927,0.0,0.0
4560,1139.75,20.6562,21.3424,159.489,99.4583,94.8483,0.00314582,0.0832759,20.994,-327.162,0.42126,0.0,0.0
4570,1142.25,21.3861,22.0993,154.473,99.7195,95.0381,0.00322834,0.0836942,20.9935,-327.162,0.426797,0.0,0.0
4580,1144.75,20.9993,21.6825,157.254,99.9304,95.0467,0.00328109,0.0839878,20.9933,-327.202,0.44474,0.0,0.0
4590,1147.25,21.1097,21.6535,156.199,99.9662,94.9105,0.00320823,0.0840311,20.9919,-327.242,0.460656,0.0,0.0
4600,1149.75,21.1537,22.0094,158.61,99.802,95.4469,0.00302114,0.0843415,20.9912,-327.252,0.396041,0.0,0.0
4610,1152.25,21.4674,22.0837,158.174,99.4463,95.3028,0.00299014,0.0846507,20.991,-327.212,0.377753,0.0,0.0
4620,1154.75,20.8392,21.9768,156.843,98.9778,93.9105,,0.0846934,,-327.252,0.466468,0.0,0.0
4630,1157.25,21.4257,21.4378,157.936,98.4687,93.8644,,,,-327.262,0.425054,0.0,0.0
4640,1159.75,20.9172,21.7897,159.987,98.0743,93.4062,,,,-327.272,0.432864,0.0,0.0
4650,1162.25,21.4664,21.5345,154.64,97.8823,92.9962,,,,-327.292,0.454522,0.0,0.0
4659,1164.5,21.3463,21.5977,159.584,97.9528,93.1815,,,,-327.302,0.443243,0.0,0.0