File: 01_Data/Wool_Rug/Cone/Wool_Rug_Cone_HF25Scan_220323_R3.csv
Names,Time,Stack TC,Smoke TC,Exh Press,Smoke Comp,Smoke Meas,CO Meter,CO2 Meter,O2 Meter,Sample Mass,Ext Coeff,Start Test,Flame Verif
Chan Gain,,500,500,1,1,1,1,1,1,1,1,1.0,1.0
Offset,,0,0,0.138078,0,0,0,0,0,0,0,0.0,0.0
Gain,,1,1,25.011,13.1874,13.4895,1,1,1,1.00089,1.01187,1.0,1.0
Units,sec,C,C,Pa,%,%,%,%,%,g,/m,,
Baseline,,18.8143,19.3877,159.664,98.1833,94.8051,0.000829671,0.067466,21.0057,-836.188,0.310811,,
12,2.75,17.4497,18.4637,156.229,97.824,94.323,0.000684504,0.0702604,21.0084,108.126,0.323487,0.0,0.0
24,5.75,17.1725,18.4845,163.65,97.8167,94.3172,0.000780325,0.069482,21.0086,108.086,0.323371,0.0,0.0
36,8.75,17.4908,18.0061,156.998,97.8389,93.6664,0.000842694,0.0705604,21.0061,108.016,0.386843,0.0,0.0
48,11.75,17.5357,18.3717,158.664,97.8155,93.435,0.00105386,0.0709737,21.0054,107.986,0.406675,0.0,0.0
60,14.75,17.8354,18.074,160.432,97.8252,92.3701,0.00127254,0.0702834,21.0057,107.956,0.509303,0.0,0.0
72,17.75,17.9143,18.1438,157.029,97.8244,91.7896,0.00149363,0.069917,21.0063,107.836,0.565184,0.0,0.0
84,20.75,18.0064,18.4806,159.89,97.8369,91.0005,0.00148862,0.0706618,21.0062,107.826,0.642957,0.0,0.0
96,23.75,18.0405,18.6469,160.013,97.8465,91.6426,0.0016448,0.0718485,21.0045,107.746,0.581415,0.0,0.0
108,26.75,18.5018,18.9074,158.912,97.8461,89.3237,0.00202912,0.0766378,20.9871,107.696,0.808868,0.0,0.0
120,29.75,18.6042,19.3319,142.382,97.8574,90.6584,0.00233897,0.145071,20.8665,107.406,0.67825,0.0,1.0
132,32.75,19.6386,20.3032,144.426,97.861,91.3252,0.00245162,0.227479,20.768,107.206,0.613524,0.0,1.0
144,35.75,20.642,21.3921,153.181,97.865,93.2514,0.00232229,0.248871,20.7482,107.066,0.428624,0.0,0.0
156,38.75,21.9961,22.5244,148.105,97.8771,93.1815,0.0020777,0.231194,20.7765,106.945,0.436384,0.0,0.0
168,41.75,22.8639,23.5568,150.501,97.8795,93.8088,0.0020847,0.196887,20.8335,106.875,0.377041,0.0,0.0
180,44.75,23.1193,23.8227,157.691,97.8888,93.5598,0.0021212,0.162267,20.8859,106.815,0.401478,0.0,0.0
192,47.75,22.9331,23.4897,151.366,97.8928,93.8591,0.00225303,0.1306,20.9303,106.755,0.373496,0.0,0.0
204,50.75,23.1743,23.3619,156.815,97.9077,93.7314,0.00238071,0.108354,20.958,106.725,0.386923,0.0,0.0
216,53.75,22.6126,23.4705,157.194,97.921,92.8591,0.00222305,0.0942614,20.9771,106.715,0.471119,0.0,0.0
228,56.75,22.3878,23.1142,160.625,97.9367,93.4886,0.0018506,0.083752,20.9922,106.655,0.412579,0.0,0.0
240,59.75,22.3831,23.3001,160.412,97.9512,93.6899,0.00168716,0.0777569,21.0003,106.625,0.394799,0.0,0.0
252,62.75,21.7039,23.1526,156.002,97.9733,94.309,0.00162747,0.074335,21.0032,106.615,0.338341,0.0,0.0
264,65.75,21.6681,23.3637,157.056,97.9777,93.6689,0.00158219,0.0723382,21.0043,106.585,0.399196,0.0,0.0
276,68.75,21.4451,22.578,161.625,98.0127,93.4091,0.00150678,0.0711337,21.006,106.595,0.427017,0.0,0.0
288,71.75,21.4438,22.1618,159.777,98.0417,93.773,0.00148775,0.0703383,21.0068,106.585,0.395126,0.0,0.0
300,74.75,20.4727,21.7242,160.629,98.0465,93.9566,0.00172874,0.0698474,21.007,106.565,0.378202,0.0,0.0
312,77.75,20.8125,22.0913,163.726,98.0912,93.9035,0.00177423,0.0700599,21.0073,106.515,0.387263,0.0,0.0
324,80.75,21.0362,21.8848,161.117,98.1186,93.3181,0.00169735,0.0702108,21.0067,106.485,0.445245,0.0,0.0
336,83.75,20.8525,21.3406,157.137,98.162,93.4655,0.00171828,0.0707583,21.0051,106.445,0.435169,0.0,0.0
348,86.75,20.7613,21.2782,160.932,98.2087,94.2238,0.00158884,0.0711326,21.0049,106.405,0.367669,0.0,0.0
360,89.75,20.0379,21.4266,155.947,98.2486,93.2988,0.00155637,0.0716356,21.0042,106.405,0.458838,0.0,0.0
372,92.75,20.7145,20.9071,158.887,98.2916,93.6092,0.00163124,0.0724068,21.0029,106.345,0.433246,0.0,0.0
384,95.75,20.1479,21.423,155.513,98.3415,93.456,0.00185104,0.0735021,21.0004,106.345,0.452284,0.0,0.0
396,98.75,20.1648,21.1429,153.378,98.3902,93.4791,0.00198699,0.0743997,20.9996,106.275,0.45449,0.0,0.0
408,101.75,20.3197,20.9308,157.84,98.4329,93.2943,0.00189129,0.075533,20.9984,106.265,0.475905,0.0,0.0
420,104.75,20.5562,20.8701,153.358,98.4864,93.2815,0.0017768,0.0767226,20.9973,106.255,0.481945,0.0,0.0
432,107.75,20.3698,20.8111,159.699,98.55,93.095,0.001781,0.0772847,20.9973,106.205,0.505436,0.0,0.0
444,110.75,20.2786,20.4773,159.25,98.6088,94.5679,0.00195769,0.0786633,20.9963,106.185,0.371389,0.0,0.0
456,113.75,19.8747,20.4056,157.726,98.6269,94.3819,0.00205589,0.0819388,20.9917,106.105,0.390501,0.0,0.0
468,116.75,19.7993,21.0079,157.081,98.6546,94.6215,0.00199262,0.0862844,20.9834,106.075,0.370496,0.0,0.0
480,119.75,20.1084,20.8091,157.03,98.674,94.7067,0.00192554,0.0919193,20.9758,106.015,0.364244,0.0,0.0
492,122.75,19.9036,21.15,157.653,98.7122,94.5293,0.0019202,0.0997165,20.9615,105.965,0.384327,0.0,0.0
504,125.75,20.257,21.4546,159.407,98.7428,94.7318,0.00194674,0.108569,20.9493,105.884,0.36808,0.0,0.0
516,128.75,20.7611,21.6402,154.035,98.7778,94.2674,0.00209168,0.114324,20.9421,105.814,0.414842,0.0,0.0
528,131.75,20.7885,21.8055,157.205,98.8245,94.8713,0.00210153,0.118119,20.9367,105.734,0.362354,0.0,0.0
540,134.75,21.1716,21.8352,151.602,98.8748,95.0784,0.00202902,0.119559,20.9326,105.674,0.347519,0.0,0.0
552,137.75,21.1325,21.8263,155.763,98.8965,95.2348,0.00198721,0.119615,20.9305,105.604,0.334878,0.0,0.0
564,140.75,21.6459,22.4062,154.346,98.9058,94.7832,0.00205915,0.118726,20.9312,105.554,0.377899,0.0,0.0
576,143.75,21.6729,22.4241,161.66,98.9529,94.8989,0.00215825,0.11663,20.9337,105.474,0.371297,0.0,0.0
588,146.75,21.7591,22.4586,154.8,98.9633,95.4135,0.00217091,0.11322,20.9386,105.404,0.324236,0.0,0.0
600,149.75,21.7823,22.8981,155.118,98.9762,94.703,0.00204513,0.108283,20.9435,105.334,0.391737,0.0,0.0
612,152.75,22.4971,22.1277,157.311,98.9718,94.7129,0.00201919,0.104193,20.9485,105.294,0.390415,0.0,0.0
624,155.75,21.6513,22.6386,160.018,98.9605,94.8063,0.00221828,0.100549,20.9541,105.244,0.38065,0.0,0.0
636,158.75,21.9394,22.5996,160.364,98.9492,94.5305,0.00230774,0.0973543,20.9593,105.164,0.4055,0.0,0.0
648,161.75,21.9376,22.7249,155.988,98.9307,94.5177,0.00222013,0.0945238,20.9646,105.114,0.405038,0.0,0.0
660,164.75,21.6474,22.7529,155.815,98.9146,94.3806,0.00205813,0.0920011,20.967,105.064,0.416477,0.0,0.0
672,167.75,21.8583,22.726,159.305,98.8764,94.9063,0.00211315,0.0913664,20.9676,105.014,0.363742,0.0,0.0
684,170.75,22.172,22.7064,156.759,98.8317,93.9793,0.00207828,0.0917253,20.9678,104.964,0.446862,0.0,0.0
696,173.75,20.9297,23.0122,155.284,98.7726,94.929,0.0019882,0.092062,20.9664,104.904,0.3523,0.0,0.0
708,176.75,21.0854,22.4073,154.873,98.6941,94.4156,0.00206751,0.0923382,20.9658,104.854,0.393374,0.0,0.0
720,179.75,21.2978,22.7864,158.727,98.6124,94.3703,0.00218433,0.0924407,20.9656,104.803,0.390281,0.0,0.0
732,182.75,21.0711,22.4464,157.459,98.5416,94.372,0.00209435,0.0927241,20.9641,104.733,0.383749,0.0,0.0
744,185.75,21.5248,22.0882,157.639,98.4478,93.8253,0.00197475,0.0934685,20.9628,104.673,0.426867,0.0,0.0
756,188.75,21.7056,22.2023,155.408,98.3516,94.9841,0.00196406,0.0938798,20.9614,104.593,0.309233,0.0,0.0
768,191.75,21.0939,22.3905,156.305,98.2538,94.1233,0.00194801,0.0942028,20.9601,104.523,0.38121,0.0,0.0
780,194.75,21.3892,22.5191,158.576,98.1697,94.1196,0.00178895,0.0945996,20.959,104.483,0.373956,0.0,0.0
792,197.75,21.3819,22.5088,158.881,98.0856,93.547,0.00166288,0.0947824,20.9587,104.433,0.420515,0.0,0.0
804,200.75,21.1434,22.2462,154.173,98.0075,94.0324,0.00173846,0.0949541,20.9599,104.383,0.367514,0.0,0.0
816,203.75,21.8294,22.5094,155.085,97.9508,94.1814,0.00190683,0.0951458,20.9601,104.323,0.348318,0.0,0.0
828,206.75,21.1316,22.6143,155.725,97.8936,93.9406,0.0020421,0.0953056,20.9602,104.283,0.365863,0.0,0.0
840,209.75,21.4464,22.543,159.094,97.8518,94.6231,0.00196449,0.0956615,20.9615,104.223,0.29781,0.0,0.0
852,212.75,21.7358,22.7517,156.118,97.832,93.8661,0.00184948,0.0959086,20.9623,104.173,0.367321,0.0,0.0
864,215.75,21.1896,22.1877,158.378,97.8256,93.4317,0.001715,0.0967282,20.9617,104.093,0.407901,0.0,0.0
876,218.75,21.0856,22.8741,164.466,97.855,93.8335,0.00147822,0.0975868,20.9606,104.023,0.372479,0.0,0.0
888,221.75,21.1172,22.4213,157.746,97.9069,93.4433,0.00159721,0.0978854,20.9611,103.973,0.41418,0.0,0.0
900,224.75,21.3747,21.8928,157.799,98.0139,94.2979,0.00168349,0.0974676,20.9617,103.903,0.343068,0.0,0.0
912,227.75,20.7959,22.6817,154.618,98.1206,94.0365,0.00161371,0.0965205,20.9638,103.863,0.377361,0.0,0.0
924,230.75,21.6998,22.5886,158.783,98.2679,93.9974,0.00167256,0.0960225,20.9647,103.803,0.394369,0.0,0.0
936,233.75,22.0332,22.6676,155.322,98.4257,94.204,0.00161888,0.096164,20.965,103.723,0.389114,0.0,0.0
948,236.75,21.2252,22.2521,160.883,98.614,94.3831,0.00142048,0.0961274,20.9646,103.672,0.389226,0.0,0.0
960,239.75,21.7837,22.5985,155.604,98.779,94.0912,0.00133019,0.0960062,20.9643,103.602,0.431556,0.0,0.0
972,242.75,21.7582,22.7,156.866,98.9468,94.6952,0.00138913,0.0958433,20.9643,103.552,0.389836,0.0,0.0
984,245.75,21.2056,22.1309,157.095,99.1002,94.0962,0.00134499,0.0957265,20.9643,103.482,0.459902,0.0,0.0
996,248.75,21.5961,22.7665,154.537,99.1992,94.7421,0.00147577,0.0957305,20.9647,103.422,0.408045,0.0,0.0
1008,251.75,21.8577,23.0567,154.169,99.2466,95.1208,0.00165407,0.0957729,20.965,103.362,0.376882,0.0,0.0
1020,254.75,21.7599,22.9922,157.46,99.2724,94.5272,0.00153853,0.0958515,20.9651,103.302,0.434751,0.0,0.0
1032,257.75,21.9709,23.1289,156.469,99.2845,94.8528,0.0014148,0.0956549,20.9662,103.232,0.405307,0.0,0.0
1044,260.75,22.0389,22.702,154.145,99.2487,95.6659,0.00135166,0.0955262,20.9669,103.172,0.326346,0.0,0.0
1056,263.75,21.6703,22.7287,158.291,99.177,94.8339,0.00136833,0.094963,20.9684,103.102,0.397468,0.0,0.0
1068,266.75,21.8989,22.9541,158.412,99.0881,95.1459,0.00144601,0.0948036,20.9688,103.042,0.360346,0.0,0.0
1080,269.75,21.8316,22.9898,153.564,99.0012,94.4572,0.00147019,0.0945401,20.9686,103.002,0.417039,0.0,0.0
1092,272.75,22.1888,23.2209,161.886,99.1923,94.8059,0.00146017,0.0944169,20.9684,102.942,0.401456,0.0,0.0
1104,275.75,21.8233,23.3705,157.717,99.5251,93.2156,0.00159294,0.0921537,20.9733,102.892,0.581339,0.0,0.0
1116,278.75,21.7147,22.8231,155.344,99.726,93.2572,0.00176095,0.0848865,20.9846,102.842,0.595272,0.0,0.0
1128,281.75,21.3403,22.9334,159.943,99.7735,94.1765,0.00171463,0.0800152,20.9913,102.782,0.512434,0.0,0.0
1140,284.75,21.3167,22.3905,159.365,99.6628,93.4486,0.00168731,0.0778337,20.995,102.722,0.571446,0.0,0.0
1152,287.75,21.3953,22.4675,158.371,99.3561,93.2,0.00183732,0.076244,20.9975,102.632,0.567741,0.0,0.0
1164,290.75,21.362,22.3086,159.636,99.2527,93.3511,0.00176688,0.0749595,20.9998,102.582,0.54412,0.0,0.0
1176,293.75,21.0876,22.1693,155.826,99.4438,93.9784,0.00149411,0.0740073,21.0031,102.541,0.501746,0.0,0.0
1188,296.75,20.7578,22.0911,156.376,99.6712,93.9743,0.00126001,0.0734717,21.0043,102.501,0.522406,0.0,0.0
1200,299.75,21.2756,22.1315,161.01,99.8777,93.7845,0.00119324,0.0733168,21.0047,102.421,0.558716,0.0,0.0
1212,302.75,21.0133,21.9149,158.375,99.9666,94.5667,0.00110997,0.0735387,21.0054,102.381,0.492898,0.0,0.0
1224,305.75,20.7074,21.7969,158.097,99.9051,93.6195,0.00106364,0.0754217,21.0039,102.321,0.576785,0.0,0.0
1236,308.75,20.8094,22.0989,159.429,99.6958,94.7157,0.00123002,0.0764693,21.0019,102.311,0.454839,0.0,0.0
1248,311.75,20.7958,21.8961,154.567,99.3577,94.1287,0.00127758,0.0773162,21.0004,102.231,0.479874,0.0,0.0
1260,314.75,20.7276,21.9491,157.436,98.9392,93.3181,0.00133216,0.0798005,20.9991,102.181,0.51917,0.0,0.0
1272,317.75,20.0188,21.3662,162.971,98.4756,93.1679,0.00125604,0.0809454,20.9977,102.121,0.491783,0.0,0.0
1284,320.75,20.4355,21.8965,157.074,98.1162,92.8538,0.0014488,0.080531,20.9972,102.101,0.489305,0.0,0.0
1296,323.75,20.3671,21.3812,159.436,97.9194,91.6809,0.00157854,0.0793497,20.9984,102.071,0.584313,0.0,0.0
1308,326.75,20.5103,21.4622,157.279,97.892,91.641,0.00157509,0.0777708,21.0016,102.011,0.585699,0.0,0.0
1320,329.75,20.5216,21.3068,158.039,98.0675,92.1745,0.00156755,0.0765202,21.0023,101.971,0.550068,0.0,0.0
1332,332.75,20.6857,21.4466,158.001,98.3601,93.1819,0.00161864,0.0774301,20.9999,101.911,0.480033,0.0,0.0
1344,335.75,20.4454,20.9958,158.629,98.7154,93.3457,0.00157042,0.0776645,20.9989,101.861,0.49645,0.0,0.0
1356,338.75,20.3429,21.4116,156.46,99.0313,93.0621,0.00155508,0.0776481,20.9992,101.801,0.551823,0.0,0.0
1368,341.75,20.3417,21.5575,152.972,99.2233,93.8796,0.00148773,0.0787437,20.9985,101.751,0.491375,0.0,0.0
1380,344.75,21.2529,21.0574,155.138,99.2446,94.8252,0.00128931,0.0804956,20.9969,101.711,0.404325,0.0,0.0
1392,347.75,20.5128,21.3041,159.007,99.2136,94.3415,0.00130973,0.0814062,20.9958,101.661,0.446947,0.0,0.0
1404,350.75,20.4629,21.7862,154.75,99.1046,93.6862,0.00124423,0.0827433,20.9942,101.601,0.49906,0.0,0.0
1416,353.75,21.3605,21.9287,158.549,98.9758,93.9175,0.00125878,0.0837417,20.9934,101.561,0.465627,0.0,0.0
1428,356.75,20.4445,21.5767,153.958,99.2483,94.0896,0.00128982,0.0832702,20.9939,101.531,0.473778,0.0,0.0
1440,359.75,20.8894,21.4456,155.107,99.6539,94.0283,0.00148718,0.0828489,20.995,101.451,0.515773,0.0,0.0
1452,362.75,20.9566,21.4824,156.978,99.757,94.3107,0.00158624,0.0836308,20.9936,101.43,0.498326,0.0,0.0
1464,365.75,20.8345,21.7513,157.114,99.5433,94.3144,0.00147839,0.0839107,20.9927,101.36,0.478942,0.0,0.0
1476,368.75,21.0757,22.0453,161.419,99.2084,93.8821,0.00142921,0.0833236,20.9925,101.33,0.489809,0.0,0.0
1488,371.75,20.8382,22.1822,159.214,99.4624,93.8055,0.00159785,0.0828296,20.9931,101.25,0.519743,0.0,0.0
1500,374.75,21.1874,21.7662,158.486,99.7409,94.9356,0.00153348,0.0823536,20.9943,101.23,0.438275,0.0,0.0
1512,377.75,21.0917,22.0948,158.582,99.9316,94.0888,0.00143499,0.0815141,20.9954,101.16,0.534761,0.0,0.0
1524,380.75,21.1313,22.0099,155.03,99.9252,94.9743,0.00153009,0.0802977,20.9966,101.12,0.451045,0.0,0.0
1536,383.75,21.177,22.236,156.073,99.67,94.5358,0.00148091,0.0803116,20.9969,101.08,0.46942,0.0,0.0
1548,386.75,21.1377,21.9573,156.649,99.2016,93.7998,0.00139235,0.0818653,20.997,101.02,0.496985,0.0,0.0
1560,389.75,21.0008,21.8524,156.327,98.6518,93.654,0.00132873,0.0818801,20.9971,100.98,0.46146,0.0,0.0
1572,392.75,21.2691,22.072,158.342,98.1757,92.9139,0.0012242,0.0810152,20.9971,100.96,0.488949,0.0,0.0
1584,395.75,21.1219,22.3822,157.781,97.9202,92.6273,0.00107614,0.0798363,20.998,100.93,0.493228,0.0,0.0
1596,398.75,21.237,22.2171,159.056,97.9761,92.4376,0.00117932,0.0784503,21.0007,100.9,0.516501,0.0,0.0
1608,401.75,21.055,22.0352,155.026,98.2848,92.9279,0.0013335,0.0777154,21.0015,100.84,0.497467,0.0,0.0
1620,404.75,21.2765,22.146,159.025,98.7303,93.5046,0.00132828,0.0770987,21.0016,100.79,0.482691,0.0,0.0
1632,407.75,21.0216,22.3214,155.854,99.0885,93.8187,0.00125249,0.0763791,21.0013,100.75,0.485068,0.0,0.0
1644,410.75,21.3069,22.2915,156.524,99.2627,93.5692,0.0013233,0.0765954,21.0016,100.73,0.524298,0.0,0.0
1656,413.75,21.374,21.9709,153.742,99.2136,94.2069,0.00137133,0.0772815,21.0017,100.69,0.459622,0.0,0.0
1668,416.75,21.1265,22.019,159.404,99.0965,93.2016,0.00122764,0.0770504,21.0018,100.63,0.544364,0.0,0.0
1680,419.75,21.5274,22.1939,158.746,98.938,93.505,0.00119289,0.0764313,21.0031,100.59,0.501303,0.0,0.0
1692,422.75,21.1659,21.4508,159.312,99.4028,93.7191,0.0014278,0.0758962,21.0038,100.57,0.522609,0.0,0.0
1704,425.75,20.6324,22.1703,160.696,99.7445,94.0694,0.00159543,0.0753608,21.004,100.5,0.519949,0.0,0.0
1716,428.75,21.113,21.7115,155.771,99.536,93.9183,0.00147279,0.0751383,21.0041,100.49,0.515645,0.0,0.0
1728,431.75,20.7281,21.5965,159.607,99.2937,93.2671,0.00149446,0.0753229,21.0038,100.43,0.555779,0.0,0.0
1740,434.75,21.0713,21.9485,157.35,99.6418,94.1806,0.00144098,0.0751536,21.0049,100.38,0.50033,0.0,0.0
1752,437.75,21.1937,22.1601,154.089,99.9489,94.0637,0.00141643,0.0754123,21.0043,100.38,0.538668,0.0,0.0
1764,440.75,21.2062,22.309,154.713,99.9063,93.8282,0.00147411,0.0767137,21.0024,100.36,0.557125,0.0,0.0
1776,443.75,20.7371,21.7751,159.701,99.5155,94.0637,0.00161448,0.0783802,20.9998,100.319,0.500093,0.0,0.0
1788,446.75,21.1737,21.4494,156.75,98.8857,93.2012,0.0015875,0.0786093,21.0007,100.269,0.525494,0.0,0.0
1800,449.75,21.3286,21.8679,154.673,98.2852,92.4079,0.00133944,0.077495,21.0014,100.199,0.547305,0.0,0.0
1812,452.75,21.1373,22.0025,158.498,97.9652,92.2955,0.00114339,0.0781238,20.9999,100.149,0.529165,0.0,0.0
1824,455.75,21.4995,22.1918,155.48,98.028,92.1679,0.00101576,0.0795186,20.9975,100.139,0.547132,0.0,0.0
1836,458.75,20.7235,22.096,157.469,98.391,92.6516,0.00100265,0.079383,20.998,100.129,0.533479,0.0,0.0
1848,461.75,21.1045,22.0242,155.968,98.8305,93.1037,0.00109289,0.0793069,20.9979,100.059,0.52984,0.0,0.0
1860,464.75,21.279,21.9652,156.583,99.1718,93.1975,0.00107341,0.0798054,20.9965,100.069,0.551495,0.0,0.0
1872,467.75,21.2007,22.0399,152.777,99.2909,93.4276,0.00105686,0.0806804,20.9958,100.029,0.54026,0.0,0.0
1884,470.75,21.2832,22.5343,155.086,99.1875,93.279,0.00120335,0.0806799,20.9956,99.9892,0.54514,0.0,0.0
1896,473.75,21.3065,22.2077,158.955,99.0185,93.0028,0.00124848,0.0812226,20.9946,99.9392,0.556324,0.0,0.0
1908,476.75,21.2849,22.3377,156.15,98.8873,93.179,0.00136558,0.0815856,20.9938,99.8891,0.527756,0.0,0.0
1920,479.75,21.4856,22.7699,156.81,99.3026,93.2712,0.00134557,0.0813969,20.995,99.8791,0.556178,0.0,0.0
1932,482.75,22.2049,22.1715,159.471,99.6608,93.8586,0.00124925,0.0821709,20.995,99.8491,0.532407,0.0,0.0
1944,485.75,21.2794,22.3047,157.971,99.6926,93.3972,0.00116534,0.0830956,20.9936,99.799,0.578987,0.0,0.0
1956,488.75,21.3899,22.4819,156.666,99.4249,93.9237,0.00117003,0.0824389,20.9949,99.749,0.505229,0.0,0.0
1968,491.75,21.7981,22.0813,157.256,99.2084,93.4153,0.00132091,0.0832984,20.9946,99.739,0.534055,0.0,0.0
1980,494.75,21.7,22.7313,157.609,99.4229,93.7302,0.00128373,0.085616,20.991,99.6889,0.523353,0.0,0.0
1992,497.75,21.5839,22.264,153.995,99.6503,93.6133,0.00135893,0.0865898,20.9897,99.6389,0.554708,0.0,0.0
2004,500.75,21.4909,22.7719,156.916,99.8592,93.5305,0.00138169,0.0876914,20.9891,99.5989,0.581142,0.0,0.0
2016,503.75,21.6833,22.6977,154.399,99.9441,94.0785,0.00134621,0.087517,20.9886,99.5588,0.536841,0.0,0.0
2028,506.75,21.8975,22.933,157.873,99.9232,93.6824,0.0013756,0.0883436,20.9873,99.5288,0.572425,0.0,0.0
2040,509.75,22.2426,22.7935,158.662,99.759,93.7166,0.00134325,0.0891724,20.9864,99.4687,0.55459,0.0,0.0
2052,512.75,21.995,23.0229,154.256,99.5231,93.7257,0.0014383,0.0897199,20.9856,99.4587,0.532723,0.0,0.0
2064,515.75,22.1603,22.9854,158.542,99.2591,93.4671,0.00151685,0.090104,20.9846,99.4187,0.533664,0.0,0.0
2076,518.75,22.2281,22.7382,159.121,98.9508,93.0946,0.00156817,0.0904263,20.9834,99.3486,0.541504,0.0,0.0
2088,521.75,22.3409,23.0265,159.054,98.6442,92.743,0.00166609,0.0916787,20.983,99.3186,0.547536,0.0,0.0
2100,524.75,22.1957,22.9525,153.677,98.3488,92.7068,0.00165282,0.0925304,20.9834,99.2585,0.524385,0.0,0.0
2112,527.75,22.1876,22.9111,155.322,98.1339,92.4396,0.00163638,0.0914881,20.9836,99.1785,0.530584,0.0,0.0
2124,530.75,21.9036,23.3822,156.811,97.9966,91.9526,0.00144265,0.0904633,20.9836,99.1885,0.565049,0.0,0.0
2136,533.75,22.5507,22.9078,155.566,97.9616,92.1152,0.00146354,0.0905642,20.9837,99.1084,0.546193,0.0,0.0
2148,536.75,22.405,22.974,154.103,98.0268,92.0041,0.00159399,0.0892677,20.9847,99.0884,0.562817,0.0,0.0
2160,539.75,22.0257,23.1155,153.743,98.1637,92.3058,0.00166942,0.090006,20.9834,99.0283,0.546134,0.0,0.0
2172,542.75,22.0944,23.4322,162.028,98.3605,92.1786,0.00149322,0.0913812,20.9813,99.0083,0.576151,0.0,0.0
2184,545.75,22.1203,22.9923,154.587,98.5436,92.762,0.00126314,0.0914856,20.9807,98.9583,0.536665,0.0,0.0
2196,548.75,22.7761,23.3026,160.044,98.7428,92.3412,0.00139414,0.089703,20.9836,98.9483,0.594941,0.0,0.0
2208,551.75,22.0178,23.8474,160.227,98.9347,93.151,0.00151151,0.0898754,20.9846,98.8882,0.534684,0.0,0.0
2220,554.75,22.7675,23.226,159.15,99.0877,92.925,0.00163089,0.090941,20.9849,98.8482,0.569956,0.0,0.0
2232,557.75,22.8206,23.2458,152.02,99.2024,93.2757,0.00164582,0.0910322,20.9839,98.7981,0.546785,0.0,0.0
2244,560.75,22.0579,23.491,157.519,99.2784,93.1024,0.00168229,0.0919512,20.9825,98.7581,0.570096,0.0,0.0
2256,563.75,22.6528,23.5636,156.4,99.303,92.7154,0.00175826,0.092883,20.9809,98.7181,0.609259,0.0,0.0
2268,566.75,22.4609,23.3794,157.898,99.2768,93.1218,0.00178401,0.0924547,20.9816,98.678,0.568107,0.0,0.0
2280,569.75,21.9913,23.7105,156.828,99.2,93.0526,0.00170272,0.0926983,20.981,98.638,0.567826,0.0,0.0
2292,572.75,22.3464,23.8351,161.205,99.1235,93.2041,0.00171803,0.0933666,20.979,98.598,0.546543,0.0,0.0
2304,575.75,22.7741,22.8528,160.365,99.0466,93.6339,0.00173422,0.0933908,20.9782,98.5479,0.498823,0.0,0.0
2316,578.75,22.9545,23.9225,155.294,98.9754,92.8019,0.00160771,0.0935407,20.9776,98.5079,0.571658,0.0,0.0
2328,581.75,22.4364,23.4412,155.463,98.9102,93.0135,0.00137639,0.0946649,20.9752,98.4678,0.545592,0.0,0.0
2340,584.75,22.9482,23.8029,153.722,98.8776,92.6866,0.00127998,0.0951919,20.974,98.4478,0.573914,0.0,0.0
2352,587.75,22.3898,23.1646,152.209,98.8844,92.5174,0.00136474,0.095264,20.9741,98.3778,0.590745,0.0,0.0
2364,590.75,22.9357,23.4651,156.303,99.1323,92.9892,0.00147071,0.095046,20.9741,98.3077,0.567824,0.0,0.0
2376,593.75,23.0208,24.0085,154.889,99.3195,93.0682,0.00146764,0.0953947,20.9737,98.2677,0.577023,0.0,0.0
2388,596.75,22.9354,23.4815,156.925,99.4632,93.1535,0.00144493,0.0959925,20.9715,98.2376,0.581731,0.0,0.0
2400,599.75,22.9637,23.8908,157.861,99.5843,93.4416,0.00156833,0.0972209,20.9688,98.1876,0.565119,0.0,0.0
2412,602.75,22.4542,23.5754,159.259,99.6652,93.3548,0.00186825,0.0976235,20.968,98.1976,0.580581,0.0,0.0
2424,605.75,22.4181,23.4214,157.559,99.7264,93.5627,0.00187786,0.0984387,20.9664,98.1476,0.566283,0.0,0.0
2436,608.75,23.1096,24.156,156.221,99.732,93.6738,0.00154435,0.100614,20.9637,98.1075,0.556247,0.0,0.0
2448,611.75,23.065,24.3716,156.386,99.7223,93.3383,0.00144752,0.102684,20.9615,98.0375,0.587234,0.0,0.0
2460,614.75,23.4127,24.2156,157.908,99.672,93.7475,0.00143155,0.102924,20.9609,98.0074,0.543929,0.0,0.0
2472,617.75,23.0239,23.8104,155.139,99.5984,93.5326,0.0016725,0.10143,20.964,97.9474,0.557736,0.0,0.0
2484,620.75,22.9968,24.4726,161.283,99.4933,93.6701,0.00187359,0.0997159,20.9665,97.8773,0.535332,0.0,0.0
2496,623.75,23.1713,24.0546,157.934,99.3811,93.484,0.00176077,0.09952,20.9673,97.8473,0.542959,0.0,0.0
2508,626.75,22.6705,23.9075,151.275,99.2374,93.1423,0.00159139,0.0995691,20.967,97.8173,0.562619,0.0,0.0
2520,629.75,23.1712,24.145,153.527,99.2185,92.841,0.0015799,0.100211,20.9657,97.7572,0.589691,0.0,0.0
2532,632.75,23.2893,24.4265,155.712,99.2813,92.9357,0.00150163,0.100872,20.9653,97.7072,0.586257,0.0,0.0
2544,635.75,22.9797,23.9719,157.651,99.3424,93.1518,0.00138284,0.10031,20.9652,97.6671,0.571107,0.0,0.0
2556,638.75,23.7262,24.1148,158.298,99.4084,93.1378,0.00138953,0.0995053,20.9667,97.5871,0.578336,0.0,0.0
2568,641.75,22.8595,24.4866,163.04,99.4575,93.6639,0.00157638,0.0990903,20.9685,97.547,0.532721,0.0,0.0
2580,644.75,22.8826,24.7123,152.399,99.5207,93.5104,0.00166935,0.0990307,20.969,97.537,0.552922,0.0,0.0
2592,647.75,23.2569,24.0388,156.819,99.5767,93.1786,0.00167957,0.098702,20.9694,97.507,0.58946,0.0,0.0
2604,650.75,23.4966,24.7347,155.647,99.6551,93.8759,0.00172871,0.0982671,20.9705,97.4369,0.53027,0.0,0.0
2616,653.75,23.3958,24.5644,156.574,99.7256,93.638,0.00183403,0.0974018,20.9719,97.4069,0.559067,0.0,0.0
2628,656.75,24.0948,24.5134,145.373,99.7815,93.6277,0.00172523,0.0970123,20.9713,97.3669,0.565021,0.0,0.0
2640,659.75,22.8655,24.0298,155.983,99.8415,93.3371,0.00168134,0.09806,20.9704,97.3168,0.597948,0.0,0.0
2652,662.75,23.6315,24.472,155.998,99.8918,93.7109,0.00181411,0.0976724,20.971,97.2568,0.566944,0.0,0.0
2664,665.75,23.155,23.9459,154.029,99.9368,93.5837,0.00176957,0.0960425,20.9751,97.2367,0.583005,0.0,0.0
2676,668.75,23.9546,24.6392,155.368,99.9674,93.7796,0.00166564,0.0947777,20.9766,97.1767,0.567155,0.0,0.0
2688,671.75,23.6667,24.1958,155.472,99.9968,94.2234,0.00171587,0.0954205,20.9762,97.1166,0.52786,0.0,0.0
2700,674.75,23.7539,24.7892,156.1,100.015,93.8097,0.00187237,0.0971819,20.9736,97.0866,0.568492,0.0,0.0
2712,677.75,23.2233,24.3104,158.111,100.024,94.0427,0.00166817,0.0989939,20.9711,97.0366,0.547294,0.0,0.0
2724,680.75,23.6724,24.6896,154.651,100.029,93.7775,0.00148736,0.100573,20.9684,96.9865,0.572851,0.0,0.0
2736,683.75,23.4767,24.3324,152.054,100.03,94.1336,0.00142822,0.101331,20.9674,96.9265,0.539247,0.0,0.0
2748,686.75,23.5168,24.5629,156.121,100.024,93.7928,0.00151173,0.101914,20.9659,96.8764,0.570911,0.0,0.0
2760,689.75,23.8331,25.0391,153.152,100.013,93.5647,0.00159199,0.101901,20.9651,96.8664,0.591591,0.0,0.0
2772,692.75,23.6009,24.8131,156.102,99.992,94.1077,0.00157896,0.10157,20.9659,96.8164,0.538336,0.0,0.0
2784,695.75,24.0073,24.1388,159.997,99.9771,94.2567,0.00173206,0.101234,20.9662,96.7663,0.522968,0.0,0.0
2796,698.75,23.5323,24.3682,151.485,99.9457,93.773,0.00190947,0.102294,20.9652,96.7163,0.56585,0.0,0.0
2808,701.75,23.4799,24.6906,162.504,99.9179,93.7117,0.00171895,0.102014,20.9659,96.6662,0.569191,0.0,0.0
2820,704.75,23.7153,24.397,158.444,99.8934,93.4223,0.001486,0.0997991,20.9668,96.6162,0.594463,0.0,0.0
2832,707.75,23.3901,24.533,160.435,99.864,93.2181,0.00155766,0.0998188,20.9661,96.5561,0.611273,0.0,0.0
2844,710.75,23.5692,24.3779,155.204,99.8177,93.5754,0.00159498,0.102086,20.964,96.5361,0.5732,0.0,0.0
2856,713.75,23.149,24.7303,159.561,99.7702,93.6829,0.00158382,0.10131,20.9654,96.4861,0.558791,0.0,0.0
2868,716.75,23.9898,24.5113,156.93,99.73,93.8261,0.00175278,0.100137,20.9671,96.406,0.541646,0.0,0.0
2880,719.75,23.8282,24.0005,156.706,99.693,93.71,0.0020488,0.100144,20.9681,96.386,0.549339,0.0,0.0
2892,722.75,24.0579,24.3073,157.52,99.6378,90.2619,0.00225497,0.0969557,20.9696,96.3159,0.87719,0.0,0.0
2904,725.75,23.6344,24.0548,154.744,99.6117,93.0551,0.00223806,0.100265,20.9636,96.2759,0.604353,0.0,0.0
2916,728.75,22.7408,24.7456,160.703,99.571,92.5043,0.00233332,0.105779,20.9556,96.2359,0.653426,0.0,0.0
2928,731.75,23.1356,24.052,153.57,99.5557,92.0045,0.00227264,0.108711,20.9517,96.1258,0.700146,0.0,0.0
2940,734.75,22.4895,24.7466,161.5,99.5272,91.7707,0.00209579,0.110615,20.9496,96.0957,0.720185,0.0,0.0
2952,737.75,23.4656,23.8179,157.714,99.4881,91.5002,0.0020705,0.111043,20.9485,96.0457,0.742901,0.0,0.0
2964,740.75,23.2549,24.2423,153.571,99.4555,91.8098,0.00187276,0.111454,20.9482,95.9956,0.710012,0.0,0.0
2976,743.75,23.3739,24.0861,155,99.4434,92.0411,0.00167406,0.112082,20.9475,95.9556,0.686596,0.0,0.0
2988,746.75,23.4108,24.6065,154.719,99.4483,91.7069,0.00172598,0.112165,20.9468,95.8955,0.719322,0.0,0.0
3000,749.75,23.7149,24.9436,153.715,99.4418,91.9139,0.00174305,0.115036,20.9439,95.8355,0.698728,0.0,0.0
3012,752.75,23.8815,24.8125,158.12,99.4398,92.0901,0.00155232,0.115715,20.9441,95.7554,0.68155,0.0,0.0
3024,755.75,24.0008,24.8757,159.693,99.4346,92.3511,0.00149428,0.113702,20.948,95.7254,0.655962,0.0,0.0
3036,758.75,23.3811,24.3019,157.114,99.4269,92.6632,0.00171153,0.111189,20.9531,95.6653,0.625338,0.0,0.0
3048,761.75,23.6653,25.1737,155.154,99.4237,91.8168,0.00188368,0.109371,20.9569,95.6353,0.706498,0.0,0.0
3060,764.75,23.4452,25.0381,155.883,99.4233,93.1176,0.00173235,0.106436,20.962,95.5753,0.581588,0.0,0.0
3072,767.75,22.9083,24.5921,157.554,99.433,93.0267,0.00148421,0.101834,20.9677,95.5352,0.591126,0.0,0.0
3084,770.75,23.3942,25.1548,160.767,99.4394,93.0267,0.00141433,0.100343,20.9694,95.4952,0.591702,0.0,0.0
3096,773.75,23.3964,24.991,160.815,99.4455,93.1975,0.00160471,0.0981157,20.973,95.4552,0.575954,0.0,0.0
3108,776.75,23.0797,24.8468,156.25,99.4418,93.3334,0.00174296,0.0949693,20.9781,95.3751,0.562702,0.0,0.0
3120,779.75,23.0518,24.8131,157.38,99.4495,93.1551,0.00179964,0.0943928,20.9771,95.3451,0.580353,0.0,0.0
3132,782.75,23.5773,24.7049,154.554,99.4809,92.8361,0.00178893,0.0958828,20.9762,95.335,0.613605,0.0,0.0
3144,785.75,23.15,24.4549,154.514,99.5014,93.4824,0.00170982,0.0981991,20.9715,95.235,0.553856,0.0,0.0
3156,788.75,23.5222,24.5896,153.391,99.5316,93.1625,0.00172913,0.101023,20.967,95.2249,0.586971,0.0,0.0
3168,791.75,23.5799,24.8389,156.35,99.5598,93.1041,0.00180084,0.103935,20.9643,95.1549,0.595055,0.0,0.0
3180,794.75,23.6932,24.9356,156.212,99.6004,92.4989,0.00177949,0.105905,20.9619,95.0948,0.656558,0.0,0.0
3192,797.75,23.1533,24.4788,152.684,99.6535,92.8056,0.00160323,0.107304,20.9596,95.0148,0.631909,0.0,0.0
3204,800.75,23.8213,24.7583,156.693,99.6757,93.1514,0.00154969,0.108704,20.9579,94.9847,0.600869,0.0,0.0
3216,803.75,23.8708,24.921,153.162,99.7123,92.4339,0.001391,0.10989,20.9559,94.9547,0.672766,0.0,0.0
3228,806.75,23.8657,25.0398,152.489,99.7425,93.3786,0.00139792,0.111006,20.9534,94.8847,0.58519,0.0,0.0
3240,809.75,23.9823,24.7787,157.018,99.7767,92.8427,0.00136844,0.111518,20.9524,94.8446,0.639329,0.0,0.0
3252,812.75,24.2417,24.9549,158.514,99.8125,92.8266,0.00151436,0.112267,20.9505,94.7645,0.64405,0.0,0.0
3264,815.75,24.4566,25.2693,157.801,99.8495,93.1358,0.00174116,0.113269,20.9502,94.7245,0.617828,0.0,0.0
3276,818.75,24.2454,25.4992,156.21,99.8829,92.9612,0.00177689,0.113812,20.9504,94.6344,0.637448,0.0,0.0
3288,821.75,24.1636,25.0248,157.801,99.9324,93.2082,0.00174412,0.113557,20.9505,94.6344,0.618293,0.0,0.0
3300,824.75,24.6151,25.6829,156.624,99.938,93.9784,0.00173156,0.113456,20.9526,94.5644,0.545748,0.0,0.0
3312,827.75,24.6084,25.3214,158.133,99.9715,93.3976,0.00168202,0.113228,20.9543,94.5243,0.603745,0.0,0.0
3324,830.75,24.3144,25.106,154.557,99.9964,93.0575,0.00162219,0.113083,20.9548,94.4543,0.638335,0.0,0.0
3336,833.75,24.3623,25.2792,152.886,100.003,93.2189,0.00159293,0.112864,20.955,94.4142,0.623527,0.0,0.0
3348,836.75,24.2821,25.5585,152.764,100.021,93.1773,0.00148738,0.112297,20.9533,94.3442,0.62913,0.0,0.0
3360,839.75,24.0142,26.0562,153.565,100.036,93.2374,0.00140894,0.112176,20.9529,94.3241,0.624728,0.0,0.0
3372,842.75,24.1659,25.853,158.028,100.047,93.6849,0.00147721,0.112271,20.9528,94.2641,0.583194,0.0,0.0
3384,845.75,24.6271,25.7144,155.708,100.048,92.6562,0.00157413,0.112763,20.9521,94.204,0.68131,0.0,0.0
3396,848.75,24.6883,25.8358,158.28,100.043,93.0699,0.001577,0.11345,20.9508,94.154,0.641264,0.0,0.0
3408,851.75,24.85,25.7047,152.595,100.041,92.9925,0.00154935,0.113647,20.9502,94.0739,0.648541,0.0,0.0
3420,854.75,24.569,25.6034,154.102,100.03,93.2313,0.00153269,0.11342,20.95,94.0639,0.62478,0.0,0.0
3432,857.75,25.0557,26.0792,154.725,100.017,93.0855,0.0016284,0.11264,20.95,94.0039,0.637451,0.0,0.0
3444,860.75,25.5351,26.0784,155.318,100.009,93.2667,0.00153248,0.113239,20.9493,93.9338,0.619517,0.0,0.0
3456,863.75,24.8335,25.815,153.352,99.9944,92.3943,0.00144084,0.113981,20.9481,93.8838,0.701639,0.0,0.0
3468,866.75,24.8143,25.6464,154.766,99.9694,93.5697,0.00148966,0.114536,20.9478,93.8437,0.587228,0.0,0.0
3480,869.75,24.5958,25.6332,154.257,99.9421,93.4717,0.00157975,0.114776,20.9477,93.8037,0.594097,0.0,0.0
3492,872.75,24.5473,25.4864,157.355,99.8853,92.8863,0.00149199,0.114728,20.9486,93.7436,0.644819,0.0,0.0
3504,875.75,24.8385,25.764,153.403,99.8282,92.7706,0.00134977,0.114326,20.9505,93.6936,0.650801,0.0,0.0
3516,878.75,24.5743,26.137,157.358,99.7908,92.522,0.001377,0.114101,20.9503,93.6235,0.671294,0.0,0.0
3528,881.75,25.0752,26.0309,154.994,99.7404,93.1069,0.00136402,0.114189,20.9493,93.5835,0.610875,0.0,0.0
3540,884.75,24.7689,26.0763,157.207,99.6974,91.9563,0.00129225,0.114466,20.949,93.5334,0.717415,0.0,0.0
3552,887.75,24.9364,26.2452,147.428,99.6318,93.1378,0.00132588,0.114465,20.949,93.5034,0.598257,0.0,0.0
3564,890.75,25.063,26.4741,158.974,99.5734,92.7661,0.00147193,0.114141,20.9477,93.4534,0.628554,0.0,0.0
3576,893.75,24.7941,25.9128,158.979,99.5163,92.4791,0.00135808,0.11421,20.9472,93.3833,0.650956,0.0,0.0
3588,896.75,25.0236,25.6562,155.66,99.4446,92.0354,0.00127971,0.114137,20.9475,93.3433,0.68726,0.0,0.0
3600,899.75,24.3673,25.9726,158.548,99.3891,92.2626,0.00138676,0.113925,20.9475,93.2832,0.660412,0.0,0.0
3612,902.75,24.573,26.0452,150.385,99.3299,92.0325,0.00144256,0.113562,20.9475,93.2432,0.677294,0.0,0.0
3624,905.75,24.825,25.9002,155.244,99.2829,92.522,0.00145794,0.113417,20.9475,93.1831,0.626004,0.0,0.0
3636,908.75,24.6838,25.7646,154.57,99.2342,92.2091,0.00153601,0.113445,20.9475,93.1331,0.651714,0.0,0.0
3648,911.75,24.8595,26.0929,155.231,99.2688,92.5339,0.00148249,0.112564,20.9496,93.1031,0.623598,0.0,0.0
3660,914.75,24.9332,25.6504,153.408,99.396,91.9016,0.00144356,0.111456,20.9504,93.033,0.695824,0.0,0.0
3672,917.75,25.2498,25.6513,159.04,99.5107,92.5248,0.0014083,0.110984,20.9515,93.013,0.646068,0.0,0.0
3684,920.75,25.2683,25.703,155.531,99.5847,92.4339,0.00134186,0.111218,20.9529,92.9429,0.661402,0.0,0.0
3696,923.75,24.4174,26.356,153.271,99.6588,92.5882,0.00124997,0.111019,20.9543,92.9229,0.653189,0.0,0.0
3708,926.75,24.6649,26.0057,152.81,99.7066,93.1543,0.00145888,0.109949,20.9556,92.8628,0.603355,0.0,0.0
3720,929.75,24.2602,26.0846,157.685,99.7465,92.9028,0.0015902,0.109642,20.9571,92.8228,0.630899,0.0,0.0
3732,932.75,24.4859,25.78,155.853,99.7698,92.9616,0.00153241,0.109224,20.958,92.7627,0.627353,0.0,0.0
3744,935.75,24.7486,25.4098,164.567,99.7706,93.0637,0.00135338,0.109103,20.9569,92.7227,0.617682,0.0,0.0
3756,938.75,24.6232,25.555,159.141,99.7111,92.9415,0.00134265,0.10877,20.9565,92.6927,0.624051,0.0,0.0
3768,941.75,24.9024,25.5336,155.995,99.6547,92.7863,0.00131099,0.108134,20.9574,92.6426,0.633868,0.0,0.0
3780,944.75,24.114,25.1805,161.764,99.5618,93.1572,0.00124213,0.107382,20.959,92.5926,0.590172,0.0,0.0
3792,947.75,24.2374,26.1945,155.124,99.4527,93.1448,0.0012953,0.107327,20.9598,92.5726,0.581621,0.0,0.0
3804,950.75,24.9135,26.3204,158.172,99.3098,92.5253,0.00132421,0.10699,20.96,92.5225,0.628098,0.0,0.0
3816,953.75,25.0048,26.2758,156.774,99.1513,93.2502,0.00120522,0.106811,20.9601,92.4825,0.54464,0.0,0.0
3828,956.75,24.2275,25.7319,152.674,98.9529,92.2663,0.00104882,0.106646,20.9605,92.4425,0.62101,0.0,0.0
3840,959.75,24.9602,25.2516,155.423,98.9106,92.4882,0.00111528,0.106123,20.9619,92.3724,0.595898,0.0,0.0
3852,962.75,25.1354,25.8495,157.633,98.9263,92.75,0.00117042,0.105774,20.9623,92.3324,0.572215,0.0,0.0
3864,965.75,24.0065,25.6033,154.783,98.9577,92.7784,0.00137813,0.105391,20.9628,92.3224,0.572313,0.0,0.0
3876,968.75,24.8433,25.1982,157.44,98.9883,92.1243,0.00144728,0.105254,20.9629,92.2923,0.637859,0.0,0.0
3888,971.75,23.898,25.2019,156.778,99.0229,91.9609,0.00131123,0.104797,20.9629,92.2223,0.656723,0.0,0.0
3900,974.75,23.9096,24.9975,156.832,99.0684,92.4981,0.00136948,0.10426,20.964,92.2023,0.609095,0.0,0.0
3912,977.75,24.564,25.0444,160.552,99.1203,92.4018,0.00138032,0.103825,20.9639,92.1422,0.622996,0.0,0.0
3924,980.75,24.6271,25.3173,154.448,99.1553,92.8163,0.00132594,0.103789,20.9638,92.1122,0.586397,0.0,0.0
3936,983.75,24.1915,25.4161,156.056,99.1939,92.9238,0.00134816,0.104022,20.9636,92.0721,0.579586,0.0,0.0
3948,986.75,24.1474,25.7558,157.883,99.2189,92.7327,0.00126726,0.103608,20.9637,92.0521,0.600083,0.0,0.0
3960,989.75,24.3027,25.2694,158.538,99.276,93.3906,0.00120045,0.102808,20.9641,92.0021,0.542449,0.0,0.0
3972,992.75,24.4735,25.0007,160.633,99.305,92.9847,0.00126957,0.10271,20.9642,91.972,0.583702,0.0,0.0
3984,995.75,23.995,26.0731,158.168,99.3384,93.0485,0.0013007,0.102593,20.9642,91.8519,0.580598,0.0,0.0
3996,998.75,24.7057,24.5516,151.611,99.3553,92.6072,0.00145775,0.101919,20.9643,91.922,0.624306,0.0,0.0
4008,1001.75,24.0979,25.8306,153.944,99.367,93.6787,0.00168395,0.102034,20.9643,91.872,0.523232,0.0,0.0
4020,1004.75,24.5802,25.4457,153.861,99.3581,93.3618,0.00177253,0.102938,20.9643,91.8119,0.552526,0.0,0.0
4032,1007.75,24.5652,25.6406,156.254,99.3485,92.8916,0.00180833,0.103672,20.9643,91.7719,0.596472,0.0,0.0
4044,1010.75,24.3287,25.0327,151.981,99.3324,93.6499,0.00164364,0.103859,20.964,91.7518,0.522871,0.0,0.0
4056,1013.75,23.538,24.7879,150.776,99.3062,92.8661,0.00124885,0.103241,20.9637,91.7218,0.595135,0.0,0.0
4068,1016.75,24.5844,25.4211,155.354,99.2788,92.8245,0.00112098,0.102375,20.9647,91.6618,0.596663,0.0,0.0
4080,1019.75,24.4281,24.978,158.753,99.2466,93.1823,0.00110002,0.101433,20.9662,91.6618,0.559642,0.0,0.0
4092,1022.75,23.513,24.7161,157.231,99.1943,92.9192,0.00111826,0.101532,20.9658,91.6117,0.580055,0.0,0.0
4104,1025.75,24.4401,24.839,152.682,99.1525,93.4593,0.00121823,0.103786,20.9629,91.5717,0.524864,0.0,0.0
4116,1028.75,24.2103,25.0111,158.178,99.1034,93.1913,0.00121359,0.106278,20.9586,91.5617,0.545956,0.0,0.0
4128,1031.75,24.3068,25.3749,156.785,99.0382,93.039,0.00118862,0.106633,20.9584,91.5317,0.554636,0.0,0.0
4140,1034.75,23.9681,25.2974,157.604,98.9879,92.6166,0.00119991,0.105039,20.9601,91.4916,0.590513,0.0,0.0
4152,1037.75,23.4021,24.8272,154.806,98.9352,92.9472,0.00127881,0.10317,20.9619,91.4516,0.554159,0.0,0.0
4164,1040.75,23.8505,24.7466,156.463,98.8776,93.0267,0.00125421,0.10212,20.9631,91.4416,0.541411,0.0,0.0
4176,1043.75,23.9282,24.8124,154.508,98.8217,93.3045,0.00133145,0.100772,20.9658,91.4015,0.509914,0.0,0.0
4188,1046.75,24.1214,25.0249,155.621,98.7444,93.1238,0.00145947,0.0991338,20.9676,91.3615,0.52018,0.0,0.0
4200,1049.75,23.6434,24.7693,157.141,98.6603,92.8184,0.00132944,0.0983036,20.9681,91.3415,0.541777,0.0,0.0
4212,1052.75,24.0795,25.1522,153.178,98.5786,92.5924,0.00134232,0.0974145,20.9699,91.3115,0.556064,0.0,0.0
4224,1055.75,23.7633,24.7471,155.374,98.5053,92.6459,0.00133473,0.096626,20.9704,91.2814,0.544337,0.0,0.0
4236,1058.75,24.0244,25.2724,153.84,98.4341,92.6953,0.0013064,0.0960086,20.9715,91.2614,0.533185,0.0,0.0
4248,1061.75,23.7948,24.6049,157.444,98.3468,92.6109,0.00135174,0.0955097,20.9734,91.2314,0.533391,0.0,0.0
4260,1064.75,23.4341,25.2974,155.28,98.2651,92.0008,0.00113337,0.0952649,20.9742,91.2014,0.584681,0.0,0.0
4272,1067.75,23.5771,25.1125,159.477,98.1902,92.2169,0.00109364,0.09426,20.9759,91.1413,0.557089,0.0,0.0
4284,1070.75,23.3375,25.2405,157.782,98.1524,92.4956,0.00125037,0.0933727,20.976,91.1413,0.526884,0.0,0.0
4296,1073.75,23.7425,24.3924,157.066,98.0836,92.4318,0.00129704,0.0931348,20.976,91.1213,0.526784,0.0,0.0
4308,1076.75,23.3386,24.4784,156.535,98.0498,92.6208,0.00133667,0.093006,20.9772,91.0913,0.505598,0.0,0.0
4320,1079.75,23.3664,24.2463,152.62,98.0333,92.4746,0.00140723,0.0929138,20.9783,91.0712,0.51812,0.0,0.0
4332,1082.75,23.4854,23.9512,161.667,98.0349,92.2997,0.00136268,0.0925546,20.9783,91.0312,0.535075,0.0,0.0
4344,1085.75,23.7288,24.7883,156.389,98.051,92.107,0.00118929,0.0920697,20.9783,91.0012,0.555079,0.0,0.0
4356,1088.75,23.1229,24.7268,157.343,98.0973,92.7159,0.00110807,0.0919431,20.9781,90.9712,0.500788,0.0,0.0
4368,1091.75,24.1361,24.7904,159.625,98.1608,92.7788,0.00109037,0.0920354,20.9772,90.9411,0.500511,0.0,0.0
4380,1094.75,22.8601,24.2483,157.503,98.2458,92.3651,0.00127391,0.0925856,20.9748,90.9111,0.547856,0.0,0.0
4392,1097.75,23.2468,24.68,157.796,98.3379,92.9452,0.00125915,0.0932792,20.9734,90.9011,0.500612,0.0,0.0
4404,1100.75,23.0168,23.6536,158.373,98.4611,92.7669,0.00125297,0.093817,20.9719,90.8911,0.528759,0.0,0.0
4416,1103.75,23.7079,24.0813,160.658,98.5931,92.9859,0.00137757,0.0946459,20.9713,90.851,0.519721,0.0,0.0
4428,1106.75,22.9672,24.295,156.095,98.7158,92.8558,0.00137593,0.0949776,20.9713,90.821,0.543191,0.0,0.0
4440,1109.75,23.861,24.47,151.647,98.8615,92.9748,0.00135625,0.0946857,20.972,90.791,0.544916,0.0,0.0
4452,1112.75,22.5267,24.1416,153.901,99.0084,92.9703,0.00118743,0.0947624,20.9716,90.751,0.558526,0.0,0.0
4464,1115.75,23.2886,23.8889,157.943,99.1412,93.7673,0.000911609,0.0950841,20.9712,90.741,0.494659,0.0,0.0
4476,1118.75,23.4471,24.0202,152.556,99.2817,93.4367,0.000807745,0.0951236,20.9705,90.7109,0.538572,0.0,0.0
4488,1121.75,23.3443,23.9325,151.543,99.4112,93.2045,0.000838349,0.0950177,20.9715,90.6809,0.572234,0.0,0.0
4500,1124.75,23.5885,24.2234,156.195,99.5191,94.018,0.000980139,0.095267,20.972,90.6509,0.504728,0.0,0.0
4512,1127.75,23.1871,23.8555,157.246,99.6338,93.7479,0.0011571,0.0951599,20.9704,90.6208,0.540483,0.0,0.0
4524,1130.75,23.5079,24.2503,157.231,99.7364,94.4947,0.00128781,0.0952893,20.9694,90.5908,0.479199,0.0,0.0
4536,1133.75,23.4152,24.2226,155.76,99.8258,94.4082,0.00125659,0.09537,20.9695,90.5508,0.49527,0.0,0.0
4548,1136.75,23.4183,24.5779,160.674,99.8869,94.6178,0.00122731,0.0950773,20.9708,90.5608,0.481028,0.0,0.0
4560,1139.75,22.647,23.9416,158.127,99.9501,94.3728,0.00128054,0.0945962,20.9712,90.5208,0.50965,0.0,0.0
4572,1142.75,23.6086,24.5338,160.461,100,94.414,0.00131726,0.0941818,20.9715,90.5107,0.510209,0.0,0.0
4584,1145.75,23.6554,23.6055,160.722,100.022,94.5873,0.0010817,0.0938542,20.9712,90.4607,0.495895,0.0,0.0
4596,1148.75,23.1087,24.0191,156.837,100.041,94.6145,0.000896531,0.0933821,20.971,90.4407,0.494988,0.0,0.0
4608,1151.75,23.1743,24.1269,156.772,100.033,94.9249,0.000880517,0.093052,20.9728,90.4107,0.465274,0.0,0.0
4620,1154.75,23.3806,24.1246,158.294,100.016,94.8149,0.00114624,0.0927129,20.9741,90.3806,0.474021,0.0,0.0
4632,1157.75,23.0376,24.1264,161.978,99.9892,94.6898,0.00153716,0.0926999,20.9745,90.3506,0.483352,0.0,0.0
4644,1160.75,23.2295,24.1807,155.286,99.9618,93.736,0.0015583,0.0928816,20.9746,90.3206,0.570786,0.0,0.0
4656,1163.75,22.9594,24.3462,156.511,99.9002,94.1847,0.0015036,0.0929902,20.9747,90.3006,0.522928,0.0,0.0
4668,1166.75,23.1496,24.0766,158.413,99.8471,93.808,0.00149892,0.0927103,20.9751,90.2805,0.553777,0.0,0.0
4680,1169.75,23.207,23.9239,157.278,99.7867,93.6705,0.00133975,0.0918685,20.9765,90.2605,0.561428,0.0,0.0
4692,1172.75,23.0913,23.8522,162.017,99.7123,93.9348,0.00125409,0.0914676,20.9766,90.2405,0.529795,0.0,0.0
4704,1175.75,23.1372,23.7679,156.992,99.6435,93.7821,0.00115875,0.0913389,20.9764,90.2105,0.538109,0.0,0.0
4716,1178.75,22.6659,23.4085,162.672,99.5706,94.2296,0.00108911,0.0911433,20.9764,90.1704,0.489368,0.0,0.0
4728,1181.75,22.7045,23.839,162.22,99.4909,94.0357,0.00110761,0.0903875,20.9764,90.1704,0.500544,0.0,0.0
4740,1184.75,23.0421,23.8074,155.002,99.4249,94.3053,0.00105867,0.0897876,20.978,90.1504,0.469238,0.0,0.0
4752,1187.75,23.4354,24.2337,155.908,99.3634,93.6652,0.00114334,0.0896474,20.9791,90.1204,0.524196,0.0,0.0
4764,1190.75,22.7576,23.6909,157.33,99.3102,94.1674,0.00124253,0.0889745,20.9805,90.1004,0.471983,0.0,0.0
4776,1193.75,22.9758,23.6655,156.526,99.2583,93.4548,0.00138282,0.0882184,20.981,90.0704,0.534765,0.0,0.0
4788,1196.75,23.1033,23.8913,155.996,99.2796,93.2169,0.00136423,0.0878064,20.9809,90.0403,0.5593,0.0,0.0
4800,1199.75,22.6575,23.9009,157.064,99.3947,93.822,0.00125219,0.0877999,20.9808,90.0203,0.512149,0.0,0.0
4812,1202.75,23.3165,23.8172,159.504,99.532,93.908,0.00122913,0.0873751,20.9807,89.9903,0.51626,0.0,0.0
4824,1205.75,23.1465,23.7788,158.144,99.6185,93.7479,0.00128135,0.0872339,20.9802,89.9903,0.539121,0.0,0.0
4836,1208.75,22.8203,23.7748,158.241,99.7014,94.2518,0.00133146,0.0867623,20.9799,89.9502,0.498925,0.0,0.0
4848,1211.75,22.6967,23.5741,157.986,99.7541,94.5626,0.00127772,0.086322,20.9799,89.9402,0.474397,0.0,0.0
4860,1214.75,22.9625,23.1637,157.412,99.7743,94.0147,0.00108997,0.0860331,20.9798,89.9102,0.527767,0.0,0.0
4872,1217.75,22.4997,23.3908,159.525,99.7899,94.2769,0.000896959,0.0851031,20.9815,89.8902,0.504439,0.0,0.0
4884,1220.75,22.2362,23.5164,151.706,99.7763,94.265,0.00080994,0.0847565,20.984,89.9102,0.504346,0.0,0.0
4896,1223.75,22.7383,23.0454,157.11,99.7453,93.9616,0.000932386,0.0846671,20.985,89.8802,0.530204,0.0,0.0
4908,1226.75,22.5945,23.5462,160.299,99.6793,93.8261,0.00101695,0.0843655,20.9853,89.8602,0.537131,0.0,0.0
4920,1229.75,22.368,23.4772,156.979,99.6084,94.0756,0.00118456,0.0837648,20.9854,89.8401,0.507254,0.0,0.0
4932,1232.75,22.7416,23.4829,153.159,99.505,93.6895,0.00132844,0.0832665,20.986,89.8301,0.53454,0.0,0.0
4944,1235.75,22.0369,23.1343,157.684,99.3835,93.7409,0.00128357,0.082469,20.9884,89.8001,0.518818,0.0,0.0
4956,1238.75,22.633,23.2081,154.361,99.2398,93.2132,0.00107409,0.0816359,20.9902,89.7701,0.55609,0.0,0.0
4968,1241.75,22.2584,22.8306,160.553,99.0784,93.7878,0.00106094,0.080698,20.9913,89.7401,0.487088,0.0,0.0
4980,1244.75,22.4859,23.362,157.229,98.9231,93.799,0.00117011,0.0812412,20.99,89.7601,0.472108,0.0,0.0
4992,1247.75,21.9955,22.8976,157.184,98.9456,93.5054,0.00116655,0.0828207,20.9901,89.7701,0.501949,0.0,0.0
5004,1250.75,22.2979,22.7398,157.838,98.9673,93.384,0.00121874,0.0834807,20.991,89.73,0.515435,0.0,0.0
5016,1253.75,21.6362,22.5459,156.685,99.0076,92.7332,0.00115761,0.0834295,20.9922,89.69,0.581121,0.0,0.0
5028,1256.75,22.2215,23.1325,156.66,99.0329,92.9102,0.00108861,0.0828502,20.9936,89.67,0.566467,0.0,0.0
5040,1259.75,22.3353,22.7985,157.853,99.0853,93.4392,0.00114762,0.0834036,20.9929,89.66,0.520762,0.0,0.0
5052,1262.75,22.3109,22.6152,157.814,99.1122,93.4453,0.00133058,0.0836581,20.9921,89.65,0.52259,0.0,0.0
5064,1265.75,22.0418,22.5792,155.798,99.1505,94.125,0.00141454,0.082546,20.9936,89.63,0.461689,0.0,0.0
5076,1268.75,22.1191,22.4083,158.702,99.1971,93.7821,0.00148457,0.0805939,20.9957,89.5999,0.498264,0.0,0.0
5088,1271.75,21.7927,22.4832,155.906,99.2346,93.8603,0.00141012,0.0785595,20.9974,89.5999,0.494213,0.0,0.0
5100,1274.75,21.8492,22.4867,159.684,99.2603,93.8294,0.00152724,0.0769909,20.9992,89.5699,0.499436,0.0,0.0
5112,1277.75,21.7692,23.1939,158.075,99.3106,93.8986,0.00153165,0.0760232,21.0008,89.5799,0.497393,0.0,0.0
5124,1280.75,22.5998,22.9116,157.556,99.336,94.1723,0.00136755,0.0749966,21.0012,89.5499,0.473819,0.0,0.0
5136,1283.75,21.7144,22.4958,154.015,99.3541,93.3745,0.00114906,0.0747506,21.0013,89.5499,0.550953,0.0,0.0
5148,1286.75,21.9099,22.85,152.49,99.3533,93.5211,0.00108067,0.0751074,21.0014,89.5399,0.536961,0.0,0.0
5160,1289.75,21.6175,22.137,153.53,99.3432,94.1834,0.00106392,0.0750121,21.0022,89.5299,0.473419,0.0,0.0
5172,1292.75,21.9238,23.0228,154.864,99.3215,94.0011,0.000859512,0.0744036,21.0031,89.5199,0.48868,0.0,0.0
5184,1295.75,21.4618,22.6141,157.105,99.2724,94.0262,0.000848508,0.0741682,21.0047,89.5098,0.48192,0.0,0.0
5196,1298.75,22.1441,22.2365,160.8,99.2442,93.7808,0.000914365,0.0739116,21.0037,89.4698,0.502593,0.0,0.0
5208,1301.75,21.4756,22.9806,155.191,99.1686,93.5532,0.0010152,0.0742125,21.0016,89.4798,0.517396,0.0,0.0
5220,1304.75,21.6392,22.6704,158.776,99.0977,93.6409,0.00101296,0.0758491,20.9991,89.4898,0.502738,0.0,0.0
5232,1307.75,21.3429,22.1079,161.251,99.0229,93.2766,0.00106075,0.0760905,21,89.4698,0.530632,0.0,0.0
5244,1310.75,21.7203,22.6515,157.019,98.9307,92.7714,0.00121237,0.0754525,21.0001,89.4598,0.570564,0.0,0.0
5256,1313.75,21.6858,22.8381,160.28,98.8353,93.5408,0.00124682,0.0748644,20.9999,89.4298,0.488692,0.0,0.0
5268,1316.75,21.302,21.8427,156.85,98.7388,92.8381,0.00120666,0.0746009,21.0015,89.4298,0.546945,0.0,0.0
5280,1319.75,20.8448,21.5551,152.327,98.6514,92.8694,0.00114519,0.0741039,21.002,89.3997,0.536101,0.0,0.0
5292,1322.75,20.6205,21.2914,154.242,98.546,93.0374,0.00117482,0.0743116,21.0007,89.4198,0.510571,0.0,0.0
5304,1325.75,21.2472,21.6228,162.568,98.4506,92.8192,0.00125559,0.0742057,21.0001,89.3997,0.522815,0.0,0.0
5316,1328.75,21.1342,21.4947,158.287,98.3496,92.8073,0.00138043,0.0734943,20.9999,89.3597,0.514844,0.0,0.0
5328,1331.75,20.3924,21.4607,161.767,98.2506,92.5932,0.00146046,0.0724174,21.0013,89.3497,0.526402,0.0,0.0
5340,1334.75,20.6674,21.7157,158.48,98.1661,92.9032,0.00144185,0.0711469,21.0029,89.3597,0.489098,0.0,0.0
5352,1337.75,20.7803,21.2803,155.115,98.1158,92.3684,0.00135429,0.0702195,21.0054,89.3597,0.535787,0.0,0.0
5364,1340.75,21.2198,21.8771,159.167,98.0514,92.9015,0.00135274,0.0694925,21.0079,89.3497,0.478878,0.0,0.0
5376,1343.75,20.8294,21.8686,156.602,98.0147,92.7307,0.00130701,0.069282,21.0086,89.3297,0.4919,0.0,0.0
5388,1346.75,20.3703,20.8293,158.094,98.0115,92.515,0.00121601,0.0690816,21.0088,89.3197,0.51228,0.0,0.0
5400,1349.75,20.437,21.2568,156.801,98.0131,92.6101,0.00108788,0.0690157,21.0089,89.3097,0.503307,0.0,0.0
5412,1352.75,20.6341,21.8099,157.42,98.0469,92.1815,0.00111217,0.0690454,21.0094,89.2796,0.547536,0.0,0.0
5424,1355.75,20.5349,21.6321,156.727,98.0973,93.3935,0.00128386,0.0690069,21.0085,89.2696,0.436154,0.0,0.0
5436,1358.75,20.2937,20.7453,153.173,98.1806,92.51,0.00115586,0.0690047,21.0078,89.2796,0.528049,0.0,0.0
5448,1361.75,20.7334,21.8407,154.886,98.2506,92.948,0.00102961,0.0690129,21.0072,89.2596,0.49245,0.0,0.0
5460,1364.75,20.7852,21.5518,158.279,98.3572,92.5253,0.00107511,0.069021,21.007,89.2596,0.542545,0.0,0.0
5472,1367.75,20.6831,21.5164,157.888,98.4695,93.2132,0.00110815,0.068772,21.0069,89.2496,0.486926,0.0,0.0
5484,1370.75,20.9482,21.3134,162.926,98.579,93.3416,0.00100928,0.0687318,21.0069,89.2396,0.484566,0.0,0.0
5496,1373.75,20.5612,21.4613,161.339,98.7255,93.4972,0.000892278,0.0685013,21.0064,89.2396,0.482962,0.0,0.0
5508,1376.75,20.7833,21.1394,162.478,98.8361,93.3181,0.0010078,0.0684557,21.0078,89.1996,0.509921,0.0,0.0
5520,1379.75,20.6898,20.705,160.332,98.9625,93.6491,0.00123959,0.0682442,21.0082,89.2196,0.489838,0.0,0.0
5532,1382.75,20.3746,21.6339,158.125,99.0913,94.0443,0.00111942,0.067971,21.0094,89.2296,0.464003,0.0,0.0
5544,1385.75,20.6579,21.1912,160.489,99.2169,93.7129,0.000974363,0.0680775,21.0106,89.2196,0.506576,0.0,0.0
5556,1388.75,20.9963,21.0039,157.762,99.3702,93.8689,0.000907593,0.068171,21.0118,89.1896,0.505518,0.0,0.0
5568,1391.75,20.0741,21.5032,153.289,99.47,93.8998,0.000800657,0.0681812,21.0104,89.1796,0.511509,0.0,0.0
5580,1394.75,20.0912,21.4334,158.162,99.5754,93.95,0.000864443,0.0680362,21.0105,89.1695,0.516167,0.0,0.0
5592,1397.75,20.1907,21.4319,161.633,99.6636,94.3107,0.000785404,0.0682061,21.0107,89.1695,0.490015,0.0,0.0
5604,1400.75,20.5258,21.0638,155.968,99.7421,94.3436,0.00072369,0.0681208,21.0103,89.1695,0.493902,0.0,0.0
5616,1403.75,20.8969,21.1939,157.306,99.8161,94.3671,0.000871271,0.0682852,21.0107,89.1595,0.498282,0.0,0.0
5628,1406.75,20.4577,21.1093,156.727,99.8813,94.619,0.000872925,0.0682967,21.0113,89.1595,0.480412,0.0,0.0
5640,1409.75,20.6781,21.2828,154.953,99.9284,94.7767,0.000809642,0.0680909,21.0132,89.1395,0.469817,0.0,0.0
5652,1412.75,20.5322,21.2961,155.937,99.9678,94.6219,0.000804518,0.0679201,21.0137,89.1395,0.487828,0.0,0.0
5664,1415.75,20.6416,21.175,157.08,100.01,95.2311,0.00096728,0.0679728,21.0139,89.1295,0.434609,0.0,0.0
5676,1418.75,20.5338,21.6914,157.475,100.027,95.064,0.00108506,0.0678605,21.0139,89.1295,0.451737,0.0,0.0
5688,1421.75,20.5437,21.312,159.61,100.036,94.9183,0.00098794,0.0676496,21.0128,89.1095,0.46614,0.0,0.0
5700,1424.75,20.6114,21.3735,157.538,100.055,94.7816,,0.0676078,,89.0895,0.480607,0.0,0.0
5712,1427.75,20.4298,21.4451,158.405,100.035,94.5906,,,,89.0995,0.496728,0.0,0.0
5724,1430.75,20.6178,21.2633,158.455,100.028,94.8746,,,,89.0795,0.469506,0.0,0.0
5736,1433.75,21.2181,21.3378,162.96,100.017,94.5721,,,,89.0695,0.49686,0.0,0.0
5742,1435.25,20.1952,20.4878,156.129,99.992,94.7001,,,,89.0494,0.482638,0.0,0.0