File: 01_Data/Wool_Rug/Cone/Wool_Rug_Cone_HF75Scan_220324_R3.csv
Names,Time,Stack TC,Smoke TC,Exh Press,Smoke Comp,Smoke Meas,CO Meter,CO2 Meter,O2 Meter,Sample Mass,Ext Coeff,Start Test,Flame Verif
Chan Gain,,500,500,1,1,1,1,1,1,1,1,1.0,1.0
Offset,,0,0,0.129198,0,0,0,0,0,0,0,0.0,0.0
Gain,,1,1,25.011,13.1874,13.4895,1,1,1,1.00089,1.01187,1.0,1.0
Units,sec,C,C,Pa,%,%,%,%,%,g,/m,,
Baseline,,46.7387,48.2848,124.359,99.1133,93.436,0.000592563,0.0698857,20.9899,-836.869,0.523618,,
4,0.75,45.6062,46.8904,122.667,98.9943,91.4245,0.0015659,0.0824236,20.9551,-297.616,0.706087,0.0,0.0
8,1.75,44.1124,45.56,115.18,98.9995,90.4398,0.00218651,0.118093,20.9104,-297.816,0.802676,0.0,0.0
12,2.75,43.8515,45.5442,103.674,99.0032,91.811,0.00308952,0.209238,20.8076,-298.076,0.66943,0.0,1.0
16,3.75,43.9334,45.991,96.5524,99.0012,88.5798,0.0042891,0.323544,20.7036,-298.276,0.987262,0.0,1.0
20,4.75,45.6427,46.7388,94.7197,99.0068,84.7324,0.0055773,0.435957,20.5322,-298.526,1.38192,0.0,1.0
24,5.75,47.5278,48.8903,95.2739,99.0084,82.7013,0.00691143,0.565208,20.3493,-298.757,1.59743,0.0,1.0
28,6.75,49.6691,50.552,92.2437,99.0104,83.9774,0.00811612,0.673894,20.1646,-298.937,1.46169,0.0,1.0
32,7.75,51.3839,52.524,89.7623,99.0096,82.6885,0.00911141,0.756695,20.0311,-299.187,1.59891,0.0,0.0
36,8.75,52.7504,55.6367,94.1122,99.0124,83.9848,0.00986707,0.809267,19.9436,-299.377,1.46108,0.0,0.0
40,9.75,55.5262,57.157,95.8807,99.0225,84.3059,0.0103839,0.835625,19.8906,-299.557,1.42812,0.0,0.0
44,10.75,56.2624,59.2715,98.9582,99.0173,83.3253,0.0106972,0.842563,19.861,-299.747,1.53149,0.0,0.0
48,11.75,58.0264,60.8743,100.444,99.0273,83.4217,0.0108547,0.836822,19.8513,-299.908,1.52214,0.0,0.0
52,12.75,59.0372,62.3117,97.2958,99.0241,83.5884,0.0109226,0.824782,19.8594,-300.078,1.50413,0.0,0.0
56,13.75,60.514,64.0467,100.411,99.037,84.3689,0.0109348,0.807734,19.88,-300.238,1.42279,0.0,0.0
60,14.75,61.3043,65.5819,98.9193,99.037,85.0272,0.0109464,0.786585,19.9063,-300.438,1.3538,0.0,0.0
64,15.75,62.3931,66.8528,102.67,99.037,85.62,0.0109591,0.767359,19.9345,-300.568,1.29213,0.0,0.0
68,16.75,64.0025,67.7193,98.6491,99.0402,83.9927,0.010944,0.748194,19.964,-300.718,1.46275,0.0,0.0
72,17.75,64.6469,68.5642,104.627,99.0502,85.9267,0.0108981,0.731109,19.9881,-300.868,1.26159,0.0,0.0
76,18.75,65.5128,69.7741,100.899,99.049,85.5175,0.0108105,0.71565,20.012,-300.978,1.30385,0.0,0.0
80,19.75,66.0382,70.7772,104.845,99.0567,83.2492,0.0107083,0.699585,20.0357,-301.139,1.54314,0.0,0.0
84,20.75,67.3951,71.9044,102.54,99.0583,84.4722,0.0106068,0.684766,20.0598,-301.299,1.41383,0.0,0.0
88,21.75,68.238,72.4388,103.265,99.0611,84.469,0.0105126,0.668932,20.0845,-301.459,1.41443,0.0,0.0
92,22.75,68.5297,73.3536,103.237,99.0603,83.3015,0.0104252,0.654625,20.1076,-301.629,1.5379,0.0,0.0
96,23.75,69.0915,74.1777,109.767,99.0672,85.0264,0.0103565,0.641417,20.1267,-301.739,1.35659,0.0,0.0
100,24.75,69.831,74.2584,104.353,99.0631,84.7831,0.010309,0.628817,20.1409,-301.909,1.38167,0.0,0.0
104,25.75,70.217,75.5051,103.314,99.0591,85.9621,0.0102664,0.617336,20.1542,-302.019,1.25872,0.0,0.0
108,26.75,71.0341,75.8308,107.42,99.0635,86.3058,0.0101821,0.606664,20.167,-302.17,1.2237,0.0,0.0
112,27.75,71.8331,76.3467,106.944,99.068,83.6526,0.0100247,0.597818,20.1803,-302.33,1.50124,0.0,0.0
116,28.75,71.9013,76.9868,109.525,99.07,84.3636,0.00980733,0.587047,20.1978,-302.42,1.42631,0.0,0.0
120,29.75,72.502,77.4481,107.272,99.074,85.5278,0.00955314,0.575407,20.2166,-302.6,1.30502,0.0,0.0
124,30.75,72.8088,77.6948,106.386,99.0776,84.2965,0.00931431,0.565187,20.2337,-302.71,1.43405,0.0,0.0
128,31.75,73.1307,78.7164,109.958,99.0889,84.7732,0.00900782,0.555409,20.2509,-302.82,1.38501,0.0,0.0
132,32.75,73.0852,78.926,110.799,99.082,85.7151,0.00881848,0.545881,20.2601,-302.99,1.28632,0.0,0.0
136,33.75,73.8303,79.4073,104.796,99.0921,85.1383,0.00861282,0.536713,20.2726,-303.1,1.34715,0.0,0.0
140,34.75,74.1649,79.5909,108.546,99.0909,85.3026,0.00843285,0.527499,20.2846,-303.23,1.32993,0.0,0.0
144,35.75,74.2526,79.7065,107.635,99.0985,85.3446,0.00826658,0.522661,20.2937,-303.341,1.32625,0.0,0.0
148,36.75,74.6884,79.9283,109.543,99.103,85.925,0.00810976,0.515625,20.3045,-303.481,1.26648,0.0,0.0
152,37.75,74.8866,80.6633,108.227,99.1046,85.848,0.00795315,0.507924,20.3172,-303.611,1.27458,0.0,0.0
156,38.75,75.2554,80.6539,106.542,99.1078,86.3564,0.00780342,0.49949,20.3286,-303.691,1.22246,0.0,0.0
160,39.75,75.4133,80.8221,108.784,99.1162,87.3683,0.00767628,0.49103,20.3413,-303.871,1.11981,0.0,0.0
164,40.75,75.5176,81.2918,109.258,99.1211,87.2419,0.00756864,0.482306,20.3545,-303.971,1.13309,0.0,0.0
168,41.75,75.7803,81.7072,108.431,99.1187,86.8348,0.00747101,0.474898,20.3662,-304.071,1.1744,0.0,0.0
172,42.75,75.947,82.072,106.06,99.1235,87.3185,0.00737407,0.468081,20.3768,-304.261,1.12552,0.0,0.0
176,43.75,76.2168,82.2862,108.705,99.1311,88.0805,0.00727795,0.461744,20.3863,-304.372,1.04909,0.0,0.0
180,44.75,76.4084,82.2241,107.355,99.138,87.6602,0.00719678,0.45578,20.3942,-304.432,1.09216,0.0,0.0
184,45.75,76.3327,82.5285,108.661,99.1344,87.3778,0.00711397,0.45044,20.401,-304.572,1.12047,0.0,0.0
188,46.75,76.5763,82.9204,110.332,99.1444,87.4844,0.00705476,0.446067,20.4074,-304.712,1.11055,0.0,0.0
192,47.75,76.9371,82.8456,106.928,99.1424,87.7907,0.00701363,0.442384,20.4121,-304.852,1.07935,0.0,0.0
196,48.75,76.5301,82.588,109.295,99.1621,87.8121,0.00696897,0.439023,20.416,-304.942,1.07895,0.0,0.0
200,49.75,77.1237,83.1042,107.244,99.1633,86.2935,0.00689632,0.435913,20.4226,-305.062,1.23391,0.0,0.0
204,50.75,76.5323,82.9365,109.675,99.1645,87.4091,0.00678984,0.433099,20.4271,-305.182,1.12,0.0,0.0
208,51.75,77.3464,83.4166,110.254,99.1758,87.095,0.00669138,0.430125,20.4307,-305.312,1.15296,0.0,0.0
212,52.75,77.4528,83.623,110.574,99.1706,88.7466,0.00653104,0.426844,20.4356,-305.422,0.985749,0.0,0.0
216,53.75,77.6334,83.6481,107.489,99.1839,87.7314,0.00638712,0.423659,20.4407,-305.543,1.08905,0.0,0.0
220,54.75,77.0565,83.3394,108.991,99.1911,88.7519,0.00625502,0.420871,20.4449,-305.633,0.98705,0.0,0.0
224,55.75,77.2309,83.6372,110.004,99.2024,87.9187,0.00612596,0.418426,20.4484,-305.783,1.07178,0.0,0.0
228,56.75,77.2913,83.7064,104.978,99.2112,87.6898,0.00602544,0.416126,20.4522,-305.873,1.09571,0.0,0.0
232,57.75,77.3969,83.7725,109.045,99.2068,88.1114,0.00596133,0.414202,20.4559,-306.003,1.05275,0.0,0.0
236,58.75,77.5004,83.6193,111.884,99.2132,88.7034,0.00591835,0.411894,20.46,-306.083,0.993889,0.0,0.0
240,59.75,77.8404,83.7687,108.02,99.214,88.9446,0.00588047,0.409091,20.4646,-306.193,0.969854,0.0,0.0
244,60.75,77.4722,84.0871,109.926,99.2281,88.9063,0.00581699,0.406273,20.4698,-306.323,0.974936,0.0,0.0
248,61.75,77.8832,83.9378,110.329,99.2281,89.1607,0.00572537,0.40387,20.4738,-306.433,0.949574,0.0,0.0
252,62.75,77.709,84.3873,110.309,99.233,88.6173,0.00562439,0.401773,20.4779,-306.553,1.00427,0.0,0.0
256,63.75,77.8157,84.0435,109.638,99.2414,88.74,0.00553319,0.399642,20.4822,-306.644,0.992744,0.0,0.0
260,64.75,78.0474,84.384,112.209,99.2515,89.4979,0.00545521,0.397439,20.486,-306.714,0.91816,0.0,0.0
264,65.75,77.4799,84.2197,109.107,99.2478,88.6614,0.00538776,0.395471,20.4886,-306.864,1.00119,0.0,0.0
268,66.75,77.9262,84.2157,111.194,99.2567,89.4127,0.00531404,0.394061,20.4906,-306.954,0.927084,0.0,0.0
272,67.75,77.7269,84.0838,112.145,99.2627,89.0854,0.00524326,0.393229,20.4925,-307.064,0.960171,0.0,0.0
276,68.75,77.433,84.048,109.973,99.2676,88.5774,0.00516972,0.392877,20.4937,-307.174,1.01136,0.0,0.0
280,69.75,77.3635,84.0312,108.861,99.272,89.6979,0.00510497,0.392099,20.4953,-307.294,0.900175,0.0,0.0
284,70.75,77.7063,84.2627,112.238,99.2809,89.4378,0.00504963,0.3908,20.4973,-307.364,0.92675,0.0,0.0
288,71.75,77.847,83.9707,111.831,99.2901,88.3971,0.00500833,0.38925,20.4993,-307.494,1.03146,0.0,0.0
292,72.75,77.5816,84.2231,111.037,99.2921,88.9067,0.00497718,0.387305,20.5007,-307.554,0.980617,0.0,0.0
296,73.75,77.5447,84.3476,110.637,99.3062,89.4213,0.00494542,0.385596,20.5036,-307.674,0.930651,0.0,0.0
300,74.75,77.5659,84.0342,107.768,99.3126,88.7565,0.00492685,0.38354,20.5066,-307.755,0.997466,0.0,0.0
304,75.75,77.5384,84.2928,112.949,99.3139,89.4789,0.00490109,0.381645,20.51,-307.885,0.925615,0.0,0.0
308,76.75,77.4087,84.3832,109.987,99.3231,89.5184,0.00484497,0.379889,20.5139,-307.955,0.922524,0.0,0.0
312,77.75,77.1152,84.2949,114.884,99.3227,89.7955,0.0047411,0.378274,20.5167,-308.035,0.895059,0.0,0.0
316,78.75,77.6083,84.3349,112.408,99.3465,90.5147,0.00461602,0.376897,20.5195,-308.165,0.826374,0.0,0.0
320,79.75,76.9986,83.3592,111.262,99.3469,90.1516,0.00450027,0.375311,20.5221,-308.255,0.862088,0.0,0.0
324,80.75,77.8982,84.8409,108.854,99.3448,91.1585,0.00437166,0.373461,20.5253,-308.355,0.763316,0.0,0.0
328,81.75,77.4281,83.6598,111.273,99.3465,89.7325,0.00426548,0.371674,20.5291,-308.465,0.903409,0.0,0.0
332,82.75,77.2467,83.7146,112.676,99.3605,89.7552,0.00418942,0.369635,20.5324,-308.585,0.902427,0.0,0.0
336,83.75,77.0338,84.1973,111.77,99.3569,90.2035,0.00415009,0.368297,20.5341,-308.665,0.857881,0.0,0.0
340,84.75,77.5257,83.8985,110.428,99.3803,90.7485,0.00412047,0.367514,20.5356,-308.725,0.806495,0.0,0.0
344,85.75,77.1306,83.87,112.208,99.371,89.3558,0.00409879,0.366789,20.5379,-308.836,0.94294,0.0,0.0
348,86.75,77.1828,83.8737,113.338,99.3758,90.6201,0.00408456,0.36607,20.5402,-308.906,0.81867,0.0,0.0
352,87.75,77.3011,84.1889,110.365,99.3883,90.4978,0.00407647,0.364305,20.5429,-308.996,0.831769,0.0,0.0
356,88.75,76.8968,83.2793,112.064,99.3887,89.7399,0.0040702,0.362462,20.5447,-309.076,0.90645,0.0,0.0
360,89.75,76.9636,83.6236,113.626,99.3827,89.6975,0.0040613,0.360495,20.5482,-309.166,0.910107,0.0,0.0
364,90.75,77.3046,83.6816,112.507,99.3911,90.2504,0.00402842,0.35864,20.5512,-309.246,0.856319,0.0,0.0
368,91.75,77.0809,83.5722,108.83,99.3911,90.1611,0.00395956,0.357284,20.5539,-309.376,0.865109,0.0,0.0
372,92.75,77.1026,83.8713,111.026,99.3976,89.6559,0.00387162,0.356061,20.5572,-309.466,0.915552,0.0,0.0
376,93.75,76.9795,83.3445,114.07,99.4044,90.5423,0.00378908,0.354563,20.5597,-309.526,0.828846,0.0,0.0
380,94.75,76.5602,83.487,112.274,99.408,89.9169,0.0037076,0.352883,20.5621,-309.636,0.890685,0.0,0.0
384,95.75,76.7123,83.3251,113.291,99.4149,90.4282,0.00363792,0.351447,20.5643,-309.726,0.840967,0.0,0.0
388,96.75,76.5775,83.315,113.564,99.4133,90.406,0.00359538,0.350338,20.5665,-309.766,0.843006,0.0,0.0
392,97.75,76.491,83.2327,111.132,99.4189,89.7449,0.00358933,0.349121,20.5686,-309.866,0.908657,0.0,0.0
396,98.75,76.3664,83.2783,113.142,99.4261,89.8659,0.003605,0.347911,20.5709,-310.007,0.897342,0.0,0.0
400,99.75,76.4622,83.0014,113.485,99.4197,89.4781,0.00362473,0.346974,20.5727,-310.067,0.935153,0.0,0.0
404,100.75,76.3421,82.896,111.358,99.431,91.0301,0.00364069,0.346209,20.5745,-310.107,0.783523,0.0,0.0
408,101.75,76.288,82.8139,111.143,99.437,90.0511,0.00363542,0.345075,20.5762,-310.237,0.880033,0.0,0.0
412,102.75,76.054,82.835,113.386,99.435,90.4093,0.00363871,0.343655,20.5789,-310.337,0.844622,0.0,0.0
416,103.75,75.8696,83.1245,110.185,99.4591,90.3784,0.00363412,0.342423,20.5809,-310.417,0.849809,0.0,0.0
420,104.75,75.9882,82.668,112.394,99.4438,90.0565,0.00359289,0.341096,20.5835,-310.517,0.880117,0.0,0.0
424,105.75,75.7691,82.7627,111.303,99.4467,90.9198,0.00352335,0.339616,20.5868,-310.587,0.795689,0.0,0.0
428,106.75,75.9835,82.4417,112.306,99.4471,90.9124,0.00342738,0.337775,20.5906,-310.677,0.796448,0.0,0.0
432,107.75,75.8187,82.8035,110.439,99.443,89.6551,0.00333112,0.335831,20.5935,-310.757,0.919693,0.0,0.0
436,108.75,75.7732,82.5732,111.866,99.4559,90.8699,0.00320317,0.334097,20.5961,-310.807,0.801379,0.0,0.0
440,109.75,75.7063,82.3726,115.63,99.4575,90.8012,0.00309696,0.332649,20.5985,-310.907,0.80824,0.0,0.0
444,110.75,75.6237,82.1697,111.769,99.4535,89.8885,0.00300489,0.331262,20.6009,-310.977,0.897549,0.0,0.0
448,111.75,75.8483,82.3328,114.913,99.4579,89.9964,0.00293104,0.329894,20.6039,-311.077,0.8873,0.0,0.0
452,112.75,75.5824,81.7923,112.981,99.4724,90.4957,0.00288706,0.328471,20.6068,-311.148,0.839479,0.0,0.0
456,113.75,75.2112,82.0151,115.192,99.4503,89.8906,0.00288285,0.327067,20.6096,-311.238,0.897058,0.0,0.0
460,114.75,75.3881,81.9486,109.701,99.4728,90.2339,0.00290237,0.32603,20.6115,-311.318,0.865232,0.0,0.0
464,115.75,75.2705,81.8235,115.604,99.4591,90.2298,0.0029642,0.325285,20.6128,-311.388,0.864416,0.0,0.0
468,116.75,74.8899,81.5836,111.905,99.4716,89.9099,0.0030559,0.324744,20.6137,-311.468,0.897051,0.0,0.0
472,117.75,75.1064,81.9997,117.833,99.4668,89.6955,0.00313715,0.32439,20.6142,-311.538,0.917819,0.0,0.0
476,118.75,74.7425,81.7456,111.357,99.4523,90.2977,0.0031993,0.324244,20.6145,-311.628,0.857125,0.0,0.0
480,119.75,74.5808,81.0572,115.365,99.4628,90.2138,0.003223,0.323539,20.615,-311.638,0.866318,0.0,0.0
484,120.75,74.9903,81.2497,112.354,99.4575,90.2673,0.00321224,0.322309,20.6169,-311.728,0.860587,0.0,0.0
488,121.75,74.6844,81.0699,114.171,99.4748,90.7094,0.00318811,0.320821,20.6194,-311.818,0.818763,0.0,0.0
492,122.75,74.3992,81.059,111.903,99.4684,89.6971,0.00312519,0.319701,20.6216,-311.838,0.9178,0.0,0.0
496,123.75,74.1509,80.6595,109.445,99.476,89.3991,0.00307045,0.318989,20.6232,-311.938,0.948025,0.0,0.0
500,124.75,74.3671,80.7407,108.844,99.4728,89.5897,0.00302334,0.318209,20.6249,-312.068,0.928834,0.0,0.0
504,125.75,74.2512,80.4254,117.215,99.4797,89.9964,0.00299066,0.317436,20.6262,-312.128,0.889239,0.0,0.0
508,126.75,73.9908,80.4933,114.043,99.4813,89.6983,0.00297934,0.316737,20.6275,-312.208,0.918826,0.0,0.0
512,127.75,73.8541,80.4711,114.71,99.4817,89.5716,0.00298889,0.316096,20.6287,-312.269,0.931418,0.0,0.0
516,128.75,73.9308,80.3981,112.801,99.4861,89.5683,0.00300874,0.31544,20.6295,-312.359,0.932139,0.0,0.0
520,129.75,73.7071,80.261,114.37,99.4893,89.3851,0.00304562,0.314618,20.6308,-312.389,0.950599,0.0,0.0
524,130.75,73.6663,80.0044,113.461,99.4962,89.579,0.00308777,0.313669,20.6323,-312.469,0.931976,0.0,0.0
528,131.75,73.5763,79.9203,113.24,99.4941,89.8441,0.00310196,0.312702,20.6335,-312.549,0.905567,0.0,0.0
532,132.75,73.6356,79.9298,114.391,99.5111,89.5584,0.00306418,0.312019,20.6349,-312.619,0.935345,0.0,0.0
536,133.75,73.4222,79.8585,115.082,99.5094,89.1928,0.00298785,0.311596,20.636,-312.669,0.971506,0.0,0.0
540,134.75,73.4034,79.8383,113.541,99.4978,89.2183,0.00288628,0.31137,20.6367,-312.749,0.967925,0.0,0.0
544,135.75,73.2425,79.582,114.378,99.5054,89.2809,0.00280604,0.31123,20.6374,-312.799,0.962383,0.0,0.0
548,136.75,73.4628,79.5369,112.877,99.5042,89.5386,0.00275721,0.311206,20.6384,-312.879,0.936693,0.0,0.0
552,137.75,73.3365,79.6585,114.424,99.509,88.4786,0.00276812,0.31123,20.6391,-312.949,1.04283,0.0,0.0
556,138.75,73.15,79.4441,114.448,99.5115,89.637,0.00283748,0.31113,20.6395,-312.999,0.927592,0.0,0.0
560,139.75,73.1849,79.3704,116.875,99.5058,89.4069,0.00292742,0.311177,20.6398,-313.079,0.949905,0.0,0.0
564,140.75,73.2716,79.2136,111.832,99.5107,88.6235,0.00302143,0.311375,20.64,-313.159,1.02845,0.0,0.0
568,141.75,72.7509,79.1181,114.087,99.5139,88.803,0.00306547,0.311369,20.6401,-313.169,1.01078,0.0,0.0
572,142.75,72.816,78.9868,115.856,99.5115,89.1846,0.0030963,0.310844,20.6414,-313.269,0.972505,0.0,0.0
576,143.75,72.5983,78.8541,118.813,99.5187,89.052,0.00309634,0.310359,20.6422,-313.34,0.986353,0.0,0.0
580,144.75,72.6671,78.7117,114.558,99.5159,89.0372,0.00310534,0.30961,20.6427,-313.41,0.98758,0.0,0.0
584,145.75,72.6303,78.7512,110.992,99.5115,88.7927,0.00313246,0.308679,20.6437,-313.46,1.0116,0.0,0.0
588,146.75,72.4181,78.4788,112.549,99.5111,88.7034,0.00317187,0.307859,20.6446,-313.51,1.02049,0.0,0.0
592,147.75,72.2407,78.8895,112.129,99.5219,88.9718,0.00320732,0.307381,20.6455,-313.58,0.994645,0.0,0.0
596,148.75,72.5751,78.6373,112.046,99.5123,88.2061,0.00323672,0.307311,20.6467,-313.66,1.0705,0.0,0.0
600,149.75,72.1381,78.278,113.49,99.5199,88.7355,0.00323254,0.30709,20.6472,-313.72,1.01807,0.0,0.0
604,150.75,71.9736,78.222,114.711,99.5243,89.0352,0.0031784,0.306518,20.6476,-313.79,0.988538,0.0,0.0
608,151.75,72.1419,78.2408,115.083,99.5115,88.7976,0.00310313,0.305585,20.6495,-313.86,1.0111,0.0,0.0
612,152.75,71.9391,77.9939,114.001,99.5215,88.9413,0.00299325,0.305203,20.6508,-313.94,0.997649,0.0,0.0
616,153.75,71.7743,77.8232,112.883,99.5135,88.6671,0.00289654,0.304818,20.6516,-314.02,1.02433,0.0,0.0
620,154.75,71.8553,77.8999,115.324,99.5276,88.5255,0.00283756,0.304398,20.6521,-314.07,1.03978,0.0,0.0
624,155.75,71.9394,77.7185,113.245,99.5179,89.2892,0.00282349,0.303769,20.6531,-314.11,0.962678,0.0,0.0
628,156.75,71.7206,77.6786,117.338,99.5187,88.0117,0.00284604,0.303007,20.6544,-314.16,1.09065,0.0,0.0
632,157.75,71.8736,77.3595,117.237,99.5175,88.4024,0.00287644,0.302363,20.6556,-314.25,1.05123,0.0,0.0
636,158.75,71.5268,77.1314,114.065,99.5131,88.9578,0.00289828,0.301936,20.6563,-314.28,0.995251,0.0,0.0
640,159.75,71.2343,77.3537,119.216,99.5167,88.7005,0.00291138,0.301676,20.6569,-314.33,1.02128,0.0,0.0
644,160.75,71.3724,77.1399,112.211,99.5167,87.8179,0.00291506,0.301534,20.6572,-314.39,1.11005,0.0,0.0
648,161.75,71.2707,77.2317,115.155,99.5127,88.0451,0.00290794,0.30147,20.6582,-314.451,1.08675,0.0,0.0
652,162.75,71.1551,77.1601,122.195,99.5231,88.7342,0.00290327,0.301142,20.6595,-314.551,1.01848,0.0,0.0
656,163.75,71.023,76.7113,118.226,99.5288,88.1258,0.00290763,0.300724,20.6606,-314.571,1.08006,0.0,0.0
660,164.75,70.9197,76.8675,111.22,99.5155,88.847,0.00291651,0.300462,20.6612,-314.651,1.00652,0.0,0.0
664,165.75,70.8179,76.5282,116.911,99.5131,88.7416,0.00291785,0.300359,20.6627,-314.681,1.01684,0.0,0.0
668,166.75,70.8955,76.7041,114.047,99.5082,88.4415,0.00288961,0.300413,20.6639,-314.771,1.04648,0.0,0.0
672,167.75,70.6893,76.4407,117.101,99.507,88.4172,0.00283749,0.30048,20.6647,-314.851,1.04881,0.0,0.0
676,168.75,70.7964,76.6856,112.861,99.5127,88.3135,0.00276301,0.300344,20.6658,-314.911,1.05973,0.0,0.0
680,169.75,70.58,76.4883,114.036,99.5324,89.1463,0.00268954,0.299947,20.6667,-314.951,0.978183,0.0,0.0
684,170.75,70.8486,76.5999,113.352,99.5207,88.8392,0.00263548,0.299521,20.6673,-315.001,1.00777,0.0,0.0
688,171.75,70.4404,76.3811,114.094,99.5183,87.9265,0.00258769,0.299021,20.6677,-315.081,1.09921,0.0,0.0
692,172.75,70.6591,76.214,115.666,99.5219,88.3543,0.0025611,0.298309,20.6688,-315.121,1.05646,0.0,0.0
696,173.75,70.4869,76.2295,114.097,99.5231,89.2011,0.00256377,0.297499,20.6701,-315.171,0.971906,0.0,0.0
700,174.75,70.5953,76.1165,115.724,99.5183,88.6988,0.00257895,0.297057,20.6712,-315.221,1.02159,0.0,0.0
704,175.75,70.4316,76.1919,118.336,99.5332,88.9096,0.00258956,0.297195,20.6719,-315.351,1.00185,0.0,0.0
708,176.75,70.529,76.2555,114.037,99.5243,88.1538,0.0025963,0.297552,20.6722,-315.421,1.07684,0.0,0.0
712,177.75,70.3769,76.0111,116.601,99.5151,88.4242,0.00263603,0.297788,20.6726,-315.451,1.04883,0.0,0.0
716,178.75,70.2362,76.1329,111.788,99.5183,88.7128,0.00272231,0.297668,20.6732,-315.471,1.02019,0.0,0.0
720,179.75,70.363,76.0573,116.529,99.5155,88.1962,0.00283727,0.297395,20.674,-315.551,1.07178,0.0,0.0
724,180.75,70.4421,75.651,116.607,99.5191,88.3798,0.00297358,0.296828,20.6748,-315.622,1.05365,0.0,0.0
728,181.75,70.3294,75.8566,115.925,99.5251,89.0701,0.00305231,0.296214,20.6758,-315.692,0.985122,0.0,0.0
732,182.75,70.0636,75.6084,115.049,99.5131,89.0533,0.0030577,0.295668,20.6765,-315.762,0.985728,0.0,0.0
736,183.75,69.6207,75.5352,114.335,99.5167,88.6741,0.00303514,0.295253,20.677,-315.812,1.02392,0.0,0.0
740,184.75,70.3006,75.904,115.129,99.5179,88.5156,0.00292178,0.294839,20.6779,-315.882,1.03991,0.0,0.0
744,185.75,69.7206,75.3726,113.548,99.5215,88.4057,0.00277805,0.294396,20.6787,-315.952,1.05126,0.0,0.0
748,186.75,70.0448,75.2978,114.566,99.528,88.6939,0.00263268,0.293993,20.6792,-315.952,1.02295,0.0,0.0
752,187.75,69.8922,75.3344,114.628,99.5175,88.4959,0.00252097,0.293401,20.6804,-316.012,1.04185,0.0,0.0
756,188.75,69.6507,75.2763,114.031,99.5227,88.5906,0.00246108,0.292812,20.6811,-316.102,1.03283,0.0,0.0
760,189.75,69.6549,75.0737,113.427,99.5231,89.3365,0.00245404,0.292526,20.6816,-316.172,0.958439,0.0,0.0
764,190.75,69.5544,74.9264,117.082,99.5304,88.4543,0.00248906,0.292652,20.6819,-316.172,1.04717,0.0,0.0
768,191.75,69.6637,74.6793,113.605,99.5167,88.0052,0.00256574,0.292573,20.6826,-316.262,1.09114,0.0,0.0
772,192.75,69.2925,74.8932,114.586,99.5227,88.5922,0.00264604,0.292096,20.6834,-316.312,1.03266,0.0,0.0
776,193.75,69.3133,74.8613,113.651,99.5223,88.7194,0.00273857,0.291405,20.6848,-316.392,1.01989,0.0,0.0
780,194.75,69.7297,74.9065,115.909,99.5372,89.0557,0.00283012,0.290723,20.6867,-316.412,0.987635,0.0,0.0
784,195.75,69.4425,74.7324,115.101,99.5127,89.1978,0.00292064,0.28955,20.6885,-316.462,0.971302,0.0,0.0
788,196.75,69.4907,74.7526,113.08,99.5191,87.9397,0.00299378,0.28874,20.6897,-316.542,1.09796,0.0,0.0
792,197.75,69.3536,74.535,116.344,99.5175,88.6136,0.00304478,0.288039,20.6904,-316.622,1.03005,0.0,0.0
796,198.75,69.4652,74.6905,115.066,99.5123,88.8334,0.00305357,0.287523,20.6914,-316.673,1.00759,0.0,0.0
800,199.75,69.3667,74.7109,113.764,99.5276,88.4144,0.00302346,0.287354,20.6924,-316.723,1.05093,0.0,0.0
804,200.75,68.735,74.4181,116.962,99.5272,88.5601,0.00297234,0.287413,20.693,-316.733,1.03628,0.0,0.0
808,201.75,69.343,74.564,111.587,99.5255,88.6819,0.00290968,0.287251,20.6939,-316.803,1.02393,0.0,0.0
812,202.75,69.1865,74.4472,112.546,99.5235,88.9578,0.00285622,0.286399,20.6953,-316.893,0.996185,0.0,0.0
816,203.75,69.4022,74.4941,113.385,99.5191,88.3814,0.00283547,0.284964,20.6974,-316.953,1.05348,0.0,0.0
820,204.75,68.8875,74.2201,115.993,99.507,88.3769,0.00284093,0.283548,20.6995,-317.023,1.05286,0.0,0.0
824,205.75,68.6169,74.5831,113.075,99.5231,88.3942,0.00288403,0.282199,20.7017,-317.063,1.05256,0.0,0.0
828,206.75,68.3272,74.6309,114.582,99.528,88.9487,0.00292344,0.280758,20.704,-317.133,0.997483,0.0,0.0
832,207.75,69.1184,74.4085,112.635,99.5292,88.775,0.00295312,0.279134,20.7071,-317.183,1.01494,0.0,0.0
836,208.75,69.0318,73.8775,115.009,99.5203,88.3489,0.00297166,0.277665,20.7091,-317.203,1.05686,0.0,0.0
840,209.75,68.6247,74.1833,116.308,99.5179,88.5502,0.00298542,0.276157,20.7109,-317.253,1.03644,0.0,0.0
844,210.75,68.7104,73.8847,115.279,99.5263,88.9401,0.00298082,0.274651,20.7128,-317.303,0.998203,0.0,0.0
848,211.75,68.7574,73.8291,114.056,99.5263,89.0282,0.00296677,0.273046,20.7149,-317.323,0.989415,0.0,0.0
852,212.75,68.963,74.2091,115.162,99.5308,89.0335,0.00291498,0.271717,20.717,-317.373,0.989276,0.0,0.0
856,213.75,68.397,73.7358,117.066,99.5304,88.7281,0.00287429,0.269616,20.7191,-317.403,1.01975,0.0,0.0
860,214.75,68.7547,73.7325,114.766,99.5312,89.108,0.00284759,0.267555,20.7226,-317.473,0.981887,0.0,0.0
864,215.75,68.6405,73.6198,117.267,99.5284,88.6511,0.00283537,0.26589,20.7254,-317.523,1.02727,0.0,0.0
868,216.75,68.5466,73.5128,113.195,99.5223,89.0236,0.00283936,0.264489,20.7272,-317.553,0.989508,0.0,0.0
872,217.75,68.5933,73.2765,117.236,99.5267,88.6741,0.00285542,0.263631,20.7284,-317.603,1.02482,0.0,0.0
876,218.75,68.4543,73.4734,114.226,99.5292,89.1121,0.00286881,0.263012,20.7292,-317.663,0.981297,0.0,0.0
880,219.75,68.2847,73.2467,118.201,99.532,89.4958,0.00289104,0.262231,20.7305,-317.703,0.943415,0.0,0.0
884,220.75,68.1756,73.2007,117.725,99.5348,89.0697,0.00290338,0.261107,20.7327,-317.733,0.986024,0.0,0.0
888,221.75,68.0299,73.3043,116.065,99.5312,89.0014,0.00288928,0.259931,20.7344,-317.763,0.992514,0.0,0.0
892,222.75,68.2138,73.016,118.049,99.5263,89.8688,0.00286415,0.258735,20.7364,-317.824,0.905998,0.0,0.0
896,223.75,68.2221,73.2384,112.853,99.5235,89.5637,0.0028387,0.257426,20.7383,-317.864,0.935927,0.0,0.0
900,224.75,68.0044,72.8771,116.791,99.5324,89.3435,0.00282872,0.256099,20.741,-317.934,0.95857,0.0,0.0
904,225.75,68.2784,72.6069,115.715,99.528,89.5963,0.00281351,0.254815,20.7431,-317.974,0.933099,0.0,0.0
908,226.75,67.6584,72.6808,115.857,99.5324,89.129,0.00278415,0.253647,20.7445,-318.024,0.979904,0.0,0.0
912,227.75,67.6786,72.5104,113.398,99.5259,89.0545,0.00273278,0.252355,20.7462,-318.064,0.986753,0.0,0.0
916,228.75,67.3702,72.4632,114.979,99.5227,89.0372,0.00269756,0.251135,20.7473,-318.084,0.988189,0.0,0.0
920,229.75,67.576,72.2861,114.795,99.5284,89.4287,0.0026863,0.250465,20.7488,-318.134,0.94975,0.0,0.0
924,230.75,67.2547,72.2334,116.478,99.5296,89.6481,0.00268798,0.25029,20.7499,-318.144,0.928106,0.0,0.0
928,231.75,67.2532,72.2099,118.084,99.5155,89.5942,0.00268282,0.250437,20.7504,-318.214,0.93219,0.0,0.0
932,232.75,67.2485,71.9882,116.724,99.5163,88.4382,0.00263712,0.250595,20.7509,-318.294,1.04753,0.0,0.0
936,233.75,67.1103,71.9776,115.771,99.5102,89.4991,0.00259576,0.250524,20.7512,-318.314,0.94115,0.0,0.0
940,234.75,67.0856,71.8093,115.269,99.5187,89.4682,0.0024928,0.250103,20.7518,-318.314,0.944966,0.0,0.0
944,235.75,67.5539,72.0793,118.164,99.5094,89.4723,0.00240737,0.24916,20.7534,-318.364,0.943732,0.0,0.0
948,236.75,67.1644,71.8307,120.185,99.5159,89.9293,0.00235579,0.247887,20.7557,-318.364,0.899091,0.0,0.0
952,237.75,66.7442,71.7101,115.035,99.5123,89.2994,0.0023466,0.24632,20.7583,-318.434,0.961152,0.0,0.0
956,238.75,66.7687,71.4618,115.859,99.5191,89.3036,0.00237184,0.244666,20.7608,-318.514,0.961354,0.0,0.0
960,239.75,66.7766,71.2878,117.833,99.5107,89.0623,0.00240479,0.243042,20.7628,-318.524,0.98461,0.0,0.0
964,240.75,66.834,71.5344,115.013,99.5159,89.4863,0.0024567,0.241271,20.7658,-318.564,0.942918,0.0,0.0
968,241.75,66.718,71.2981,117.884,99.5074,91.0074,0.00251573,0.239622,20.7677,-318.624,0.792555,0.0,0.0
972,242.75,66.5812,71.1732,113.859,99.5086,89.8342,0.00258644,0.237719,20.7706,-318.684,0.907835,0.0,0.0
976,243.75,66.714,71.1475,119.702,99.5078,90.3899,0.0026612,0.235867,20.7741,-318.694,0.853022,0.0,0.0
980,244.75,66.3966,71.1677,116.622,99.5082,90.0046,0.00272138,0.233453,20.7783,-318.714,0.890976,0.0,0.0
984,245.75,66.4388,71.204,114.901,99.5259,90.2068,0.00272488,0.230635,20.7828,-318.774,0.872645,0.0,0.0
988,246.75,66.4756,70.8712,119.651,99.5054,90.3681,0.00267032,0.227351,20.7867,-318.774,0.854949,0.0,0.0
992,247.75,66.2111,70.6991,119.193,99.5151,91.0729,0.00254282,0.224147,20.791,-318.824,0.786855,0.0,0.0
996,248.75,66.2607,70.564,119.008,99.5123,91.5072,0.00240861,0.220967,20.7955,-318.864,0.744376,0.0,0.0
1000,249.75,66.1496,70.6936,113.796,99.5098,91.2273,0.00231216,0.217846,20.8003,-318.884,0.771357,0.0,0.0
1004,250.75,65.693,70.5072,115.863,99.503,91.6369,0.00226625,0.214503,20.8051,-318.914,0.730981,0.0,0.0
1008,251.75,65.7849,70.1737,116.887,99.5107,91.5097,0.00228384,0.211156,20.8107,-318.935,0.743992,0.0,0.0
1012,252.75,65.8375,70.2013,118.61,99.5014,91.9292,0.00234609,0.207792,20.816,-318.965,0.702572,0.0,0.0
1016,253.75,65.2725,69.9507,118.245,99.5082,91.7015,0.00245215,0.204253,20.8208,-318.975,0.72519,0.0,0.0
1020,254.75,65.4493,69.9293,119.73,99.5147,91.9045,0.00256222,0.200694,20.8255,-318.985,0.706142,0.0,0.0
1024,255.75,65.3397,69.7949,117.454,99.5094,91.8201,0.00264184,0.197457,20.8297,-319.015,0.71383,0.0,0.0
1028,256.75,65.2583,69.9306,117.858,99.5119,92.3388,0.00269508,0.194808,20.833,-319.055,0.664044,0.0,0.0
1032,257.75,64.7983,69.4652,122.254,99.5107,92.524,0.00278298,0.191819,20.8368,-319.045,0.646147,0.0,0.0
1036,258.75,64.9776,69.0575,117.908,99.5111,92.1054,0.00288215,0.188638,20.841,-319.075,0.686438,0.0,0.0
1040,259.75,64.8359,69.1155,118.613,99.5139,92.8497,0.00298913,0.185973,20.8453,-319.105,0.61525,0.0,0.0
1044,260.75,64.7124,68.995,119.731,99.5227,92.8361,0.00308713,0.182817,20.8493,-319.135,0.617339,0.0,0.0
1048,261.75,64.1909,68.496,120.229,99.5014,92.7772,0.0031912,0.179822,20.8543,-319.185,0.621067,0.0,0.0
1052,262.75,64.4014,68.4979,122.078,99.5115,93.0374,0.00329571,0.177092,20.8584,-319.155,0.597109,0.0,0.0
1056,263.75,64.0386,68.3938,117.929,99.5094,92.9312,0.00339902,0.174595,20.8628,-319.165,0.607067,0.0,0.0
1060,264.75,63.7908,68.2328,122.649,99.5147,92.9386,0.0034971,0.172001,20.8668,-319.215,0.606826,0.0,0.0
1064,265.75,63.5955,67.7794,119.673,99.507,92.7965,0.00361997,0.169348,20.8711,-319.235,0.619718,0.0,0.0
1068,266.75,63.6577,67.8533,124.278,99.507,92.9937,0.00377717,0.166643,20.8756,-319.235,0.600877,0.0,0.0
1072,267.75,63.27,67.7037,120.287,99.505,93.3045,0.00392641,0.164258,20.8791,-319.225,0.571081,0.0,0.0
1076,268.75,63.0715,67.3455,120.522,99.5167,93.1728,0.00408005,0.162213,20.8819,-319.235,0.584662,0.0,0.0
1080,269.75,62.9802,67.0797,118.111,99.5135,93.701,0.0042362,0.160379,20.8854,-319.265,0.534201,0.0,0.0
1084,270.75,62.779,66.8478,123.962,99.5082,93.7372,0.0043656,0.158879,20.8877,-319.265,0.530304,0.0,0.0
1088,271.75,62.4405,66.8767,122.263,99.5098,93.3531,0.00445173,0.157463,20.89,-319.295,0.566892,0.0,0.0
1092,272.75,62.6333,66.6891,120.062,99.5131,93.3848,0.00450212,0.155904,20.8928,-319.335,0.564166,0.0,0.0
1096,273.75,62.0051,66.2186,119.719,99.5115,93.5487,0.00453198,0.153983,20.8957,-319.365,0.548463,0.0,0.0
1100,274.75,62.3013,66.3164,119.88,99.5183,93.696,0.00453801,0.151863,20.8983,-319.345,0.5351,0.0,0.0
1104,275.75,62.1573,66.2107,121.738,99.5159,93.2115,0.00453067,0.149989,20.9006,-319.385,0.580905,0.0,0.0
1108,276.75,61.9655,65.6097,122.605,99.5207,93.5487,0.00451637,0.148576,20.9021,-319.415,0.549288,0.0,0.0
1112,277.75,61.7734,65.5073,118.555,99.5251,93.2226,0.00444792,0.147499,20.9037,-319.425,0.580672,0.0,0.0
1116,278.75,61.5475,65.5137,122.001,99.5203,93.9714,0.0043584,0.146492,20.9053,-319.425,0.509228,0.0,0.0
1120,279.75,61.561,65.3744,120.751,99.5247,93.8253,0.00425489,0.145709,20.9064,-319.395,0.523437,0.0,0.0
1124,280.75,61.4656,65.1837,122.525,99.528,93.4186,0.0041781,0.144516,20.907,-319.465,0.562286,0.0,0.0
1128,281.75,60.6222,64.9331,120.132,99.5231,93.5116,0.00413713,0.143218,20.9073,-319.465,0.553019,0.0,0.0
1132,282.75,60.8215,64.3773,123.267,99.5187,93.3482,0.00415279,0.142208,20.9083,-319.495,0.568151,0.0,0.0
1136,283.75,60.7697,64.8132,120.183,99.5179,93.6384,0.00419666,0.14116,20.9089,-319.525,0.540526,0.0,0.0
1140,284.75,60.2622,64.4664,119.341,99.5255,93.4914,0.0042638,0.140167,20.91,-319.515,0.55515,0.0,0.0
1144,285.75,60.525,64.1855,121.791,99.5304,93.3939,0.00429432,0.139419,20.9113,-319.535,0.564848,0.0,0.0
1148,286.75,60.2819,63.9574,119.374,99.5227,93.5742,0.00428233,0.138845,20.9125,-319.525,0.547046,0.0,0.0
1152,287.75,60.0197,63.7176,121.614,99.5215,93.6112,0.00426212,0.138305,20.9135,-319.555,0.543425,0.0,0.0
1156,288.75,59.7291,63.5772,120.771,99.5243,93.5557,0.00424583,0.137664,20.9148,-319.575,0.548948,0.0,0.0
1160,289.75,59.6543,63.3541,119.945,99.5276,93.645,0.00428478,0.13717,20.9156,-319.615,0.540764,0.0,0.0
1164,290.75,59.652,62.9332,121.363,99.5272,93.5244,0.00436679,0.137105,20.9161,-319.615,0.552167,0.0,0.0
1168,291.75,59.5942,62.7446,120.786,99.5191,93.2247,0.00445442,0.137082,20.9165,-319.635,0.579938,0.0,0.0
1172,292.75,59.4115,62.8501,123.924,99.5304,93.3511,0.00453884,0.137065,20.9167,-319.625,0.568919,0.0,0.0
1176,293.75,59.2824,62.7051,124.574,99.5239,93.7516,0.00459545,0.137036,20.9169,-319.615,0.53034,0.0,0.0
1180,294.75,59.0955,62.4082,120.093,99.5267,93.5742,0.00462273,0.137009,20.917,-319.635,0.547405,0.0,0.0
1184,295.75,58.9895,62.1803,119.842,99.5247,93.6195,0.0046195,0.136898,20.917,-319.665,0.542931,0.0,0.0
1188,296.75,58.637,62.3132,120.563,99.5304,93.4441,0.00459367,0.136522,20.9171,-319.675,0.560076,0.0,0.0
1192,297.75,58.3379,61.9409,119.62,99.5276,93.9632,0.00454802,0.135982,20.9179,-319.685,0.510653,0.0,0.0
1196,298.75,58.3765,61.9164,120.123,99.5312,93.7314,0.00450927,0.13537,20.9183,-319.705,0.532896,0.0,0.0
1200,299.75,58.592,61.6921,119.517,99.5219,93.7323,0.00445762,0.135029,20.9187,-319.705,0.531993,0.0,0.0
1204,300.75,58.4446,61.5258,121.06,99.5243,93.3959,0.00443441,0.134964,20.919,-319.715,0.564114,0.0,0.0
1208,301.75,58.344,61.59,119.446,99.5231,93.2626,0.00443984,0.135003,20.9192,-319.745,0.576692,0.0,0.0
1212,302.75,58.3935,61.5439,123.656,99.5223,93.8751,0.00445608,0.135071,20.9193,-319.735,0.518511,0.0,0.0
1216,303.75,57.8741,61.1941,116.877,99.5388,94.0472,0.00448595,0.135178,20.9194,-319.755,0.503728,0.0,0.0
1220,304.75,57.932,61.0403,121.642,99.5127,93.7249,0.00452692,0.135359,20.9197,-319.795,0.531869,0.0,0.0
1224,305.75,57.786,60.9239,120.492,99.5107,93.1802,0.00458092,0.135451,20.9201,-319.805,0.583418,0.0,0.0
1228,306.75,57.5477,60.8345,123.595,99.5159,93.6512,0.00463458,0.135459,20.9203,-319.805,0.539137,0.0,0.0
1232,307.75,57.3154,60.9671,121.373,99.5175,93.4511,0.00466422,0.135321,20.9205,-319.835,0.558263,0.0,0.0
1236,308.75,57.538,60.7557,122.321,99.5199,93.666,0.00466168,0.135164,20.9206,-319.855,0.538092,0.0,0.0
1240,309.75,57.6395,60.6056,121.881,99.5135,93.6458,0.00465474,0.134913,20.9207,-319.855,0.539429,0.0,0.0
1244,310.75,57.5426,60.9204,121.556,99.5183,93.7277,0.00465019,0.134565,20.9207,-319.875,0.532097,0.0,0.0
1248,311.75,57.4854,60.6665,122.49,99.5167,93.7109,0.00469243,0.13395,20.9208,-319.865,0.533552,0.0,0.0
1252,312.75,57.1557,60.3826,122.17,99.5179,93.7878,0.00476086,0.133469,20.9208,-319.885,0.526372,0.0,0.0
1256,313.75,57.267,60.2954,126.948,99.509,93.5347,0.0048236,0.13321,20.9208,-319.895,0.549575,0.0,0.0
1260,314.75,57.3532,60.2947,122.953,99.5195,94.3564,0.00486599,0.133116,20.9208,-319.915,0.472874,0.0,0.0
1264,315.75,57.0207,60.2038,120.171,99.5195,93.2761,0.00487679,0.133098,20.9208,-319.895,0.575076,0.0,0.0
1268,316.75,57.3097,60.3175,119.793,99.5203,93.7442,0.0048733,0.132961,20.9208,-319.925,0.530718,0.0,0.0
1272,317.75,56.6652,59.7635,118.654,99.5094,94.0352,0.00485971,0.132712,20.9208,-319.965,0.502235,0.0,0.0
1276,318.75,56.6532,59.8722,120.086,99.5119,93.277,0.00483586,0.132476,20.9208,-319.955,0.574315,0.0,0.0
1280,319.75,56.6276,59.4686,125.074,99.5151,93.4136,0.00479089,0.132192,20.9208,-319.955,0.561607,0.0,0.0
1284,320.75,56.4349,59.6131,120.062,99.5159,93.4433,0.00474856,0.131905,20.9208,-319.995,0.558862,0.0,0.0
1288,321.75,56.5862,59.6258,121.643,99.5151,93.3544,0.00473209,0.131628,20.9208,-320.025,0.567241,0.0,0.0
1292,322.75,56.5207,59.1691,124.298,99.5119,93.4334,0.00476426,0.131633,20.9208,-320.016,0.559441,0.0,0.0
1296,323.75,56.2198,59.3262,122.012,99.5131,93.4219,0.00481787,0.13179,20.9204,-320.016,0.560645,0.0,0.0
1300,324.75,56.0824,59.2066,121.297,99.5135,93.7994,0.00489815,0.131959,20.9197,-320.046,0.524886,0.0,0.0
1304,325.75,56.0382,58.9903,122.037,99.5143,93.3947,0.00496548,0.132034,20.9194,-320.056,0.563334,0.0,0.0
1308,326.75,56.1949,58.932,120.671,99.5159,93.5198,0.00505779,0.132083,20.9191,-320.046,0.551592,0.0,0.0
1312,327.75,55.7712,59.0651,121.863,99.5276,93.8953,0.00518628,0.132012,20.9188,-320.066,0.517071,0.0,0.0
1316,328.75,55.9031,59.0438,120.277,99.5147,93.6524,0.00531018,0.131975,20.9186,-320.076,0.538912,0.0,0.0
1320,329.75,55.686,58.7857,121.409,99.5171,93.4976,0.00539871,0.131941,20.9185,-320.076,0.55381,0.0,0.0
1324,330.75,55.5143,58.3214,119.822,99.5167,94.3666,0.00544866,0.131919,20.9184,-320.066,0.471655,0.0,0.0
1328,331.75,55.7146,58.8304,122.865,99.5147,93.7845,0.00540655,0.131827,20.9183,-320.086,0.526397,0.0,0.0
1332,332.75,55.6791,58.2711,123.973,99.509,93.3128,0.00533247,0.131665,20.9183,-320.086,0.570657,0.0,0.0
1336,333.75,55.3502,58.4887,121.648,99.5107,93.0444,0.00523746,0.13143,20.9182,-320.106,0.596368,0.0,0.0
1340,334.75,55.7607,58.3496,119.192,99.5131,93.708,0.00515438,0.131248,20.9182,-320.096,0.533503,0.0,0.0
1344,335.75,55.5167,58.4975,119.964,99.509,93.249,0.00506878,0.131174,20.9182,-320.136,0.576728,0.0,0.0
1348,336.75,55.4751,58.3221,116.757,99.5247,93.7253,0.00500927,0.131242,20.9182,-320.156,0.532907,0.0,0.0
1352,337.75,55.1861,58.0068,119.485,99.5094,93.9537,0.00498775,0.131292,20.9182,-320.146,0.509931,0.0,0.0
1356,338.75,54.5808,57.4255,119.619,99.5046,93.6693,0.00500896,0.131132,20.9182,-320.196,0.536415,0.0,0.0
1360,339.75,54.5662,57.7067,120.636,99.5086,94.0917,0.00508178,0.130744,20.9182,-320.216,0.49684,0.0,0.0
1364,340.75,54.9587,57.8838,121.55,99.5195,93.7063,0.0051976,0.130185,20.9182,-320.206,0.534234,0.0,0.0
1368,341.75,54.2806,57.5772,124.108,99.5094,93.2971,0.00530221,0.129722,20.9182,-320.246,0.57218,0.0,0.0
1372,342.75,54.1407,57.1848,120.649,99.5155,94.0233,0.00540896,0.129414,20.9182,-320.216,0.503899,0.0,0.0
1376,343.75,54.3245,57.2446,123.687,99.5123,93.6495,0.00549613,0.129238,20.9177,-320.236,0.53897,0.0,0.0
1380,344.75,54.5494,56.7331,121.797,99.5155,93.4367,0.00555771,0.129185,20.9171,-320.256,0.559452,0.0,0.0
1384,345.75,53.8632,56.8233,120.416,99.5119,93.5026,0.00559833,0.129343,20.9167,-320.246,0.552874,0.0,0.0
1388,346.75,53.9413,56.8399,122.752,99.5022,93.6899,0.0056137,0.129647,20.9164,-320.286,0.534249,0.0,0.0
1392,347.75,54.2519,56.8482,120.815,99.5131,93.9694,0.00558745,0.129898,20.9162,-320.286,0.508777,0.0,0.0
1396,348.75,53.9847,56.5015,124.321,99.5267,93.1749,0.00551122,0.129949,20.9161,-320.296,0.585364,0.0,0.0
1400,349.75,54.1006,56.7355,119.418,99.5183,93.4939,0.00539545,0.12972,20.9162,-320.316,0.554269,0.0,0.0
1404,350.75,54.3915,56.9052,122.907,99.5155,93.9496,0.005305,0.129275,20.9169,-320.336,0.510859,0.0,0.0
1408,351.75,54.1402,56.7544,122.237,99.5191,93.8249,0.00521031,0.128813,20.9184,-320.296,0.522974,0.0,0.0
1412,352.75,54.3085,56.7311,120.606,99.5195,94.0777,0.00515354,0.128476,20.9193,-320.296,0.49913,0.0,0.0
1416,353.75,54.0127,56.7567,121.846,99.5187,93.5762,0.00511773,0.128093,20.92,-320.316,0.546493,0.0,0.0
1420,354.75,54.0056,56.3888,125.168,99.5215,94.0344,0.00508673,0.12776,20.9204,-320.336,0.503389,0.0,0.0
1424,355.75,53.674,55.8719,123.481,99.5239,94.0167,0.00505531,0.127451,20.9207,-320.356,0.505276,0.0,0.0
1428,356.75,53.2465,56.4468,124.696,99.5267,93.9476,0.00502938,0.127145,20.9208,-320.346,0.512058,0.0,0.0
1432,357.75,54.0175,55.8556,122.105,99.5239,94.0369,0.00501637,0.126964,20.921,-320.396,0.503371,0.0,0.0
1436,358.75,53.4056,56.1726,119.603,99.5276,93.8039,0.00501188,0.126774,20.921,-320.436,0.525714,0.0,0.0
1440,359.75,53.304,56.0593,119.867,99.5227,93.419,0.00502705,0.126488,20.9211,-320.416,0.561781,0.0,0.0
1444,360.75,53.7233,56.0582,124.425,99.5163,93.6668,0.00506379,0.126175,20.9211,-320.396,0.53769,0.0,0.0
1448,361.75,53.8683,56.0218,124.161,99.5167,93.7076,0.00513618,0.125905,20.9211,-320.446,0.533865,0.0,0.0
1452,362.75,53.4444,56.1155,122.119,99.5207,93.6236,0.00521618,0.125687,20.9212,-320.476,0.542183,0.0,0.0
1456,363.75,53.285,56.0919,120.202,99.5267,93.3725,0.00528572,0.125495,20.9214,-320.456,0.56656,0.0,0.0
1460,364.75,53.6328,55.5199,122.837,99.5219,93.787,0.005348,0.125296,20.9221,-320.486,0.526809,0.0,0.0
1464,365.75,52.686,55.3715,119.237,99.5276,93.6355,0.00539496,0.125119,20.9226,-320.516,0.541661,0.0,0.0
1468,366.75,53.3321,55.5098,124.973,99.5183,94.2473,0.0054476,0.125075,20.9229,-320.486,0.483035,0.0,0.0
1472,367.75,53.0542,55.6065,122.771,99.5227,94.0278,0.00549664,0.125175,20.9231,-320.496,0.504118,0.0,0.0
1476,368.75,53.2487,55.842,123.732,99.5272,93.799,0.00553562,0.125281,20.9233,-320.516,0.526146,0.0,0.0
1480,369.75,52.6364,55.1907,124.636,99.5243,93.3313,0.00553395,0.125319,20.924,-320.526,0.57026,0.0,0.0
1484,370.75,52.958,55.1524,119.756,99.5163,94.1575,0.00549427,0.125196,20.9246,-320.496,0.491312,0.0,0.0
1488,371.75,52.9051,55.6448,120.026,99.5143,93.284,0.00544781,0.124853,20.9255,-320.526,0.573865,0.0,0.0
1492,372.75,52.8701,55.0584,127.089,99.5191,93.5874,0.0054147,0.124393,20.9264,-320.546,0.545474,0.0,0.0
1496,373.75,53.0954,55.5225,122.614,99.5207,94.076,0.00538654,0.123795,20.9275,-320.556,0.499393,0.0,0.0
1500,374.75,52.8392,55.1295,120.26,99.5139,93.5318,0.00536806,0.123257,20.9284,-320.566,0.55028,0.0,0.0
1504,375.75,52.7837,55.167,121.772,99.5187,93.8109,0.00535343,0.122853,20.9285,-320.546,0.524263,0.0,0.0
1508,376.75,53.0126,54.9959,122.024,99.5147,93.5396,0.0053418,0.122647,20.9287,-320.566,0.549609,0.0,0.0
1512,377.75,52.5428,54.8482,124.971,99.5127,93.6878,0.00533955,0.122658,20.9287,-320.576,0.535378,0.0,0.0
1516,378.75,52.5905,54.6482,121.892,99.5203,93.2654,0.0053395,0.122793,20.9288,-320.616,0.576167,0.0,0.0
1520,379.75,53.0861,54.7954,118.906,99.5159,93.6985,0.00533946,0.122907,20.9288,-320.616,0.534651,0.0,0.0
1524,380.75,51.9849,54.6593,118.479,99.5143,93.8302,0.00531734,0.122825,20.9288,-320.626,0.522038,0.0,0.0
1528,381.75,52.7298,54.9525,124.21,99.5219,93.962,0.00529318,0.122628,20.9288,-320.636,0.510266,0.0,0.0
1532,382.75,52.5907,55.0154,125.905,99.5078,93.3856,0.00525693,0.122263,20.9289,-320.666,0.563621,0.0,0.0
1536,383.75,52.5929,55.2609,124.217,99.5167,93.6993,0.00519689,0.121956,20.9289,-320.636,0.534644,0.0,0.0
1540,384.75,52.5179,54.5121,120.776,99.5062,93.1399,0.00510219,0.121771,20.9289,-320.656,0.586868,0.0,0.0
1544,385.75,51.9831,54.627,121.082,99.5171,93.8994,0.00497705,0.121687,20.9289,-320.686,0.515749,0.0,0.0
1548,386.75,52.0422,54.9189,122.583,99.5078,93.47,0.00487083,0.121639,20.9289,-320.686,0.555604,0.0,0.0
1552,387.75,52.0187,55.006,121.693,99.5195,93.398,0.00477389,0.121535,20.9297,-320.676,0.563488,0.0,0.0
1556,388.75,52.3947,54.4513,122.401,99.5159,93.2831,0.00471423,0.121236,20.9302,-320.676,0.574087,0.0,0.0
1560,389.75,52.4089,54.921,121.349,99.5078,93.3667,0.00468798,0.120858,20.9314,-320.726,0.565421,0.0,0.0
1564,390.75,52.2322,54.9067,122.728,99.5119,93.7718,0.00468075,0.120433,20.9321,-320.706,0.527354,0.0,0.0
1568,391.75,51.9588,54.5216,120.999,99.5139,93.6203,0.00468082,0.119967,20.9326,-320.706,0.541884,0.0,0.0
1572,392.75,52.1832,54.495,123.035,99.5159,94.0777,0.00468086,0.119673,20.9329,-320.726,0.498807,0.0,0.0
1576,393.75,52.3921,54.9056,121.737,99.5123,93.4816,0.00469158,0.119623,20.9331,-320.756,0.554904,0.0,0.0
1580,394.75,52.6661,54.4599,119.677,99.5135,93.9492,0.00471218,0.119622,20.9333,-320.746,0.510718,0.0,0.0
1584,395.75,52.1405,54.3404,121.579,99.5131,93.4404,0.00474107,0.11963,20.9334,-320.756,0.558885,0.0,0.0
1588,396.75,51.8517,54.4649,119.456,99.5094,93.7685,0.00477015,0.119652,20.9334,-320.786,0.527449,0.0,0.0
1592,397.75,52.2607,54.2702,126.119,99.5074,93.7047,0.00480527,0.119693,20.9336,-320.776,0.533312,0.0,0.0
1596,398.75,52.2729,54.2175,123.03,99.5127,93.7154,0.00484155,0.119797,20.9334,-320.756,0.532765,0.0,0.0
1600,399.75,52.035,54.35,122.772,99.5203,93.8409,0.00488024,0.119872,20.9329,-320.806,0.521564,0.0,0.0
1604,400.75,52.2451,54.2339,123.98,99.5147,94.1991,0.00491688,0.119917,20.9325,-320.816,0.487249,0.0,0.0
1608,401.75,51.7481,54.0591,122.613,99.5171,93.7421,0.00496349,0.119863,20.9323,-320.846,0.530626,0.0,0.0
1612,402.75,51.6486,53.8357,119.151,99.5151,93.531,0.00500342,0.119754,20.9321,-320.856,0.550466,0.0,0.0
1616,403.75,51.8139,54.0141,121.126,99.5078,93.5071,0.00503151,0.119478,20.9321,-320.856,0.552086,0.0,0.0
1620,404.75,51.8044,53.9737,126.586,99.5098,93.6499,0.0050408,0.119277,20.932,-320.866,0.538716,0.0,0.0
1624,405.75,51.9788,54.0947,122.067,99.5139,94.3316,0.00503244,0.11918,20.9319,-320.886,0.474696,0.0,0.0
1628,406.75,51.7177,53.48,123.349,99.5163,93.7249,0.00500205,0.119042,20.9319,-320.906,0.532192,0.0,0.0
1632,407.75,51.9201,54.1188,122.721,99.5115,93.6256,0.00497836,0.118784,20.9319,-320.926,0.541162,0.0,0.0
1636,408.75,51.7245,53.7891,120.879,99.5054,94.3588,0.00496728,0.118548,20.9317,-320.906,0.471386,0.0,0.0
1640,409.75,51.8128,54.2092,123.678,99.5107,94.2596,0.00497359,0.118465,20.9309,-320.886,0.48119,0.0,0.0
1644,410.75,51.5011,53.6809,123.126,99.5227,93.7479,0.00498382,0.118555,20.9304,-320.916,0.530584,0.0,0.0
1648,411.75,51.1963,54.0568,122.752,99.5155,93.538,0.00498427,0.118768,20.9301,-320.946,0.549837,0.0,0.0
1652,412.75,51.6351,53.6099,123.467,99.5183,94.1052,0.0049795,0.119062,20.9299,-320.936,0.49642,0.0,0.0
1656,413.75,51.4154,53.5896,124.994,99.5545,93.4824,0.00497637,0.119331,20.9298,-320.936,0.558594,0.0,0.0
1660,414.75,51.8553,53.7651,122.743,99.505,93.4231,0.00497432,0.119585,20.9297,-320.936,0.55981,0.0,0.0
1664,415.75,51.4186,53.4159,127.861,99.5115,93.6524,0.00496405,0.119828,20.929,-320.926,0.538625,0.0,0.0
1668,416.75,51.7556,53.5135,121.335,99.5179,93.6355,0.00494741,0.119959,20.9284,-320.926,0.5408,0.0,0.0
1672,417.75,51.2906,53.7246,120.605,99.53,93.5622,0.00494112,0.120052,20.928,-320.916,0.548825,0.0,0.0
1676,418.75,51.2859,53.894,122.633,99.5191,93.892,0.00496114,0.120194,20.9277,-320.946,0.516629,0.0,0.0
1680,419.75,51.2113,53.5345,119.058,99.5171,93.2971,0.0049915,0.120304,20.9269,-320.976,0.572863,0.0,0.0
1684,420.75,51.7367,53.5418,122.14,99.5195,93.5421,0.00506806,0.120454,20.9265,-320.946,0.549805,0.0,0.0
1688,421.75,51.3765,53.5242,123.504,99.5187,93.8158,0.00512581,0.120629,20.9264,-320.996,0.523795,0.0,0.0
1692,422.75,51.5642,53.1113,120.289,99.5195,94.435,0.00516853,0.120716,20.9263,-320.996,0.465481,0.0,0.0
1696,423.75,51.0824,53.2214,117.645,99.5175,93.7998,0.00519555,0.12072,20.9263,-320.986,0.525207,0.0,0.0
1700,424.75,51.0579,53.6486,121.027,99.5276,94.1822,0.00523332,0.120649,20.9262,-321.016,0.489988,0.0,0.0
1704,425.75,51.4811,53.2245,120.416,99.5364,93.5145,0.00527901,0.120322,20.9266,-321.026,0.553931,0.0,0.0
1708,426.75,51.2938,53.6452,125.526,99.5247,93.5923,0.00533622,0.119905,20.9276,-321.016,0.545508,0.0,0.0
1712,427.75,51.6001,53.4157,123.057,99.5251,93.2815,0.00536921,0.119533,20.9284,-321.036,0.57507,0.0,0.0
1716,428.75,51.3207,53.4936,120.897,99.5376,94.1448,0.00536329,0.119269,20.929,-321.006,0.494417,0.0,0.0
1720,429.75,51.5493,53.2749,122.901,99.5187,93.2584,0.0053283,0.119107,20.9293,-321.076,0.576688,0.0,0.0
1724,430.75,51.1355,53.3456,125.096,99.5163,93.6318,0.0052995,0.119,20.9295,-321.076,0.541007,0.0,0.0
1728,431.75,51.2126,53.4372,122.645,99.5175,93.7977,0.00527911,0.118956,20.9297,-321.086,0.525401,0.0,0.0
1732,432.75,51.0248,54.0742,124.387,99.5231,93.519,0.00525118,0.118799,20.9298,-321.106,0.552316,0.0,0.0
1736,433.75,51.1414,53.5638,120.28,99.5372,93.799,0.00520644,0.118837,20.9299,-321.106,0.527043,0.0,0.0
1740,434.75,51.4207,53.3914,127.305,99.5179,94.0081,0.00516391,0.118981,20.9299,-321.136,0.505554,0.0,0.0
1744,435.75,50.8463,53.4108,122.296,99.5239,94.4206,0.0051134,0.119137,20.9299,-321.086,0.46723,0.0,0.0
1748,436.75,51.1183,53.2339,124.439,99.5231,93.5433,0.00506446,0.119271,20.9302,-321.106,0.550011,0.0,0.0
1752,437.75,50.9283,53.4056,122.114,99.5199,93.6228,0.00504228,0.119372,20.9304,-321.106,0.542188,0.0,0.0
1756,438.75,50.9891,52.9042,122.456,99.5175,94.0031,0.00506077,0.119458,20.9306,-321.106,0.505983,0.0,0.0
1760,439.75,51.237,53.0589,120.927,99.5102,93.922,0.00509531,0.119361,20.9307,-321.126,0.512998,0.0,0.0
1764,440.75,50.7963,53.1086,121.137,99.5171,93.6046,0.00513304,0.119297,20.9307,-321.126,0.543655,0.0,0.0
1768,441.75,50.8331,53.3814,122.057,99.5115,93.5651,0.00517226,0.119306,20.9308,-321.156,0.546901,0.0,0.0
1772,442.75,50.94,52.6278,122.119,99.5159,93.5672,0.0051947,0.119312,20.9308,-321.177,0.547101,0.0,0.0
1776,443.75,51.2073,52.8668,123.924,99.4978,93.8068,0.00519347,0.119214,20.9307,-321.187,0.522785,0.0,0.0
1780,444.75,50.752,52.9197,123.675,99.5002,93.6602,0.00517338,0.119149,20.9305,-321.167,0.536879,0.0,0.0
1784,445.75,50.9132,53.032,122.828,99.4946,93.6602,0.00512848,0.119107,20.9304,-321.187,0.536376,0.0,0.0
1788,446.75,51.1276,53.2196,120.705,99.4978,93.729,,0.119079,,-321.207,0.53015,0.0,0.0
1792,447.75,51.2938,52.608,123.446,99.4962,93.8002,,0.119137,,-321.237,0.523266,0.0,0.0
1796,448.75,50.751,52.8934,121.896,99.4921,94.2559,,0.119257,,-321.237,0.479888,0.0,0.0
1800,449.75,50.5581,53.1408,123.485,99.4809,93.7228,,,,-321.237,0.529228,0.0,0.0
1804,450.75,50.778,52.962,120.229,99.4857,93.7228,,,,-321.247,0.529658,0.0,0.0
1808,451.75,51.3847,53.1208,122.916,99.4833,94.0225,,,,-321.237,0.501105,0.0,0.0
1812,452.75,50.8156,52.7841,121.372,99.4845,93.7224,,,,-321.247,0.52959,0.0,0.0
1816,453.75,50.5569,53.0246,119.709,99.4809,93.8352,,,,-321.227,0.51859,0.0,0.0
1820,454.75,50.4579,52.9729,122.588,99.4704,93.6207,,,,-321.257,0.537967,0.0,0.0
1824,455.75,50.7596,52.9746,120.587,99.4917,94.1633,,,,-321.267,0.488578,0.0,0.0
1828,456.75,50.8656,53.467,123.232,99.4595,93.7928,,,,-321.287,0.520699,0.0,0.0