File: 01_Data/Wool_Rug/Cone/Wool_Rug_Cone_HF50Scan_220324_R2.csv
Names,Time,Stack TC,Smoke TC,Exh Press,Smoke Comp,Smoke Meas,CO Meter,CO2 Meter,O2 Meter,Sample Mass,Ext Coeff,Start Test,Flame Verif
Chan Gain,,500,500,1,1,1,1,1,1,1,1,1.0,1.0
Offset,,0,0,0.130261,0,0,0,0,0,0,0,0.0,0.0
Gain,,1,1,25.011,13.1874,13.4895,1,1,1,1.00089,1.01187,1.0,1.0
Units,sec,C,C,Pa,%,%,%,%,%,g,/m,,
Baseline,,32.5294,33.4213,151.262,98.5043,92.4935,0.00055504,0.0464906,21.089,-836.201,0.558891,,
4,0.75,30.8862,31.3099,153.04,99.8266,94.0558,0.000778271,0.0545276,21.0742,-302.19,0.528534,0.0,0.0
8,1.75,30.7505,31.9582,154.247,99.8741,93.6759,0.000928851,0.054547,21.0723,-302.17,0.568686,0.0,0.0
12,2.75,30.6601,30.7864,149.229,99.9167,91.9308,0.00115465,0.0554871,21.0704,-302.27,0.739385,0.0,0.0
16,3.75,31.3258,32.0751,151.691,99.9473,85.5603,0.00161255,0.0647571,21.0712,-302.3,1.37954,0.0,0.0
20,4.75,31.0881,32.1274,140.406,99.9948,90.6596,0.00226118,0.0772433,21.0582,-302.62,0.869914,0.0,1.0
24,5.75,31.3729,32.6594,130.836,100.021,92.1222,0.0030524,0.152216,21.018,-302.7,0.730212,0.0,1.0
28,6.75,32.341,33.199,125.994,100.061,91.245,0.0038037,0.235304,20.8896,-302.87,0.818678,0.0,1.0
32,7.75,33.264,33.6957,120.841,100.097,89.2105,0.0045574,0.326263,20.7477,-303.01,1.02204,0.0,1.0
36,8.75,34.875,35.4076,119.708,100.129,90.5633,0.00526471,0.40786,20.6088,-303.221,0.891273,0.0,0.0
40,9.75,35.7013,37.003,125.876,100.157,88.8647,0.00588659,0.474158,20.4982,-303.361,1.06179,0.0,0.0
44,10.75,37.0488,38.51,126.173,100.183,88.8857,0.00635294,0.521825,20.4175,-303.571,1.06197,0.0,0.0
48,11.75,38.7754,39.8993,127.667,100.201,88.7289,0.00674368,0.552684,20.3646,-303.731,1.07929,0.0,0.0
52,12.75,39.9632,41.1112,123.073,100.23,88.7404,0.0070181,0.57061,20.3299,-303.901,1.08067,0.0,0.0
56,13.75,41.3489,42.2696,129.46,100.244,89.2081,0.00721024,0.579448,20.3076,-304.041,1.03526,0.0,0.0
60,14.75,42.1018,43.5954,123.74,100.254,88.6622,0.00732379,0.581537,20.2969,-304.191,1.09063,0.0,0.0
64,15.75,43.7243,45.1789,124.744,100.275,87.2102,0.00734745,0.57675,20.2982,-304.341,1.23905,0.0,0.0
68,16.75,44.182,46.1343,129.792,100.284,86.6298,0.00730102,0.569451,20.3062,-304.472,1.29914,0.0,0.0
72,17.75,45.113,47.1794,130.034,100.299,88.6655,0.00719339,0.557288,20.3184,-304.652,1.09429,0.0,0.0
76,18.75,45.7061,47.8145,125.575,100.305,88.4798,0.00701076,0.543489,20.3354,-304.772,1.1134,0.0,0.0
80,19.75,46.2568,48.5815,126.02,100.31,87.3712,0.00687551,0.529172,20.3493,-304.922,1.22574,0.0,0.0
84,20.75,46.9372,49.7521,131.317,100.317,88.6918,0.00671391,0.516183,20.3673,-305.072,1.09322,0.0,0.0
88,21.75,47.9174,50.3625,134.064,100.314,88.1974,0.00660104,0.504195,20.3875,-305.192,1.14256,0.0,0.0
92,22.75,48.1855,50.6863,131.427,100.32,87.9969,0.0065252,0.494772,20.4065,-305.282,1.16336,0.0,0.0
96,23.75,48.5894,51.1752,127.064,100.317,88.3394,0.00646586,0.483834,20.4213,-305.402,1.1286,0.0,0.0
100,24.75,49.9758,52.7217,129.656,100.305,88.0023,0.00642449,0.473907,20.4341,-305.543,1.16147,0.0,0.0
104,25.75,49.7023,52.3616,135.586,100.303,88.8647,0.00639051,0.464827,20.4452,-305.643,1.07473,0.0,0.0
108,26.75,50.9165,53.4351,133.216,100.298,88.7746,0.00635564,0.455901,20.4577,-305.763,1.08331,0.0,0.0
112,27.75,51.5797,54.2197,132.198,100.287,89.1607,0.00630421,0.446671,20.4716,-305.873,1.04379,0.0,0.0
116,28.75,51.3606,54.0614,128.986,100.278,88.9911,0.0062111,0.439708,20.485,-306.013,1.05987,0.0,0.0
120,29.75,51.9107,54.6888,128.799,100.262,88.3736,0.00607197,0.432904,20.4957,-306.123,1.12028,0.0,0.0
124,30.75,52.4996,55.5656,134.02,100.256,88.5766,0.00590038,0.427852,20.5044,-306.203,1.09935,0.0,0.0
128,31.75,52.7052,55.703,132.714,100.234,89.0319,0.00575325,0.42364,20.5112,-306.303,1.05196,0.0,0.0
132,32.75,52.8862,56.3492,135.375,100.211,88.1492,0.00557507,0.419119,20.5183,-306.433,1.13828,0.0,0.0
136,33.75,53.1022,56.064,131.787,100.19,88.8655,0.00543148,0.414459,20.5254,-306.553,1.0646,0.0,0.0
140,34.75,54.7585,57.4425,131.933,100.168,88.7363,0.00532296,0.408873,20.5332,-306.694,1.07559,0.0,0.0
144,35.75,54.4445,57.8356,133.333,100.145,88.8754,0.00523912,0.403459,20.5412,-306.784,1.05969,0.0,0.0
148,36.75,53.9899,57.13,135.636,100.114,89.3106,0.00515497,0.396305,20.5515,-306.864,1.01359,0.0,0.0
152,37.75,54.5681,57.7823,130.907,100.094,89.0673,0.00503849,0.389917,20.5615,-306.974,1.03602,0.0,0.0
156,38.75,54.6157,57.9241,135.119,100.068,88.4848,0.00492966,0.383953,20.5704,-307.084,1.09194,0.0,0.0
160,39.75,55.0964,58.4835,129.921,100.046,89.2533,0.00474982,0.378303,20.5781,-307.194,1.01317,0.0,0.0
164,40.75,55.0185,58.4808,135.695,100.019,89.3962,0.00457767,0.372746,20.5863,-307.344,0.996585,0.0,0.0
168,41.75,55.3113,58.6466,133.461,99.9855,89.2196,0.00441286,0.36818,20.5943,-307.394,1.01121,0.0,0.0
172,42.75,55.4602,58.8143,137.023,99.9646,89.2854,0.00424165,0.363865,20.6006,-307.484,1.0028,0.0,0.0
176,43.75,55.6303,59.146,132.251,99.9417,89.558,0.00406902,0.360355,20.6064,-307.614,0.973712,0.0,0.0
180,44.75,55.7536,59.3647,134.828,99.901,89.271,0.00388638,0.356759,20.6117,-307.725,0.998585,0.0,0.0
184,45.75,55.7643,59.2617,135.052,99.8652,89.9149,0.00374442,0.353299,20.6163,-307.875,0.931615,0.0,0.0
188,46.75,56.1686,59.8658,134.409,99.8399,90.0092,0.00365595,0.349355,20.6206,-307.895,0.92006,0.0,0.0
192,47.75,56.3667,59.8355,133.841,99.8069,90.0602,0.00363254,0.345539,20.6259,-308.055,0.912093,0.0,0.0
196,48.75,56.4707,60.1468,138.01,99.7714,89.9972,0.00366326,0.341652,20.6297,-308.135,0.915154,0.0,0.0
200,49.75,56.6804,60.2914,135.417,99.7473,90.1676,0.00369581,0.338705,20.6347,-308.235,0.896211,0.0,0.0
204,50.75,56.8249,60.5709,137.179,99.7151,90.5587,0.00373067,0.334075,20.6423,-308.345,0.854931,0.0,0.0
208,51.75,56.8963,60.6555,138.463,99.6946,90.6695,0.00374577,0.329801,20.6502,-308.455,0.842256,0.0,0.0
212,52.75,56.9363,60.7189,136.115,99.6684,90.7621,0.0037477,0.326086,20.6578,-308.545,0.830865,0.0,0.0
216,53.75,57.1535,60.8638,137.065,99.6515,91.4846,0.00372591,0.322512,20.664,-308.625,0.758984,0.0,0.0
220,54.75,57.3179,61.1837,133.352,99.6282,91.3047,0.00367708,0.319557,20.669,-308.705,0.774376,0.0,0.0
224,55.75,57.4217,61.1742,129.779,99.5875,91.2857,0.00361382,0.317036,20.6728,-308.855,0.772595,0.0,0.0
228,56.75,57.476,61.4488,135.08,99.5714,90.7201,0.003547,0.315098,20.6759,-308.916,0.82633,0.0,0.0
232,57.75,57.368,61.3323,138.03,99.5529,90.7946,0.0034969,0.313165,20.6792,-309.016,0.817393,0.0,0.0
236,58.75,57.6351,61.4343,134.931,99.5404,91.2347,0.00345805,0.311122,20.6832,-309.116,0.773363,0.0,0.0
240,59.75,57.6527,61.6679,136.67,99.5131,91.0564,0.00342855,0.308548,20.6876,-309.216,0.788281,0.0,0.0
244,60.75,57.4456,61.4743,133.488,99.4998,90.4822,0.00339796,0.305915,20.6913,-309.306,0.843253,0.0,0.0
248,61.75,57.6305,61.5531,137.911,99.5457,91.9333,0.00340485,0.303331,20.695,-309.426,0.706123,0.0,0.0
252,62.75,57.906,62.0971,140.532,99.598,91.4652,0.00343632,0.301209,20.6984,-309.526,0.756094,0.0,0.0
256,63.75,58.0684,61.8713,137.126,99.6455,91.3434,0.00345922,0.29956,20.7008,-309.636,0.772157,0.0,0.0
260,64.75,57.6821,61.7854,133.582,99.6837,91.5607,0.00342707,0.298033,20.7037,-309.686,0.754466,0.0,0.0
264,65.75,57.7913,61.7622,133.574,99.7332,90.8716,0.00334537,0.296292,20.7065,-309.816,0.825931,0.0,0.0
268,66.75,58.172,62.0968,138.791,99.7638,91.3006,0.0032696,0.29447,20.7092,-309.896,0.786852,0.0,0.0
272,67.75,58.1924,62.4213,138.16,99.802,91.7382,0.00316581,0.292909,20.7111,-310.017,0.747812,0.0,0.0
276,68.75,57.7949,61.9936,137.714,99.8306,91.7007,0.00309323,0.291584,20.7133,-310.117,0.753978,0.0,0.0
280,69.75,57.8274,61.9657,136.043,99.8556,91.8044,0.00305906,0.289864,20.7159,-310.207,0.746161,0.0,0.0
284,70.75,57.6437,61.8114,135.766,99.8809,91.6834,0.00305682,0.288133,20.718,-310.287,0.760123,0.0,0.0
288,71.75,57.9708,62.3058,137.375,99.9063,91.6846,0.00308633,0.28668,20.7194,-310.387,0.762256,0.0,0.0
292,72.75,57.9465,62.1876,136.684,99.9429,91.711,0.00313946,0.285485,20.7211,-310.447,0.762959,0.0,0.0
296,73.75,58.1597,62.3812,134.727,99.9497,91.4372,0.00318136,0.284157,20.7235,-310.537,0.790101,0.0,0.0
300,74.75,57.992,62.1018,135.937,99.9751,92.0778,0.00320884,0.282998,20.7254,-310.657,0.730389,0.0,0.0
304,75.75,58.1569,62.4019,136.969,99.9799,92.5598,0.00323572,0.281858,20.7269,-310.717,0.684469,0.0,0.0
308,76.75,58.1461,62.3927,140.948,100.003,91.8637,0.00326989,0.281364,20.7284,-310.817,0.753514,0.0,0.0
312,77.75,58.2141,62.4826,137.503,100.008,91.7579,0.00328726,0.281226,20.7295,-310.917,0.764171,0.0,0.0
316,78.75,58.3672,62.5249,134.169,100.01,91.7472,0.00326901,0.281101,20.7301,-311.027,0.76542,0.0,0.0
320,79.75,58.6462,62.6731,135.766,100.025,92.4557,0.00319252,0.280621,20.7314,-311.098,0.698427,0.0,0.0
324,80.75,58.3384,62.689,136.648,100.027,91.9152,0.00311594,0.279486,20.7335,-311.158,0.750686,0.0,0.0
328,81.75,58.4362,62.8571,138.102,100.025,92.7225,0.00302655,0.278023,20.7352,-311.298,0.672926,0.0,0.0
332,82.75,57.4991,62.1298,133.942,100.027,92.5623,0.00295828,0.276625,20.7363,-311.378,0.688376,0.0,0.0
336,83.75,58.3618,62.3816,134.862,100.023,92.2165,0.00289839,0.276832,20.7366,-311.458,0.721277,0.0,0.0
340,84.75,57.4902,62.1993,135.908,100.009,92.7266,0.00284163,0.277966,20.736,-311.498,0.671068,0.0,0.0
344,85.75,58.0963,62.8337,142.455,99.9968,92.8155,0.00277306,0.279424,20.7352,-311.628,0.661489,0.0,0.0
348,86.75,58.1433,62.3517,135.099,99.9859,92.9748,0.00270346,0.280768,20.7347,-311.718,0.645301,0.0,0.0
352,87.75,58.1401,62.6893,138.826,99.9586,92.9061,0.00262568,0.281521,20.7344,-311.778,0.649438,0.0,0.0
356,88.75,57.8137,62.5766,137.155,99.9465,92.5413,0.00252889,0.281555,20.7342,-311.868,0.68328,0.0,0.0
360,89.75,58.0823,62.852,141.918,99.9304,92.2799,0.00244693,0.280767,20.7353,-311.978,0.706958,0.0,0.0
364,90.75,58.45,62.4272,142.798,99.9175,93.0522,0.00240102,0.279859,20.7371,-312.068,0.63184,0.0,0.0
368,91.75,58.1789,62.2565,140.148,99.8777,92.6496,0.00237955,0.277914,20.7397,-312.138,0.666788,0.0,0.0
372,92.75,57.9322,62.3804,138.879,99.8547,92.8175,0.00236055,0.27602,20.7417,-312.208,0.648673,0.0,0.0
376,93.75,57.9333,62.4756,137.666,99.8205,93.1539,0.00233224,0.275002,20.743,-312.359,0.613526,0.0,0.0
380,94.75,58.0713,62.4796,137.514,99.7899,92.5747,0.00230588,0.275232,20.7439,-312.429,0.666168,0.0,0.0
384,95.75,58.1922,62.7575,139.587,99.7521,92.9378,0.00226763,0.276004,20.7439,-312.489,0.628057,0.0,0.0
388,96.75,57.7595,62.3565,137.561,99.7058,93.3078,0.00223649,0.276767,20.7435,-312.579,0.588663,0.0,0.0
392,97.75,57.9859,62.6015,139.649,99.6636,92.8003,0.00221289,0.277291,20.7432,-312.659,0.633317,0.0,0.0
396,98.75,58.1609,62.1341,137.88,99.6028,92.8649,0.00218179,0.276762,20.7432,-312.739,0.621724,0.0,0.0
400,99.75,58.4226,62.6437,135.541,99.5585,92.9036,0.00213238,0.276084,20.744,-312.819,0.61408,0.0,0.0
404,100.75,58.2628,62.565,143.021,99.4885,92.3433,0.00207543,0.275487,20.7452,-312.899,0.661527,0.0,0.0
408,101.75,58.0791,62.3581,137.1,99.4354,92.664,0.00205285,0.274642,20.7459,-312.989,0.626014,0.0,0.0
412,102.75,58.137,62.5378,137.915,99.3613,91.8522,0.00207713,0.273281,20.748,-313.089,0.697506,0.0,0.0
416,103.75,57.9998,62.7535,139.606,99.301,92.3095,0.00212672,0.271902,20.7494,-313.179,0.648023,0.0,0.0
420,104.75,58.1714,62.6692,135.808,99.2225,92.3832,0.00220504,0.270759,20.7503,-313.229,0.633924,0.0,0.0
424,105.75,58.2357,62.4851,139.471,99.1428,92.4236,0.00228648,0.270513,20.7509,-313.329,0.622918,0.0,0.0
428,106.75,58.1174,62.4948,136.072,99.1259,91.8909,0.00235876,0.270828,20.7513,-313.4,0.67271,0.0,0.0
432,107.75,58.3045,62.5875,138.244,99.138,92.6051,0.00242046,0.270894,20.7516,-313.5,0.605067,0.0,0.0
436,108.75,57.9487,62.3248,136.753,99.1432,91.8641,0.00245444,0.270517,20.7525,-313.58,0.676846,0.0,0.0
440,109.75,57.7854,62.0204,134.709,99.1476,92.2667,0.00245048,0.270006,20.7538,-313.66,0.638425,0.0,0.0
444,110.75,57.9558,62.7287,139.868,99.169,92.1646,0.00241472,0.26963,20.7548,-313.69,0.650162,0.0,0.0
448,111.75,57.9887,62.2576,138.657,99.1726,91.9642,0.00237485,0.269408,20.756,-313.8,0.669814,0.0,0.0
452,112.75,57.8213,62.2609,138.288,99.2024,92.1659,0.00236802,0.268731,20.757,-313.9,0.653032,0.0,0.0
456,113.75,57.8301,62.356,138.141,99.2193,91.8028,0.00240694,0.268427,20.7578,-313.95,0.68958,0.0,0.0
460,114.75,58.0564,62.4516,138.797,99.2426,92.1111,0.00246101,0.268117,20.7582,-314.06,0.661906,0.0,0.0
464,115.75,58.4047,62.576,137.725,99.2696,91.6743,0.0025053,0.267862,20.7585,-314.14,0.706507,0.0,0.0
468,116.75,57.9513,62.3349,140.902,99.2978,91.5035,0.00250585,0.267887,20.7587,-314.23,0.725582,0.0,0.0
472,117.75,57.5521,62.1005,139.51,99.3074,91.6933,0.00248119,0.267988,20.7589,-314.32,0.708055,0.0,0.0
476,118.75,57.2629,61.9416,136.411,99.3275,91.6521,0.00240165,0.268079,20.7589,-314.39,0.713839,0.0,0.0
480,119.75,57.9259,62.4198,137.611,99.3465,91.9572,0.00232132,0.266881,20.7597,-314.43,0.686036,0.0,0.0
484,120.75,57.9628,62.505,138.51,99.367,92.4524,0.00227721,0.265472,20.7622,-314.511,0.640196,0.0,0.0
488,121.75,57.9337,62.1773,141.179,99.3867,92.2935,0.00227588,0.263027,20.7659,-314.601,0.657227,0.0,0.0
492,122.75,58.0403,62.3311,139.562,99.4056,92.6838,0.00228635,0.260728,20.769,-314.671,0.621463,0.0,0.0
496,123.75,57.6116,62.4293,140.956,99.4217,91.8761,0.00230395,0.259442,20.7719,-314.731,0.700589,0.0,0.0
500,124.75,57.6001,61.9093,137.91,99.4446,92.0877,0.00231009,0.258848,20.7738,-314.841,0.682218,0.0,0.0
504,125.75,57.5726,62.0377,136.556,99.4519,91.9333,0.00231644,0.258305,20.775,-314.901,0.697758,0.0,0.0
508,126.75,57.5214,61.9351,138.597,99.4732,91.9662,0.0023301,0.257739,20.7767,-314.991,0.696482,0.0,0.0
512,127.75,57.4383,61.983,135.794,99.5082,91.5924,0.00235126,0.257093,20.7775,-315.061,0.735756,0.0,0.0
516,128.75,57.3033,61.7571,138.651,99.5255,92.0276,0.00239372,0.256481,20.7783,-315.141,0.695231,0.0,0.0
520,129.75,57.6062,61.7714,142.392,99.5525,92.261,0.00245181,0.255756,20.7788,-315.191,0.67515,0.0,0.0
524,130.75,57.6036,62.1054,139.889,99.5762,91.8312,0.00256426,0.254974,20.7799,-315.291,0.718711,0.0,0.0
528,131.75,57.4015,61.7685,140.722,99.5883,91.8291,0.00268267,0.253727,20.7815,-315.351,0.719987,0.0,0.0
532,132.75,56.9764,61.6351,138.683,99.5996,92.4083,0.00277233,0.252991,20.7825,-315.431,0.665181,0.0,0.0
536,133.75,57.3603,61.9081,136.973,99.6362,91.8275,0.00281056,0.252552,20.7832,-315.521,0.724414,0.0,0.0
540,134.75,57.4069,61.8855,137.499,99.6302,92.0296,0.00280863,0.25221,20.7845,-315.572,0.70436,0.0,0.0
544,135.75,57.2786,61.9103,138.232,99.6483,91.8901,0.00278498,0.252012,20.7853,-315.602,0.719442,0.0,0.0
548,136.75,57.4633,61.7228,138.123,99.6531,91.6307,0.00276575,0.251802,20.7858,-315.672,0.74496,0.0,0.0
552,137.75,56.9267,62.019,142.965,99.668,91.6241,0.00275384,0.251498,20.7862,-315.752,0.746924,0.0,0.0
556,138.75,56.8385,61.4137,140.527,99.6833,91.5303,0.00275397,0.251144,20.7867,-315.822,0.757383,0.0,0.0
560,139.75,57.1436,61.6462,148.432,99.6664,91.1692,0.00276549,0.250716,20.7875,-315.912,0.790958,0.0,0.0
564,140.75,56.9548,61.3799,141.515,99.6596,91.4545,0.00277906,0.2498,20.7886,-315.982,0.762617,0.0,0.0
568,141.75,57.0595,61.0097,140.102,99.6571,90.7794,0.0028321,0.248872,20.7904,-316.042,0.82817,0.0,0.0
572,142.75,56.6826,61.2448,137.714,99.6507,91.9761,0.00289997,0.247872,20.7923,-316.092,0.71135,0.0,0.0
576,143.75,56.8749,61.3927,143.324,99.6479,91.6711,0.00295085,0.246957,20.7936,-316.182,0.740587,0.0,0.0
580,144.75,56.9048,61.1726,137.556,99.6378,92.1873,0.00297995,0.245927,20.7952,-316.282,0.689847,0.0,0.0
584,145.75,56.1439,60.6743,138.146,99.6225,91.2837,0.00298474,0.245059,20.7971,-316.292,0.775915,0.0,0.0
588,146.75,56.6416,60.7718,140.765,99.5992,91.0219,0.00296995,0.244489,20.7983,-316.362,0.79933,0.0,0.0
592,147.75,56.8185,61.1953,140.794,99.5734,90.7362,0.00295129,0.244007,20.7998,-316.442,0.824939,0.0,0.0
596,148.75,56.7406,60.6795,140.752,99.5573,91.3384,0.00294352,0.243464,20.8009,-316.502,0.764783,0.0,0.0
600,149.75,56.2346,60.5993,143.405,99.532,90.6666,0.0029586,0.242917,20.8021,-316.552,0.828052,0.0,0.0
604,150.75,56.0332,60.0203,136.907,99.5046,90.5563,0.00297892,0.242366,20.8032,-316.663,0.836418,0.0,0.0
608,151.75,55.7902,60.2072,142.151,99.4636,91.5113,0.00301378,0.241638,20.804,-316.703,0.739632,0.0,0.0
612,152.75,55.4871,59.9091,138.668,99.4257,91.1178,0.00302711,0.240596,20.8057,-316.793,0.774511,0.0,0.0
616,153.75,56.0388,60.4259,138.385,99.404,90.9346,0.00300447,0.239473,20.8073,-316.863,0.790434,0.0,0.0
620,154.75,55.9982,59.9383,144.1,99.3585,91.3582,0.00296049,0.238827,20.8082,-316.903,0.74512,0.0,0.0
624,155.75,56.4191,60.8952,134.108,99.3231,90.7695,0.002907,0.238447,20.8095,-316.963,0.799336,0.0,0.0
628,156.75,55.4859,60.0712,142.891,99.2869,91.0754,0.00286071,0.23796,20.8099,-317.053,0.766238,0.0,0.0
632,157.75,55.7148,59.804,140.72,99.2487,90.4727,0.00282416,0.237606,20.81,-317.083,0.821751,0.0,0.0
636,158.75,55.9156,60.2309,137.795,99.2016,90.8539,0.0027964,0.237832,20.8103,-317.183,0.780219,0.0,0.0
640,159.75,55.8525,60.0973,138.503,99.1597,90.8535,0.00278414,0.238335,20.8108,-317.203,0.776513,0.0,0.0
644,160.75,55.6217,59.9199,134.831,99.1159,90.9465,0.00278075,0.23884,20.8106,-317.293,0.763502,0.0,0.0
648,161.75,55.6868,59.8394,138.933,99.076,90.6785,0.00278012,0.238733,20.8104,-317.353,0.786126,0.0,0.0
652,162.75,55.466,59.8881,139.004,99.0225,90.2599,0.00277746,0.238748,20.8103,-317.433,0.822406,0.0,0.0
656,163.75,55.8649,59.9995,141.647,98.977,89.5794,0.00277572,0.238912,20.8103,-317.483,0.8855,0.0,0.0
660,164.75,55.6685,59.8107,138.107,98.9259,90.4241,0.00277458,0.238917,20.8102,-317.553,0.797605,0.0,0.0
664,165.75,55.4532,59.7371,141.438,98.8848,89.7156,0.0027895,0.238705,20.8098,-317.583,0.86374,0.0,0.0
668,166.75,55.5139,59.6432,137.558,98.8454,89.7214,0.00281273,0.238479,20.8101,-317.653,0.85963,0.0,0.0
672,167.75,55.2244,59.6382,142.764,98.8019,90.1899,0.00285262,0.238244,20.8105,-317.713,0.809499,0.0,0.0
676,168.75,55.3244,59.3438,138.83,98.7754,89.821,0.0029281,0.238325,20.8107,-317.794,0.843488,0.0,0.0
680,169.75,55.2393,59.5001,143.94,98.7074,89.5106,0.00301474,0.238875,20.8109,-317.844,0.868101,0.0,0.0
684,170.75,55.325,59.5504,142.985,98.6691,89.5753,0.00309749,0.239667,20.8105,-317.894,0.858255,0.0,0.0
688,171.75,55.7221,59.8423,138.056,98.6361,89.5765,0.0031541,0.240298,20.8099,-317.954,0.855164,0.0,0.0
692,172.75,55.1641,59.4412,139.874,98.6003,89.4015,0.00317734,0.240515,20.8096,-318.014,0.869294,0.0,0.0
696,173.75,55.0747,59.1446,133.384,98.5725,89.4365,0.00316182,0.240463,20.8101,-318.044,0.86332,0.0,0.0
700,174.75,55.3834,59.5057,141.865,98.5283,89.1978,0.0031264,0.239962,20.8105,-318.094,0.883061,0.0,0.0
704,175.75,55.2703,59.1442,140.806,98.5033,89.1685,0.00308943,0.239266,20.8107,-318.164,0.883721,0.0,0.0
708,176.75,55.1718,59.2769,140.882,98.4679,88.7536,0.0030562,0.238801,20.8109,-318.254,0.921932,0.0,0.0
712,177.75,55.0506,59.2014,135.617,98.4393,89.1385,0.00302804,0.239045,20.811,-318.284,0.880946,0.0,0.0
716,178.75,55.1896,59.1975,135.415,98.4305,89.0664,0.0030237,0.239507,20.811,-318.334,0.887324,0.0,0.0
720,179.75,55.0791,59.3006,140.576,98.3999,89.4633,0.00304055,0.239878,20.8111,-318.424,0.845104,0.0,0.0
724,180.75,55.1687,59.1472,137.473,98.3798,88.6432,0.00305217,0.24037,20.8109,-318.444,0.925024,0.0,0.0
728,181.75,55.3184,59.2583,144.55,98.3653,88.7507,0.00304068,0.240874,20.8102,-318.534,0.912965,0.0,0.0
732,182.75,54.7992,58.7957,146.836,98.3472,88.6358,0.00300772,0.241166,20.8097,-318.634,0.922826,0.0,0.0
736,183.75,54.8992,58.8797,143.48,98.3395,88.7194,0.00294353,0.241302,20.8086,-318.664,0.913769,0.0,0.0
740,184.75,54.7907,58.9857,136.663,98.3411,88.5506,0.00287125,0.241887,20.8078,-318.734,0.930818,0.0,0.0
744,185.75,54.9408,59.1904,138.384,98.3347,89.0063,0.00278578,0.242379,20.8074,-318.774,0.884673,0.0,0.0
748,186.75,54.8174,58.673,141.057,98.3472,88.3501,0.00273865,0.242774,20.8071,-318.824,0.951481,0.0,0.0
752,187.75,54.8412,59.0983,139.613,98.3596,88.9162,0.00273123,0.243045,20.807,-318.894,0.895921,0.0,0.0
756,188.75,54.7011,58.707,140.591,98.3713,88.4333,0.00275528,0.243253,20.8072,-318.965,0.945311,0.0,0.0
760,189.75,54.7472,58.5985,144.359,98.3926,88.5025,0.00277778,0.243414,20.8066,-319.035,0.940295,0.0,0.0
764,190.75,54.7152,58.646,142.005,98.412,88.9096,0.00278936,0.243672,20.8062,-319.085,0.901299,0.0,0.0
768,191.75,54.4459,58.2418,140.563,98.4365,88.472,0.00277234,0.244034,20.8059,-319.115,0.947308,0.0,0.0
772,192.75,55.1789,58.8662,138.375,98.4715,88.4983,0.00274529,0.244551,20.8057,-319.175,0.947821,0.0,0.0
776,193.75,55.4514,59.1676,141.131,98.5045,88.6062,0.0027208,0.245458,20.8052,-319.255,0.939984,0.0,0.0
780,194.75,54.8117,58.476,134.138,98.5512,88.502,0.00271881,0.246933,20.8036,-319.315,0.95463,0.0,0.0
784,195.75,53.9887,58.1446,137.192,98.5907,88.2876,0.00275279,0.248285,20.8026,-319.405,0.979718,0.0,0.0
788,196.75,54.1668,58.3812,137.601,98.6385,89.0948,0.00281078,0.249063,20.8019,-319.445,0.903236,0.0,0.0
792,197.75,54.944,59.0245,141.109,98.6744,88.3913,0.00286417,0.249304,20.802,-319.475,0.976827,0.0,0.0
796,198.75,54.2565,58.5458,141.785,98.717,88.9277,0.00290466,0.248901,20.8023,-319.525,0.926962,0.0,0.0
800,199.75,53.8206,57.7885,141.91,98.7641,88.2559,0.00293563,0.248029,20.8026,-319.605,0.998507,0.0,0.0
804,200.75,54.8158,58.4257,139.41,98.8221,88.1262,0.00295118,0.247127,20.8035,-319.695,1.01676,0.0,0.0
808,201.75,54.6669,58.8229,142.517,98.884,88.8532,0.00295689,0.246424,20.8042,-319.755,0.949408,0.0,0.0
812,202.75,54.4007,58.2085,144.614,98.9396,88.9701,0.00296065,0.245985,20.8046,-319.795,0.942719,0.0,0.0
816,203.75,54.3063,57.9863,140.7,98.9979,88.5782,0.00296535,0.246072,20.8042,-319.825,0.987138,0.0,0.0
820,204.75,54.4554,58.6825,141.257,99.0466,88.6918,0.0029774,0.24664,20.8032,-319.895,0.980124,0.0,0.0
824,205.75,54.7663,58.4042,136.602,99.1122,88.6729,0.00298902,0.247545,20.8023,-319.925,0.987896,0.0,0.0
828,206.75,54.5178,58.4608,137.51,99.1698,89.1862,0.0030009,0.248259,20.8018,-320.005,0.941811,0.0,0.0
832,207.75,54.4327,58.0929,139.908,99.2181,88.9207,0.0030123,0.248629,20.8014,-320.066,0.972598,0.0,0.0
836,208.75,54.6779,58.725,141.435,99.276,88.5564,0.00302861,0.248375,20.8011,-320.146,1.01422,0.0,0.0
840,209.75,54.1066,57.862,141.583,99.3396,89.5436,0.00304133,0.248143,20.801,-320.226,0.921508,0.0,0.0
844,210.75,54.7135,58.3162,140.99,99.3855,88.9475,0.00303553,0.2483,20.8006,-320.256,0.984892,0.0,0.0
848,211.75,54.3298,58.0653,139.902,99.4479,88.91,0.00300674,0.248687,20.8,-320.296,0.994201,0.0,0.0
852,212.75,54.4666,58.3906,141.406,99.5284,89.4711,0.00296972,0.248961,20.7997,-320.386,0.945542,0.0,0.0
856,213.75,54.4551,58.2054,140.254,99.5791,88.9903,0.00291514,0.248998,20.7997,-320.436,0.997893,0.0,0.0
860,214.75,54.3848,57.8144,139.881,99.6306,89.7296,0.00287486,0.248866,20.8004,-320.496,0.929042,0.0,0.0
864,215.75,53.8317,57.6991,138.603,99.6889,89.2924,0.00284126,0.248865,20.801,-320.536,0.977593,0.0,0.0
868,216.75,54.1264,57.8332,145.055,99.7392,88.7421,0.0027972,0.248864,20.8014,-320.566,1.03695,0.0,0.0
872,217.75,54.5243,58.1494,139.351,99.7936,89.3316,0.00275718,0.24897,20.8017,-320.666,0.983018,0.0,0.0
876,218.75,53.8313,57.9346,142.338,99.8483,89.1521,0.0027533,0.249279,20.8019,-320.706,1.00574,0.0,0.0
880,219.75,53.9879,57.6945,139.017,99.8934,89.4802,0.00280194,0.249697,20.8015,-320.746,0.977137,0.0,0.0
884,220.75,53.7683,57.645,140.38,99.9457,89.537,0.00287235,0.250138,20.8009,-320.796,0.976152,0.0,0.0
888,221.75,54.5778,57.854,142.798,99.9807,89.6349,0.00293757,0.250565,20.8006,-320.876,0.969553,0.0,0.0
892,222.75,54.3843,57.7977,137.743,100.027,89.3497,0.0029974,0.250946,20.8003,-320.956,1.00196,0.0,0.0
896,223.75,54.1968,57.8593,141.478,100.063,88.938,0.00305271,0.250858,20.8001,-320.996,1.04616,0.0,0.0
900,224.75,54.1762,58.0257,137.098,100.118,89.7877,0.00308931,0.25031,20.8006,-321.076,0.966652,0.0,0.0
904,225.75,53.9462,57.827,140.915,100.136,89.2369,0.0031103,0.249174,20.8008,-321.156,1.02284,0.0,0.0
908,226.75,53.9692,57.9074,138.192,100.192,88.8548,0.00309465,0.248678,20.8014,-321.217,1.06584,0.0,0.0
912,227.75,54.1779,58.3188,142.048,100.219,89.2554,0.00306604,0.248722,20.8022,-321.257,1.02831,0.0,0.0
916,228.75,54.0269,57.4777,142.296,100.231,89.2776,0.00302933,0.249003,20.8027,-321.337,1.0272,0.0,0.0
920,229.75,54.1653,58.0354,145.373,100.253,89.9231,0.00297144,0.249108,20.8031,-321.347,0.965217,0.0,0.0
924,230.75,54.0885,58.0662,148.417,100.269,89.4267,0.00291301,0.248928,20.8033,-321.407,1.01578,0.0,0.0
928,231.75,53.8684,57.3681,140.143,100.28,89.3348,0.00287579,0.248516,20.8034,-321.467,1.02583,0.0,0.0
932,232.75,53.9604,57.7043,140.514,100.293,89.8235,0.00286038,0.247722,20.8048,-321.537,0.978585,0.0,0.0
936,233.75,54.0322,57.6788,134.267,100.304,89.2295,0.00289779,0.246732,20.8062,-321.587,1.03848,0.0,0.0
940,234.75,53.7501,57.3163,142.564,100.316,89.2904,0.00293239,0.246192,20.8076,-321.617,1.03341,0.0,0.0
944,235.75,54.1487,57.7348,141.206,100.322,89.3575,0.00297473,0.245807,20.8084,-321.687,1.02735,0.0,0.0
948,236.75,54.5004,57.9696,137.827,100.318,89.2595,0.00302161,0.245324,20.8098,-321.747,1.03673,0.0,0.0
952,237.75,53.9744,57.5152,141.34,100.31,89.3818,0.00307751,0.244955,20.811,-321.787,1.0238,0.0,0.0
956,238.75,54.1238,57.6304,140.68,100.314,89.3171,0.00313965,0.244549,20.8123,-321.827,1.03061,0.0,0.0
960,239.75,54.0434,57.6944,140.774,100.307,89.4695,0.00321066,0.243939,20.8132,-321.927,1.01485,0.0,0.0
964,240.75,54.0505,57.5823,142.044,100.294,89.3974,0.00331566,0.24317,20.8144,-321.977,1.02086,0.0,0.0
968,241.75,53.6538,57.154,144.632,100.279,89.0298,0.00342051,0.242243,20.816,-322.017,1.05615,0.0,0.0
972,242.75,54.0018,57.4483,139.643,100.271,89.4155,0.0035073,0.241325,20.8173,-322.067,1.01706,0.0,0.0
976,243.75,53.5687,57.2928,140.999,100.266,89.7535,0.0035485,0.240681,20.8185,-322.137,0.98308,0.0,0.0
980,244.75,53.8674,57.4348,146.391,100.244,88.6218,0.00352594,0.24016,20.8197,-322.177,1.09375,0.0,0.0
984,245.75,53.8926,57.3819,142.816,100.226,89.5061,0.00345934,0.239613,20.8207,-322.197,1.00405,0.0,0.0
988,246.75,53.5428,56.922,142.645,100.201,89.3225,0.00338449,0.23894,20.822,-322.257,1.02011,0.0,0.0
992,247.75,53.872,57.357,140.339,100.18,89.7897,0.00329724,0.238256,20.8228,-322.338,0.971943,0.0,0.0
996,248.75,53.6331,57.1612,143.052,100.148,89.1533,0.00326692,0.237691,20.824,-322.378,1.03223,0.0,0.0
1000,249.75,53.4556,57.1416,138.201,100.123,89.2653,0.00329641,0.237105,20.8249,-322.428,1.01887,0.0,0.0
1004,250.75,53.4252,56.7707,139.971,100.101,89.7399,0.00334271,0.236465,20.8262,-322.488,0.96984,0.0,0.0
1008,251.75,53.3086,56.6842,140.959,100.069,89.1994,0.00335961,0.235568,20.8278,-322.518,1.02061,0.0,0.0
1012,252.75,53.6079,57.008,141.596,100.058,88.5082,0.00333253,0.23424,20.8297,-322.558,1.08873,0.0,0.0
1016,253.75,53.3465,56.9739,142.84,100.015,89.4332,0.00328625,0.232736,20.8313,-322.628,0.992586,0.0,0.0
1020,254.75,53.1414,56.6479,143.546,99.9787,89.3155,0.00322822,0.231463,20.833,-322.658,1.00106,0.0,0.0
1024,255.75,53.3208,56.7155,143.954,99.9525,89.0055,0.00317902,0.230349,20.8341,-322.718,1.0296,0.0,0.0
1028,256.75,53.304,56.6723,140.751,99.9368,89.5888,0.00315293,0.229115,20.8349,-322.788,0.970224,0.0,0.0
1032,257.75,53.197,56.6154,141.193,99.8906,88.8832,0.00316438,0.228263,20.8358,-322.788,1.0363,0.0,0.0
1036,258.75,52.9,56.4497,141.059,99.8644,88.9314,0.00320957,0.227716,20.8369,-322.888,1.02916,0.0,0.0
1040,259.75,53.1804,56.6519,143,99.8306,89.215,0.0032596,0.227415,20.838,-322.928,0.997894,0.0,0.0
1044,260.75,52.9361,56.3949,143.524,99.7964,89.36,0.00328733,0.226727,20.8392,-322.958,0.980447,0.0,0.0
1048,261.75,53.0263,56.4319,143.517,99.759,89.3283,0.00328894,0.22595,20.8408,-323.008,0.980266,0.0,0.0
1052,262.75,52.4038,55.9019,140.315,99.726,88.621,0.00328906,0.225168,20.8419,-323.068,1.04788,0.0,0.0
1056,263.75,52.6337,55.9752,142.247,99.6942,88.5794,0.00328812,0.224698,20.8426,-323.108,1.04922,0.0,0.0
1060,264.75,53.2402,56.6439,140.497,99.6592,88.0669,0.00328113,0.224872,20.843,-323.178,1.09761,0.0,0.0
1064,265.75,52.6914,56.3421,140.051,99.6302,88.3242,0.00323861,0.225219,20.8433,-323.218,1.06913,0.0,0.0
1068,266.75,52.7435,55.9286,145.799,99.6068,88.987,0.0031948,0.225253,20.8435,-323.258,1.0007,0.0,0.0
1072,267.75,52.7636,56.1049,142.165,99.5746,88.8972,0.00316783,0.224878,20.8437,-323.318,1.00678,0.0,0.0
1076,268.75,52.8844,56.2947,141.042,99.542,89.229,0.00317788,0.224606,20.8438,-323.338,0.970808,0.0,0.0
1080,269.75,52.4204,55.7932,142.446,99.5215,88.7478,0.00323757,0.224868,20.8438,-323.409,1.01698,0.0,0.0
1084,270.75,52.6849,55.9291,141,99.5175,87.7125,0.0033242,0.225356,20.8436,-323.439,1.12078,0.0,0.0
1088,271.75,52.4787,55.6127,141.18,99.4869,88.8388,0.0034066,0.225921,20.8429,-323.509,1.0048,0.0,0.0
1092,272.75,52.5971,55.7324,143.928,99.5376,88.6441,0.00346545,0.226264,20.8424,-323.539,1.0288,0.0,0.0
1096,273.75,52.4315,55.7616,136.682,99.6145,88.3254,0.00350305,0.226435,20.8421,-323.609,1.06761,0.0,0.0
1100,274.75,52.5686,55.9927,137.591,99.6684,88.4407,0.00347604,0.226629,20.8419,-323.639,1.06084,0.0,0.0
1104,275.75,52.4249,55.8301,142.318,99.7211,88.2151,0.00340878,0.227138,20.8418,-323.719,1.0882,0.0,0.0
1108,276.75,52.3998,55.7315,141.158,99.7694,88.2559,0.00331542,0.228203,20.8411,-323.769,1.0884,0.0,0.0
1112,277.75,52.2817,55.7742,139.955,99.8201,87.7224,0.00324071,0.229415,20.8404,-323.789,1.14673,0.0,0.0
1116,278.75,52.3459,55.5833,142.977,99.8588,88.2176,0.00319365,0.230412,20.84,-323.869,1.1002,0.0,0.0
1120,279.75,52.3604,55.281,143.223,99.8938,88.3119,0.0031682,0.230779,20.8397,-323.919,1.09383,0.0,0.0
1124,280.75,51.9622,55.1502,140.199,99.9336,88.5346,0.00315309,0.230652,20.8395,-323.949,1.07501,0.0,0.0
1128,281.75,51.5034,54.8455,138.765,99.9602,87.8866,0.00313611,0.230478,20.8399,-323.989,1.14257,0.0,0.0
1132,282.75,51.9382,55.4991,140.132,99.9835,88.6754,0.0031107,0.230097,20.8404,-324.029,1.06534,0.0,0.0
1136,283.75,51.712,55.3304,138.181,99.9948,89.4234,0.00307127,0.229502,20.8413,-324.049,0.991781,0.0,0.0
1140,284.75,52.3887,55.9149,143.802,100.015,88.8186,0.00302903,0.228143,20.8435,-324.109,1.05376,0.0,0.0
1144,285.75,52.0449,55.0632,140.061,100.026,88.1925,0.00299724,0.226634,20.8463,-324.139,1.11759,0.0,0.0
1148,286.75,51.6843,55.3092,141.996,100.037,88.7861,0.00299897,0.224883,20.8488,-324.189,1.05905,0.0,0.0
1152,287.75,51.4826,54.639,145.946,100.047,89.5563,0.00301515,0.222622,20.8504,-324.189,0.9832,0.0,0.0
1156,288.75,51.8971,55.6998,142.775,100.044,89.77,0.0030796,0.220246,20.8533,-324.259,0.961834,0.0,0.0
1160,289.75,51.9741,54.9174,140.993,100.041,88.4946,0.00313603,0.217728,20.8567,-324.289,1.08855,0.0,0.0
1164,290.75,52.05,55.173,143.465,100.042,89.5806,0.00316625,0.214799,20.8601,-324.319,0.980399,0.0,0.0
1168,291.75,52.14,54.8457,141.989,100.017,89.6181,0.00316554,0.212345,20.8631,-324.359,0.974474,0.0,0.0
1172,292.75,51.3064,54.6725,142.343,100.01,90.3809,0.00315325,0.209745,20.8668,-324.429,0.898635,0.0,0.0
1176,293.75,51.6084,55.2599,142.425,99.9892,90.2648,0.00314948,0.206782,20.8712,-324.459,0.90815,0.0,0.0
1180,294.75,51.6342,54.5073,145.953,99.9735,90.0487,0.00316377,0.203906,20.8748,-324.459,0.928034,0.0,0.0
1184,295.75,51.9729,54.8174,144.721,99.9413,90.5332,0.00320179,0.20087,20.8789,-324.54,0.877544,0.0,0.0
1188,296.75,51.2088,54.1976,146.217,99.9171,90.8967,0.00323332,0.197917,20.8815,-324.53,0.839832,0.0,0.0
1192,297.75,51.1966,54.5629,139.906,99.8841,91.2837,0.00323605,0.194701,20.8854,-324.54,0.799192,0.0,0.0
1196,298.75,51.7058,54.8324,142.292,99.8507,90.3899,0.00321765,0.191798,20.8898,-324.59,0.883555,0.0,0.0
1200,299.75,51.0349,54.1627,144.789,99.7928,91.4343,0.00319143,0.188564,20.8948,-324.62,0.776433,0.0,0.0
1204,300.75,51.111,54.274,145.746,99.7469,91.24,0.00317396,0.185493,20.8987,-324.67,0.791233,0.0,0.0
1208,301.75,50.645,53.6216,149.565,99.7147,91.6286,0.00316345,0.182084,20.9038,-324.66,0.750643,0.0,0.0
1212,302.75,50.8682,54.0715,150.092,99.6712,91.9938,0.00319369,0.17878,20.9083,-324.71,0.71147,0.0,0.0
1216,303.75,50.8133,53.76,143.111,99.5964,92.1486,0.00324651,0.175191,20.9132,-324.74,0.689881,0.0,0.0
1220,304.75,50.8965,53.7739,143.498,99.5437,92.3664,0.00329621,0.172256,20.9181,-324.76,0.664229,0.0,0.0
1224,305.75,50.8196,53.7177,147.945,99.4789,92.1552,0.00330642,0.168481,20.9238,-324.83,0.678766,0.0,0.0
1228,306.75,50.1832,53.4381,149.122,99.4016,92.447,0.00327051,0.164567,20.9295,-324.82,0.643802,0.0,0.0
1232,307.75,49.9622,53.157,148.921,99.3392,92.3804,0.0032018,0.160792,20.9347,-324.83,0.644635,0.0,0.0
1236,308.75,49.767,52.9946,145.779,99.2676,92.7471,0.00314374,0.157381,20.9391,-324.86,0.603059,0.0,0.0
1240,309.75,50.0245,52.8753,148.683,99.1895,92.6117,0.00313929,0.154534,20.9426,-324.87,0.609047,0.0,0.0
1244,310.75,50.1069,53.1258,145.949,99.181,92.6298,0.00320357,0.151906,20.946,-324.91,0.606554,0.0,0.0
1248,311.75,49.6513,52.6784,146.174,99.1758,92.8925,0.00331163,0.149161,20.9499,-324.91,0.580955,0.0,0.0
1252,312.75,49.4429,52.4277,146.174,99.1927,92.7369,0.00342012,0.146216,20.9545,-324.93,0.597349,0.0,0.0
1256,313.75,49.3284,52.3031,148.021,99.1887,92.8624,0.00350725,0.142787,20.9599,-324.94,0.584979,0.0,0.0
1260,314.75,48.8099,51.8638,148.203,99.2088,93.074,0.00359708,0.139487,20.9655,-324.96,0.566578,0.0,0.0
1264,315.75,48.8952,51.8913,148.117,99.2169,93.0114,0.00369349,0.136434,20.9701,-324.98,0.573267,0.0,0.0
1268,316.75,48.8476,51.832,149.928,99.2318,93.3963,0.00378682,0.133567,20.9737,-325.01,0.537942,0.0,0.0
1272,317.75,48.8365,51.6083,146.722,99.2458,92.799,0.00386244,0.131047,20.9777,-325.04,0.596153,0.0,0.0
1276,318.75,48.5322,51.532,146.707,99.2579,93.3395,0.00392332,0.128341,20.9816,-325.04,0.545683,0.0,0.0
1280,319.75,48.3116,51.2897,150.249,99.2704,92.9987,0.00397227,0.12596,20.9852,-325.04,0.579272,0.0,0.0
1284,320.75,48.1827,50.7267,145.515,99.2933,93.1415,0.00402393,0.12377,20.9881,-325.05,0.567699,0.0,0.0
1288,321.75,47.4546,50.3896,149.437,99.3255,94.0068,0.00407374,0.121854,20.9911,-325.07,0.488495,0.0,0.0
1292,322.75,47.6783,50.5306,146.552,99.3348,93.801,0.00412174,0.119972,20.9936,-325.09,0.508779,0.0,0.0
1296,323.75,47.4843,50.2793,151.353,99.3416,93.51,0.00418702,0.118277,20.9965,-325.1,0.536973,0.0,0.0
1300,324.75,47.5503,50.2077,148.096,99.3654,93.0921,0.00424903,0.116711,20.9988,-325.12,0.578846,0.0,0.0
1304,325.75,47.2031,50.2736,148.267,99.3831,93.2025,0.00433242,0.114817,21.0006,-325.07,0.569913,0.0,0.0
1308,326.75,47.1146,49.7743,147.259,99.4137,93.1094,0.00439861,0.11285,21.0026,-325.13,0.58151,0.0,0.0
1312,327.75,47.0262,49.6682,144.66,99.4302,93.3568,0.00443082,0.111225,21.0051,-325.2,0.559428,0.0,0.0
1316,328.75,46.8606,49.4749,149.764,99.4483,93.5684,0.00443911,0.109786,21.0073,-325.17,0.54095,0.0,0.0
1320,329.75,46.7145,49.3735,146.524,99.4636,93.8183,0.00444151,0.108717,21.0094,-325.18,0.518642,0.0,0.0
1324,330.75,46.3667,48.9819,148.462,99.4772,93.7491,0.00446793,0.10789,21.0107,-325.16,0.526409,0.0,0.0
1328,331.75,46.3587,48.9843,148.7,99.4913,93.2691,0.00450841,0.107042,21.012,-325.2,0.573229,0.0,0.0
1332,332.75,45.9256,48.5195,145.674,99.5163,93.3441,0.00455188,0.106265,21.0133,-325.21,0.568327,0.0,0.0
1336,333.75,45.8349,48.4244,149.27,99.5396,93.5474,0.00458506,0.10563,21.0145,-325.23,0.551092,0.0,0.0
1340,334.75,45.3748,47.8231,143.881,99.5477,93.6742,0.00459127,0.105051,21.0157,-325.25,0.539787,0.0,0.0
1344,335.75,45.6803,48.2524,149.485,99.5678,93.5664,0.00457858,0.104656,21.0165,-325.25,0.551808,0.0,0.0
1348,336.75,45.7824,47.8953,147.39,99.5726,93.6866,0.00456565,0.104301,21.017,-325.23,0.540843,0.0,0.0
1352,337.75,45.5765,48.057,149.236,99.5964,94.0101,0.00456404,0.103858,21.0174,-325.23,0.512356,0.0,0.0
1356,338.75,45.1093,47.7061,148.158,99.6129,93.5713,0.00458221,0.103406,21.0176,-325.27,0.555355,0.0,0.0
1360,339.75,44.974,47.4512,146.516,99.6068,93.4363,0.0046303,0.10288,21.0184,-325.3,0.567636,0.0,0.0
1364,340.75,44.5201,47.0574,145.491,99.6141,93.4935,0.00468673,0.102375,21.0191,-325.3,0.562847,0.0,0.0
1368,341.75,44.1846,46.8114,150.328,99.627,93.6487,0.00473266,0.102043,21.0195,-325.28,0.549273,0.0,0.0
1372,342.75,43.7587,46.6799,143.673,99.6257,94.0711,0.00475807,0.101873,21.0203,-325.3,0.509222,0.0,0.0
1376,343.75,43.2975,45.9854,149.85,99.6254,93.948,0.00476427,0.101773,21.0211,-325.34,0.520808,0.0,0.0
1380,344.75,44.9658,47.286,147.576,99.6217,93.9183,0.00473763,0.101603,21.0217,-325.34,0.523287,0.0,0.0
1384,345.75,44.24,46.305,147.277,99.6225,93.6615,0.00468691,0.101241,21.022,-325.4,0.547668,0.0,0.0
1388,346.75,44.2657,46.7117,147.729,99.6217,93.922,0.00462923,0.100444,21.0231,-325.41,0.522936,0.0,0.0
1392,347.75,44.3968,46.5165,150.318,99.6197,93.633,0.00458658,0.0996223,21.0238,-325.39,0.550111,0.0,0.0
1396,348.75,43.2882,45.8142,147.378,99.602,93.5948,0.00460729,0.0989424,21.0242,-325.38,0.552162,0.0,0.0
1400,349.75,43.3745,45.7806,145.881,99.596,94.2855,0.00470783,0.0985922,21.0245,-325.42,0.486355,0.0,0.0
1404,350.75,43.1567,45.4921,150.182,99.5835,93.8039,0.00481228,0.0984532,21.0247,-325.43,0.530702,0.0,0.0
1408,351.75,43.4775,45.6683,149.035,99.561,93.6051,0.00494877,0.0986409,21.0249,-325.47,0.547527,0.0,0.0
1412,352.75,42.35,44.9461,148.866,99.5509,93.5026,0.00503832,0.0986841,21.0249,-325.47,0.556356,0.0,0.0
1416,353.75,42.7769,45.3829,145.87,99.5316,93.8792,0.00509171,0.098607,21.025,-325.49,0.518948,0.0,0.0
1420,354.75,42.14,44.3243,145.905,99.5062,94.2707,0.00511995,0.0984514,21.0255,-325.48,0.479748,0.0,0.0
1424,355.75,42.2326,44.5652,150.382,99.4873,93.6129,0.00512453,0.0981857,21.0262,-325.51,0.540217,0.0,0.0
1428,356.75,42.56,44.2697,150.163,99.4567,93.1588,0.00512239,0.0977875,21.0266,-325.48,0.580647,0.0,0.0
1432,357.75,41.9902,44.5578,150.373,99.4306,93.8121,0.00512677,0.0974184,21.0269,-325.48,0.516281,0.0,0.0
1436,358.75,42.1377,44.5847,145.625,99.4028,93.8673,0.00514222,0.0971182,21.0271,-325.52,0.508584,0.0,0.0
1440,359.75,42.0391,44.3672,152.312,99.3726,93.4178,0.00516174,0.0969033,21.0272,-325.58,0.548499,0.0,0.0
1444,360.75,42.6436,44.548,147.948,99.3428,93.6627,0.00518456,0.096813,21.0273,-325.55,0.522596,0.0,0.0
1448,361.75,42.3274,44.3169,150.094,99.3151,93.0707,0.00521358,0.0966938,21.0274,-325.54,0.576393,0.0,0.0
1452,362.75,41.3724,43.78,149.713,99.2821,93.8228,0.00526965,0.09638,21.0282,-325.54,0.502002,0.0,0.0
1456,363.75,41.4138,43.6046,152.975,99.2539,93.5923,0.00534184,0.0959555,21.0288,-325.58,0.521319,0.0,0.0
1460,364.75,41.3869,43.3892,149.357,99.2044,93.1843,0.00543393,0.0955542,21.0296,-325.57,0.555666,0.0,0.0
1464,365.75,41.1889,43.0161,145.008,99.1722,93.5396,0.00551354,0.0951856,21.03,-325.58,0.519009,0.0,0.0
1468,366.75,40.5222,42.9182,148.046,99.1267,93.158,0.00555517,0.0948898,21.0304,-325.59,0.551224,0.0,0.0
1472,367.75,41.1609,43.1308,144.285,99.0998,93.5647,0.00555228,0.0946776,21.031,-325.61,0.510141,0.0,0.0
1476,368.75,40.975,43.0551,147.882,99.045,93.0654,0.00551812,0.0944298,21.0314,-325.63,0.552735,0.0,0.0
1480,369.75,41.1333,41.9559,144.785,99.012,93.0382,0.00547017,0.0941849,21.0317,-325.63,0.552369,0.0,0.0
1484,370.75,40.7813,42.8231,148.873,98.9706,93.4499,0.00542349,0.0940568,21.0319,-325.661,0.509465,0.0,0.0
1488,371.75,40.7513,42.5703,147.561,98.9263,93.0625,0.00538035,0.0940087,21.0322,-325.701,0.542364,0.0,0.0
1492,372.75,40.353,42.5338,146.127,98.8993,93.4478,0.00534689,0.0939771,21.0327,-325.731,0.503269,0.0,0.0
1496,373.75,40.6716,42.296,152.104,98.845,93.1856,0.00531695,0.0938829,21.033,-325.691,0.523335,0.0,0.0
1500,374.75,40.2351,42.0727,149.486,98.8132,93.1325,0.00528621,0.0936416,21.0332,-325.681,0.525539,0.0,0.0
1504,375.75,40.3474,42.5906,148.427,98.7689,92.9727,0.00525736,0.0934833,21.0341,-325.681,0.536798,0.0,0.0
1508,376.75,40.0989,41.7776,150.347,98.7194,92.9769,0.00521968,0.0932277,21.0347,-325.721,0.531955,0.0,0.0
1512,377.75,39.6397,42.0835,145.94,98.7045,92.9427,0.00518887,0.09306,21.0351,-325.721,0.533878,0.0,0.0
1516,378.75,40.0272,41.9276,146.836,98.6498,92.8023,0.00515053,0.0929699,21.0354,-325.741,0.542372,0.0,0.0
1520,379.75,39.7412,41.8949,148.333,98.612,93.7648,0.00510273,0.0929162,21.0356,-325.721,0.447386,0.0,0.0
1524,380.75,39.8304,41.3547,149.953,98.5806,92.8019,0.00506245,0.0927813,21.0357,-325.751,0.53618,0.0,0.0
1528,381.75,39.815,41.6488,148.454,98.542,92.9262,0.00503897,0.0926101,21.0358,-325.771,0.520818,0.0,0.0
1532,382.75,40.0938,42.0075,146.539,98.5086,92.8912,0.00503572,0.0924672,21.0358,-325.781,0.521152,0.0,0.0
1536,383.75,40.1132,41.2981,147.264,98.4949,93.3198,0.00503646,0.0924167,21.0358,-325.771,0.479064,0.0,0.0
1540,384.75,39.2018,41.1728,150.105,98.4655,92.6492,0.00503695,0.0924015,21.0359,-325.771,0.540431,0.0,0.0
1544,385.75,39.8907,41.1606,148.452,98.42,92.9592,0.00504633,0.0920882,21.0359,-325.811,0.506683,0.0,0.0
1548,386.75,39.7077,40.7605,145.766,98.3987,92.6241,0.00504795,0.0918068,21.0359,-325.811,0.536813,0.0,0.0
1552,387.75,39.0286,41.0758,151.666,98.3782,92.6166,0.00503653,0.0918015,21.0363,-325.831,0.535671,0.0,0.0
1556,388.75,39.8204,41.6646,147.542,98.3609,92.4384,0.00500605,0.0918535,21.037,-325.801,0.551208,0.0,0.0
1560,389.75,39.464,41.2865,147.152,98.3472,93.3494,0.00494689,0.0918394,21.0374,-325.821,0.462925,0.0,0.0
1564,390.75,38.1759,41.1942,147.993,98.3258,92.4573,0.00484908,0.0916395,21.0377,-325.851,0.546231,0.0,0.0
1568,391.75,39.2535,40.5207,146.69,98.3146,92.2865,0.00475375,0.0914219,21.0379,-325.871,0.561631,0.0,0.0
1572,392.75,39.3033,41.0412,147.568,98.3114,92.2795,0.00464795,0.0912287,21.038,-325.861,0.562012,0.0,0.0
1576,393.75,39.5891,40.6614,149.264,98.3029,92.7208,0.00460037,0.091066,21.0381,-325.891,0.518902,0.0,0.0
1580,394.75,38.575,41.024,148.704,98.286,92.4701,0.00457869,0.0909195,21.0382,-325.881,0.541409,0.0,0.0
1584,395.75,38.5352,40.1754,150.068,98.2896,92.7566,0.00462947,0.0908964,21.0366,-325.901,0.514275,0.0,0.0
1588,396.75,38.8419,40.6442,145.176,98.2944,92.7109,0.00470219,0.0909379,21.0356,-325.941,0.519085,0.0,0.0
1592,397.75,38.4802,40.0867,149.299,98.3069,92.4713,0.00476855,0.091295,21.0349,-325.931,0.54318,0.0,0.0
1596,398.75,38.815,40.5922,149.883,98.2944,92.5751,0.00481816,0.0917943,21.0344,-325.941,0.5321,0.0,0.0
1600,399.75,39.2328,40.3485,153.187,98.3105,92.0938,0.00484844,0.0921303,21.0335,-325.941,0.579816,0.0,0.0
1604,400.75,38.5264,40.1374,150.662,98.3339,92.5804,0.004857,0.0921806,21.0334,-325.921,0.535149,0.0,0.0
1608,401.75,39.0567,40.8857,148.872,98.3303,92.9065,0.00484824,0.0920451,21.0334,-325.931,0.503617,0.0,0.0
1612,402.75,39.5824,40.4596,151.151,98.3532,92.8908,0.00482258,0.0917566,21.0337,-325.941,0.507184,0.0,0.0
1616,403.75,38.5993,40.3323,147.579,98.3645,93.123,0.00477649,0.0914515,21.034,-325.981,0.486041,0.0,0.0
1620,404.75,38.8019,40.5092,148.884,98.3842,92.7154,0.00472173,0.0911695,21.0341,-325.991,0.526752,0.0,0.0
1624,405.75,38.6066,40.1653,147.126,98.4309,92.3482,0.00468495,0.0910035,21.0342,-326.001,0.566186,0.0,0.0
1628,406.75,38.8665,40.0274,145.462,98.4393,93.2082,0.00467701,0.0908506,21.0343,-326.001,0.484675,0.0,0.0
1632,407.75,38.2868,40.1945,152.06,98.4615,92.4833,0.00468981,0.0906428,21.0352,-326.001,0.555976,0.0,0.0
1636,408.75,38.4941,40.4268,146.317,98.4908,93.0341,0.00470302,0.0905064,21.0357,-326.051,0.505916,0.0,0.0
1640,409.75,38.6867,40.0368,146.729,98.523,92.5561,0.00468229,0.0903751,21.0361,-326.061,0.554534,0.0,0.0
1644,410.75,38.5451,39.6302,149.442,98.5432,92.8077,0.00461447,0.0901294,21.0364,-326.031,0.532259,0.0,0.0
1648,411.75,38.0098,39.5158,148.136,98.5943,93.1555,0.00451805,0.0898386,21.0365,-326.071,0.503655,0.0,0.0
1652,412.75,38.236,39.4466,144.546,98.6196,93.0934,0.00443368,0.0896392,21.0366,-326.061,0.511861,0.0,0.0
1656,413.75,38.2241,39.8757,150.18,98.6506,93.0098,0.00437659,0.0895197,21.0367,-326.041,0.522622,0.0,0.0
1660,414.75,37.6632,39.6688,150.795,98.6981,93.0711,0.00436664,0.0894412,21.0365,-326.071,0.521042,0.0,0.0
1664,415.75,38.1831,39.9048,150.74,98.7404,93.314,0.00445496,0.0893629,21.0363,-326.111,0.501708,0.0,0.0
1668,416.75,38.1282,39.9095,150.443,98.7818,93.9056,0.00457705,0.0893503,21.0362,-326.111,0.44934,0.0,0.0
1672,417.75,38.0373,39.4448,146.373,98.8092,93.3074,0.0046777,0.0893817,21.0361,-326.131,0.508519,0.0,0.0
1676,418.75,38.3035,39.6586,153.256,98.8667,93.2753,0.00473927,0.0894102,21.0365,-326.131,0.516742,0.0,0.0
1680,419.75,38.275,39.633,150.26,98.9102,93.8883,0.00474918,0.0893931,21.0368,-326.141,0.462504,0.0,0.0
1684,420.75,38.621,39.2605,148.18,98.9512,93.2123,0.00469512,0.0890834,21.037,-326.151,0.530321,0.0,0.0
1688,421.75,37.4817,38.8895,147.556,98.9979,93.195,0.00462556,0.088641,21.0375,-326.151,0.536155,0.0,0.0
1692,422.75,37.7084,39.5217,150.205,99.035,93.6594,0.00456391,0.0882786,21.0383,-326.141,0.495358,0.0,0.0
1696,423.75,37.5257,38.6953,149.686,99.0816,93.3572,0.00450688,0.0879692,21.0387,-326.141,0.528223,0.0,0.0
1700,424.75,37.6442,39.5425,151.843,99.1344,93.307,0.00445218,0.0877662,21.0391,-326.161,0.537721,0.0,0.0
1704,425.75,37.6833,39.2358,150.401,99.1762,93.6256,0.00441051,0.0876835,21.0392,-326.141,0.511209,0.0,0.0
1708,426.75,37.6197,39.3736,155.874,99.2072,93.4849,0.00436858,0.0877554,21.0394,-326.161,0.52734,0.0,0.0
1712,427.75,37.8733,39.4121,152.974,99.2644,93.3222,0.00433041,0.0879035,21.0395,-326.171,0.547903,0.0,0.0
1716,428.75,37.4213,39.5093,152.592,99.3046,94.2184,0.00427761,0.0879204,21.0395,-326.191,0.466668,0.0,0.0
1720,429.75,37.7332,39.4123,151.52,99.3625,93.8171,0.00421142,0.0879918,21.0396,-326.201,0.50974,0.0,0.0
1724,430.75,37.5532,38.8495,149.947,99.3992,93.4235,0.00414354,0.0881719,21.0396,-326.221,0.550323,0.0,0.0
1728,431.75,37.5664,39.0251,147.803,99.4495,93.4441,0.0040818,0.0884682,21.0396,-326.211,0.552859,0.0,0.0
1732,432.75,37.725,39.1822,145.617,99.4938,93.5281,0.00403618,0.0884997,21.0401,-326.231,0.548837,0.0,0.0
1736,433.75,38.1941,38.6385,148.463,99.5408,93.7738,0.00400642,0.0882826,21.0407,-326.241,0.529742,0.0,0.0
1740,434.75,37.1051,38.5238,149.466,99.5686,94.3843,0.00399243,0.0879824,21.0412,-326.221,0.474619,0.0,0.0
1744,435.75,38.0881,38.6534,148.923,99.6201,94.4012,0.00400004,0.0877497,21.0415,-326.231,0.477623,0.0,0.0
1748,436.75,37.4125,39.3366,149.673,99.6736,93.8879,0.00401782,0.0874204,21.0416,-326.231,0.530791,0.0,0.0
1752,437.75,36.9659,38.9265,147.781,99.7002,94.451,0.00406583,0.0872839,21.0418,-326.261,0.480074,0.0,0.0
1756,438.75,37.6464,39.0813,149.834,99.7328,94.5416,0.00413567,0.0872157,21.0412,-326.261,0.474468,0.0,0.0
1760,439.75,37.625,38.8557,151.022,99.7803,94.0665,0.00420631,0.0871878,21.0409,-326.311,0.523408,0.0,0.0
1764,440.75,37.4196,39.062,149.028,99.8081,94.2831,0.00425266,0.0871266,21.0413,-326.311,0.505469,0.0,0.0
1768,441.75,37.7455,38.7091,150.814,99.8592,94.0517,0.00426728,0.0868952,21.0413,-326.281,0.53182,0.0,0.0
1772,442.75,37.698,38.8689,148.38,99.8954,94.1497,0.00425528,0.0865824,21.0413,-326.291,0.525798,0.0,0.0
1776,443.75,37.0738,38.4766,149.233,99.9207,93.7854,0.00422951,0.086417,21.0413,-326.281,0.562464,0.0,0.0
1780,444.75,37.4645,38.1793,149.437,99.9513,94.8129,0.00422142,0.0863052,21.0414,-326.321,0.468463,0.0,0.0
1784,445.75,37.3436,38.5686,146.873,99.9799,94.973,0.0042333,0.0862458,21.0417,-326.341,0.456021,0.0,0.0
1788,446.75,37.4955,38.6384,148.692,100.004,94.3996,0.00426286,0.0862218,21.0419,-326.381,0.511956,0.0,0.0
1792,447.75,37.6399,38.283,150.532,100.036,94.8808,0.00429639,0.0862584,21.042,-326.371,0.469643,0.0,0.0
1796,448.75,36.8848,38.2908,148.838,100.059,94.8569,0.00435676,0.0863175,21.0421,-326.351,0.473877,0.0,0.0
1800,449.75,37.1455,38.4199,149.224,100.079,94.1102,0.00438509,0.0863311,21.0421,-326.381,0.545851,0.0,0.0
1804,450.75,37.7028,37.9774,148.682,100.099,94.9878,0.00437884,0.0862982,21.0422,-326.411,0.465241,0.0,0.0
1808,451.75,37.3385,38.1474,151.417,100.128,94.3008,0.00434991,0.0862061,21.0422,-326.431,0.532175,0.0,0.0
1812,452.75,37.6191,38.1562,151.933,100.158,93.5939,0.00431316,0.0860343,21.0422,-326.411,0.601667,0.0,0.0
1816,453.75,37.0381,38.1591,152.852,100.169,94.6033,0.0042665,0.0858313,21.0422,-326.421,0.507415,0.0,0.0
1820,454.75,37.375,38.6969,149.092,100.176,94.2917,0.00422917,0.0855721,21.0422,-326.421,0.537307,0.0,0.0
1824,455.75,37.0821,37.9971,143.945,100.188,94.6717,0.00419803,0.08532,21.0422,-326.451,0.502645,0.0,0.0
1828,456.75,37.4128,38.0605,148.278,100.208,94.978,0.00416886,0.0851725,21.0419,-326.421,0.475759,0.0,0.0
1832,457.75,37.0727,38.4367,147.838,100.224,95.2233,0.00414013,0.0849985,21.0417,-326.411,0.45432,0.0,0.0
1836,458.75,37.1538,38.5446,149.212,100.234,94.3424,0.00411227,0.0850432,21.0422,-326.421,0.537675,0.0,0.0
1840,459.75,37.2409,38.0122,145.002,100.246,95.3625,0.00408723,0.0853139,21.0427,-326.451,0.443249,0.0,0.0
1844,460.75,37.2883,38.6312,144.208,100.256,94.3222,0.00407305,0.0855868,21.0431,-326.451,0.541569,0.0,0.0
1848,461.75,36.6111,37.828,152.196,100.268,94.6112,0.00405504,0.0856882,21.0433,-326.451,0.515449,0.0,0.0
1852,462.75,37.1917,38.038,146.516,100.279,94.7709,0.00402123,0.0855392,21.0434,-326.471,0.501404,0.0,0.0
1856,463.75,37.3836,38.0193,151.409,100.273,94.9965,0.00398695,0.0853399,21.0435,-326.491,0.4798,0.0,0.0
1860,464.75,37.0986,38.5745,147.892,100.289,94.3436,0.00395736,0.0852092,21.0434,-326.491,0.542405,0.0,0.0
1864,465.75,36.5769,38.1757,152.494,100.274,95.0356,0.00394314,0.085199,21.0432,-326.491,0.476254,0.0,0.0
1868,466.75,37.2956,38.4431,148.557,100.287,94.5161,0.00394459,0.0851923,21.043,-326.521,0.526049,0.0,0.0
1872,467.75,36.5894,37.8301,146.217,100.284,94.4642,0.0039497,0.0851659,21.0429,-326.521,0.530672,0.0,0.0
1876,468.75,36.825,38.1028,150.511,100.283,94.5507,0.00394699,0.0850584,21.0435,-326.501,0.522411,0.0,0.0
1880,469.75,37.3719,37.9943,151.543,100.285,94.6062,0.00392203,0.0849542,21.044,-326.541,0.517409,0.0,0.0
1884,470.75,36.8993,37.6247,154.052,100.287,94.9578,0.00387828,0.0849309,21.0444,-326.541,0.484699,0.0,0.0
1888,471.75,36.921,38.4403,147.144,100.287,94.9701,,0.0850668,,-326.561,0.483474,0.0,0.0
1892,472.75,37.0659,37.8541,148.942,100.283,94.2917,,0.0851957,,-326.561,0.546752,0.0,0.0
1896,473.75,36.8592,38.0549,151.919,100.283,94.6083,,0.085291,,-326.561,0.517073,0.0,0.0
1900,474.75,36.6692,38.1516,149.223,100.274,94.7581,,,,-326.551,0.502243,0.0,0.0
1904,475.75,36.439,38.323,148.449,100.274,94.4733,,,,-326.581,0.528966,0.0,0.0
1908,476.75,36.7427,38.0475,147.342,100.262,95.4028,,,,-326.571,0.440991,0.0,0.0
1912,477.75,37.1548,38.204,148.953,100.259,94.386,,,,-326.581,0.53578,0.0,0.0
1916,478.75,36.8513,37.6486,150.221,100.253,94.7437,,,,-326.591,0.501704,0.0,0.0
1920,479.75,37.0145,37.652,149.928,100.243,94.6293,,,,-326.621,0.511505,0.0,0.0
1924,480.75,36.6917,37.7219,144.928,100.253,94.8438,,,,-326.631,0.492301,0.0,0.0
1928,481.75,36.6359,37.9781,151.209,100.223,95.1661,,,,-326.661,0.459584,0.0,0.0
1929,482,36.236,38.0577,147.878,100.24,95.0776,,,,-326.661,0.46934,0.0,0.0