File: 01_Data/Wool_Rug/Cone/Wool_Rug_Cone_HF25Scan_220324_R4.csv
Names,Time,Stack TC,Smoke TC,Exh Press,Smoke Comp,Smoke Meas,CO Meter,CO2 Meter,O2 Meter,Sample Mass,Ext Coeff,Start Test,Flame Verif
Chan Gain,,500,500,1,1,1,1,1,1,1,1,1.0,1.0
Offset,,0,0,0.138078,0,0,0,0,0,0,0,0.0,0.0
Gain,,1,1,25.011,13.1874,13.4895,1,1,1,1.00089,1.01187,1.0,1.0
Units,sec,C,C,Pa,%,%,%,%,%,g,/m,,
Baseline,,18.8479,19.3676,159.733,99.7416,95.5688,0.000501338,0.0656988,21.0132,-836.081,0.379361,,
10,2.25,18.0917,18.6343,159.242,99.4265,95.1505,0.000430444,0.071976,21.0058,117.034,0.39019,0.0,0.0
20,4.75,17.7417,18.0002,154.421,99.4064,95.122,0.000612234,0.0727296,21.0041,116.924,0.391044,0.0,0.0
30,7.25,18.0292,18.4274,156.897,99.3734,94.4691,0.000796399,0.0741508,21.0022,116.884,0.449231,0.0,0.0
40,9.75,18.21,18.4942,154.913,99.3485,94.8355,0.00082725,0.0747238,21.0026,116.844,0.412644,0.0,0.0
50,12.25,18.2645,18.5913,160.466,99.3155,94.5288,0.000892813,0.0746365,21.0015,116.834,0.438446,0.0,0.0
60,14.75,18.1071,18.8243,157.511,99.2978,93.1531,0.00109615,0.0755103,21.0003,116.784,0.566996,0.0,0.0
70,17.25,18.254,18.5184,159.242,99.2627,92.1478,0.00136295,0.076359,20.9999,116.734,0.660177,0.0,0.0
80,19.75,18.4271,18.6444,162.072,99.2547,91.3314,0.00154096,0.0756082,21.0005,116.704,0.73844,0.0,0.0
90,22.25,18.0267,18.9536,156.502,99.237,91.72,0.00163501,0.0741441,20.9999,116.664,0.699168,0.0,0.0
100,24.75,18.4484,18.6612,158.204,99.3038,91.9814,0.00166821,0.0814767,20.9864,116.564,0.679881,0.0,0.0
110,27.25,18.4828,18.8945,151.208,99.3537,91.6958,0.00183946,0.1387,20.8857,116.314,0.711952,0.0,1.0
120,29.75,19.4688,20.1502,147.085,99.4161,92.3655,0.00209229,0.218546,20.7762,116.164,0.652924,0.0,1.0
130,32.25,20.4784,20.5784,142.819,99.4672,92.17,0.00221034,0.26418,20.7302,115.963,0.676298,0.0,0.0
140,34.75,22.2757,22.6784,147.552,99.5215,92.8509,0.00209893,0.269487,20.721,115.833,0.615815,0.0,0.0
150,37.25,23.078,23.6301,150.733,99.5654,93.5322,0.00198513,0.249381,20.7565,115.723,0.554834,0.0,0.0
160,39.75,23.7399,24.5033,147.457,99.6056,94.1176,0.0020995,0.221271,20.7934,115.653,0.503041,0.0,0.0
170,42.25,23.4605,25.221,151.646,99.6439,94.23,0.00224501,0.195912,20.8273,115.533,0.495856,0.0,0.0
180,44.75,23.9989,25.2228,152.773,99.6539,94.3934,0.00223778,0.175949,20.8556,115.443,0.48137,0.0,0.0
190,47.25,24.3995,25.4023,153.175,99.6857,94.4794,0.00209342,0.161502,20.8778,115.443,0.476115,0.0,0.0
200,49.75,24.3351,25.9659,157.588,99.703,94.477,0.00197097,0.150944,20.897,115.363,0.477888,0.0,0.0
210,52.25,24.5752,25.9492,155.282,99.7348,95.1834,0.00182044,0.139786,20.9112,115.293,0.414597,0.0,0.0
220,54.75,24.7468,25.7146,152.869,99.7517,94.6639,0.00183294,0.131905,20.9214,115.243,0.46468,0.0,0.0
230,57.25,24.8746,25.7715,161.201,99.7811,94.4733,0.00216498,0.12542,20.9314,115.183,0.485184,0.0,0.0
240,59.75,24.9774,25.512,154.656,99.7896,94.5045,0.00238266,0.11951,20.9404,115.143,0.482997,0.0,0.0
250,62.25,24.6693,25.7943,155.754,99.8121,94.745,0.00225538,0.114763,20.947,115.113,0.462449,0.0,0.0
260,64.75,24.453,25.6037,152.891,99.8201,94.9207,0.00206678,0.110732,20.9527,115.073,0.446713,0.0,0.0
270,67.25,24.1906,25.716,159.153,99.8238,94.6906,0.00208942,0.106839,20.9588,115.023,0.468579,0.0,0.0
280,69.75,24.059,25.5921,159.658,99.8286,94.4358,0.0021682,0.102668,20.9646,114.973,0.492928,0.0,0.0
290,72.25,24.4009,24.9961,158.763,99.8197,95.0385,0.00225963,0.0992959,20.9684,114.923,0.435674,0.0,0.0
300,74.75,24.1002,24.8813,156.75,99.8137,94.689,0.00215405,0.0968255,20.9714,114.913,0.467839,0.0,0.0
310,77.25,23.5987,25.6049,158.678,99.8,95.1616,0.00203785,0.0951089,20.9733,114.882,0.422432,0.0,0.0
320,79.75,23.7691,24.5324,154.691,99.7863,94.9133,0.0019741,0.0944974,20.9735,114.832,0.444399,0.0,0.0
330,82.25,23.2665,24.9413,157.049,99.7565,94.5004,0.00191001,0.0951313,20.9732,114.812,0.480447,0.0,0.0
340,84.75,23.6525,24.5383,158.968,99.7364,94.2831,0.00192242,0.0951324,20.972,114.772,0.499096,0.0,0.0
350,87.25,23.0862,24.5542,155.047,99.7103,94.4683,0.00200698,0.0950546,20.9715,114.732,0.479345,0.0,0.0
360,89.75,23.2083,24.4541,164.017,99.6877,94.1674,0.00210299,0.0944909,20.9728,114.692,0.505659,0.0,0.0
370,92.25,23.2533,24.3647,155.224,99.6455,94.2818,0.00205777,0.093937,20.9734,114.652,0.491114,0.0,0.0
380,94.75,23.3569,24.0752,157.807,99.6257,94.5943,0.00204667,0.0938662,20.9736,114.602,0.45999,0.0,0.0
390,97.25,22.9022,24.1998,157.612,99.5923,94.6939,0.00210201,0.094105,20.9724,114.542,0.44767,0.0,0.0
400,99.75,23.0711,24.0057,155.68,99.5762,94.3271,0.00221435,0.0949837,20.9702,114.512,0.480684,0.0,0.0
410,102.25,23.2785,24.2569,159.493,99.5292,94.3951,0.0023403,0.0958275,20.97,114.482,0.470097,0.0,0.0
420,104.75,22.1625,23.6267,156.65,99.5163,94.3489,0.00231679,0.0969159,20.9693,114.432,0.473285,0.0,0.0
430,107.25,22.5895,24.0703,159.178,99.4716,94.7705,0.00217953,0.0978756,20.9681,114.372,0.429729,0.0,0.0
440,109.75,22.9474,23.9834,157.809,99.4382,94.1489,0.00217211,0.0993494,20.9657,114.302,0.48516,0.0,0.0
450,112.25,22.8211,23.7271,156.788,99.404,93.5824,0.00211406,0.100536,20.963,114.242,0.53567,0.0,0.0
460,114.75,23.0364,23.7593,153.443,99.3662,94.0793,0.00214191,0.101992,20.9608,114.222,0.485289,0.0,0.0
470,117.25,22.2575,24.2074,160.445,99.3316,93.9303,0.00224455,0.103423,20.9587,114.172,0.496267,0.0,0.0
480,119.75,23.0527,23.9646,157.089,99.28,93.764,0.00227608,0.104995,20.9563,114.112,0.507393,0.0,0.0
490,122.25,22.9259,24.1403,154.109,99.2442,94.0991,0.00228132,0.106886,20.9544,114.032,0.472525,0.0,0.0
500,124.75,22.8415,23.9637,152.852,99.1915,93.4869,0.0022249,0.10833,20.9503,113.962,0.52574,0.0,0.0
510,127.25,22.7764,24.195,153.729,99.1472,93.6289,0.00212671,0.109133,20.9464,113.882,0.508303,0.0,0.0
520,129.75,22.7983,23.8691,159.554,99.0917,94.0966,0.00213897,0.111006,20.9441,113.842,0.459106,0.0,0.0
530,132.25,23.2204,24.3514,156.069,99.0732,94.2259,0.00207171,0.112965,20.9412,113.782,0.445263,0.0,0.0
540,134.75,22.9348,23.9705,152.805,99.0112,94.1143,0.00190054,0.114981,20.9383,113.711,0.450224,0.0,0.0
550,137.25,23.179,24.5141,151.632,99.0104,93.8393,0.00187914,0.115875,20.9373,113.661,0.476125,0.0,0.0
560,139.75,23.5592,24.3046,155.919,99.0152,93.8731,0.00212094,0.116622,20.9369,113.571,0.473364,0.0,0.0
570,142.25,23.573,24.7518,154.847,99.0197,94.3296,0.00221785,0.117515,20.9354,113.491,0.430699,0.0,0.0
580,144.75,23.5261,24.9756,155.654,99.0213,93.6528,0.00205643,0.118276,20.9338,113.431,0.494755,0.0,0.0
590,147.25,23.7528,24.8394,152.322,99.0321,93.9175,0.00199055,0.119056,20.9329,113.371,0.470678,0.0,0.0
600,149.75,23.9067,24.7469,155.905,99.0325,93.7356,0.00208926,0.119581,20.9313,113.291,0.487926,0.0,0.0
610,152.25,23.7679,24.9601,158.662,99.0406,94.6824,0.00211559,0.119947,20.9307,113.221,0.399439,0.0,0.0
620,154.75,23.9361,24.6856,151.68,99.047,94.1411,0.0020939,0.119756,20.9318,113.141,0.45091,0.0,0.0
630,157.25,23.6829,25.0913,154.92,99.0426,94.4008,0.00198651,0.118221,20.9362,113.121,0.426056,0.0,0.0
640,159.75,23.9026,24.9482,157.913,99.0696,93.2049,0.00186923,0.116431,20.9388,113.021,0.541635,0.0,0.0
650,162.25,24.1617,25.4487,155.385,99.0623,93.5672,0.00188019,0.114754,20.9414,112.931,0.506554,0.0,0.0
660,164.75,23.7992,25.724,151.847,99.0869,93.8397,0.00200822,0.113131,20.944,112.861,0.482938,0.0,0.0
670,167.25,23.5639,25.7651,154.831,99.0929,94.6968,0.00207505,0.111243,20.9465,112.811,0.402776,0.0,0.0
680,169.75,23.8654,25.1811,158.201,99.1038,94.3629,0.00211423,0.110037,20.9482,112.761,0.435098,0.0,0.0
690,172.25,24.4946,25.0807,156.93,99.1102,94.0764,0.00188848,0.108868,20.951,112.681,0.462667,0.0,0.0
700,174.75,24.2662,25.2105,158.046,99.1259,94.0954,0.00175975,0.107687,20.9533,112.63,0.462286,0.0,0.0
710,177.25,23.812,24.4843,154.738,99.1428,93.7211,0.00176375,0.106877,20.9543,112.58,0.499169,0.0,0.0
720,179.75,23.9401,25.2061,150.801,99.1436,94.1727,0.00176933,0.106356,20.9547,112.53,0.456574,0.0,0.0
730,182.25,23.6364,25.0645,157.845,99.1501,94.7256,0.00173778,0.105599,20.9552,112.48,0.405193,0.0,0.0
740,184.75,24.2238,25.1635,156.771,99.1484,94.3658,0.00176027,0.104963,20.956,112.39,0.438827,0.0,0.0
750,187.25,24.0471,24.9145,147.824,99.1537,94.9022,0.0017708,0.104751,20.9551,112.31,0.388984,0.0,0.0
760,189.75,24.0424,25.032,152.884,99.1613,93.9134,0.00178282,0.10456,20.9544,112.25,0.482637,0.0,0.0
770,192.25,23.434,24.9,153.027,99.1658,94.2794,0.00178038,0.104552,20.9541,112.18,0.448512,0.0,0.0
780,194.75,23.8155,25.3854,158.352,99.1641,94.2522,0.00177847,0.104927,20.9545,112.14,0.450926,0.0,0.0
790,197.25,24.2159,25.0031,157.326,99.173,94.5869,0.00173195,0.105289,20.9537,112.08,0.420256,0.0,0.0
800,199.75,23.5993,25.0396,154.986,99.1658,94.2604,0.0016653,0.105202,20.9531,112,0.450295,0.0,0.0
810,202.25,24.1163,25.2344,156.57,99.1891,94.1954,0.00162672,0.104346,20.9536,111.94,0.45851,0.0,0.0
820,204.75,23.8386,24.8345,155.407,99.1629,94.9409,0.001608,0.104335,20.9546,111.88,0.386194,0.0,0.0
830,207.25,23.8955,25.0864,155.46,99.1879,94.7853,0.0015616,0.104381,20.955,111.81,0.402987,0.0,0.0
840,209.75,23.5584,24.9382,153.629,99.1879,94.5395,0.00154981,0.104387,20.9551,111.76,0.426032,0.0,0.0
850,212.25,23.6197,25.1247,154.6,99.1975,94.3242,0.001613,0.103868,20.9553,111.68,0.447133,0.0,0.0
860,214.75,23.6738,25.1229,160.493,99.1927,94.0299,0.00173737,0.10342,20.9558,111.65,0.474443,0.0,0.0
870,217.25,23.5317,24.9856,157.491,99.2056,94.3708,0.00170575,0.103114,20.9555,111.57,0.443477,0.0,0.0
880,219.75,23.7597,25.2088,155.86,99.2116,94.6215,0.00161195,0.10321,20.9549,111.499,0.420469,0.0,0.0
890,222.25,23.4834,24.9736,156.792,99.2161,94.3732,0.00161501,0.103196,20.9546,111.449,0.444181,0.0,0.0
900,224.75,23.4803,24.7667,157.634,99.2382,94.7977,0.0015951,0.103085,20.9545,111.379,0.406332,0.0,0.0
910,227.25,23.3611,24.8575,154.754,99.2213,93.7891,0.00163694,0.103424,20.9545,111.329,0.499761,0.0,0.0
920,229.75,23.4107,24.2181,156.973,99.2398,94.6206,0.00178959,0.103534,20.9545,111.259,0.423065,0.0,0.0
930,232.25,23.3441,24.7575,156.626,99.2136,94.6968,0.00181299,0.103379,20.9545,111.199,0.413585,0.0,0.0
940,234.75,23.5218,25.1028,155.539,99.2309,94.216,0.00173825,0.103084,20.9555,111.139,0.460316,0.0,0.0
950,237.25,24.016,24.5374,156.689,99.235,94.2724,0.0016909,0.102965,20.9564,111.079,0.455365,0.0,0.0
960,239.75,24.072,24.8156,154.999,99.2354,94.54,0.0016382,0.102619,20.9568,111.029,0.430241,0.0,0.0
970,242.25,23.6204,24.3097,154.384,99.2265,94.2427,0.00157457,0.101821,20.9577,110.969,0.4574,0.0,0.0
980,244.75,23.2162,24.4907,153.65,99.2398,94.9545,0.00155357,0.101651,20.958,110.909,0.391802,0.0,0.0
990,247.25,23.5875,24.8102,153.34,99.2491,94.4403,0.0015349,0.101508,20.9581,110.849,0.440825,0.0,0.0
1000,249.75,23.7348,24.5872,152.081,99.2503,93.8726,0.00148871,0.101546,20.9582,110.789,0.494448,0.0,0.0
1010,252.25,23.7081,24.6723,157.611,99.2366,93.9043,0.00141551,0.10125,20.9594,110.729,0.490227,0.0,0.0
1020,254.75,23.6083,24.5333,153.482,99.2503,94.6886,0.00130672,0.101137,20.96,110.679,0.417632,0.0,0.0
1030,257.25,23.2594,24.9464,152.507,99.2499,94.8306,0.00123792,0.101098,20.9598,110.619,0.404293,0.0,0.0
1040,259.75,23.3694,24.3612,156.636,99.2555,94.4716,0.00130609,0.101291,20.9597,110.549,0.43846,0.0,0.0
1050,262.25,23.5066,24.406,156.197,99.2619,94.1452,0.00143398,0.101574,20.9597,110.479,0.469761,0.0,0.0
1060,264.75,23.5412,24.5087,153.697,99.2583,94.7306,0.00148114,0.101939,20.9607,110.408,0.414417,0.0,0.0
1070,267.25,23.3554,24.5435,155.728,99.2631,94.2917,0.00144788,0.102743,20.9613,110.358,0.456062,0.0,0.0
1080,269.75,23.7443,24.2386,155.245,99.2615,94.3967,0.00144042,0.102698,20.961,110.288,0.446042,0.0,0.0
1090,272.25,23.2776,24.9692,155.057,99.2684,94.4374,0.00151181,0.102833,20.9601,110.218,0.442823,0.0,0.0
1100,274.75,23.6147,24.8555,156.721,99.2571,94.3576,0.00156625,0.102874,20.9596,110.178,0.449324,0.0,0.0
1110,277.25,23.2361,24.8459,157.205,99.2708,94.2781,0.00153842,0.103062,20.9599,110.108,0.458024,0.0,0.0
1120,279.75,23.5226,24.1984,156.734,99.2728,94.3646,0.00146746,0.102979,20.9608,110.038,0.45007,0.0,0.0
1130,282.25,23.3328,24.5482,155.097,99.2792,93.8109,0.00140873,0.102223,20.9619,109.988,0.50288,0.0,0.0
1140,284.75,23.6198,24.6144,157.463,99.2708,94.8166,0.00143122,0.101192,20.9629,109.918,0.407475,0.0,0.0
1150,287.25,23.7615,24.5066,156.094,99.2708,93.92,0.00156021,0.0993573,20.9626,109.868,0.491808,0.0,0.0
1160,289.75,23.2753,24.6344,157.343,99.2644,94.3938,0.00160338,0.0977202,20.9629,109.818,0.446565,0.0,0.0
1170,292.25,23.7173,24.1482,155.931,99.2676,94.6388,0.00158537,0.0977918,20.9615,109.748,0.42385,0.0,0.0
1180,294.75,23.5202,24.1764,155.396,99.268,94.7911,0.00162277,0.0978014,20.9616,109.658,0.409612,0.0,0.0
1190,297.25,23.5883,24.0434,158.338,99.2724,93.7026,0.00156818,0.0963981,20.9641,109.668,0.512518,0.0,0.0
1200,299.75,23.1021,24.1636,155.783,99.27,94.2176,0.00143652,0.0950538,20.9669,109.598,0.463652,0.0,0.0
1210,302.25,23.2733,24.8637,154.827,99.2595,93.9492,0.0014629,0.0941633,20.968,109.548,0.488039,0.0,0.0
1220,304.75,23.2736,24.589,154.941,99.2639,94.2728,0.00145583,0.0939944,20.969,109.488,0.457916,0.0,0.0
1230,307.25,23.2267,23.9873,157.798,99.2571,94.4449,0.00125632,0.0931366,20.9705,109.438,0.441119,0.0,0.0
1240,309.75,23.2748,23.9326,157.156,99.2627,94.8022,0.00115311,0.0916878,20.9732,109.368,0.408103,0.0,0.0
1250,312.25,23.0644,24.4602,158.93,99.2543,94.8248,0.00128204,0.0908537,20.9752,109.308,0.405228,0.0,0.0
1260,314.75,22.8308,24.0086,154.235,99.2648,94.416,0.00137389,0.0904956,20.9768,109.298,0.444511,0.0,0.0
1270,317.25,22.6735,23.7593,155.321,99.2591,94.486,0.00137134,0.0904829,20.9773,109.227,0.43743,0.0,0.0
1280,319.75,22.7993,23.8899,156.431,99.2668,94.3469,0.00136003,0.0903638,20.9775,109.177,0.451195,0.0,0.0
1290,322.25,22.8105,23.8255,157.907,99.2583,94.9541,0.00132415,0.0905787,20.9776,109.127,0.393497,0.0,0.0
1300,324.75,22.6374,23.707,159.513,99.2531,94.4659,0.00139178,0.0912016,20.977,109.087,0.438785,0.0,0.0
1310,327.25,22.8417,23.7719,156.492,99.2547,94.4799,0.00144471,0.0914471,20.9767,109.027,0.437614,0.0,0.0
1320,329.75,22.8435,24.0415,153.455,99.2627,94.4535,0.00150902,0.0906196,20.9772,109.007,0.440809,0.0,0.0
1330,332.25,22.7842,23.713,156.328,99.2539,94.4601,0.0015709,0.08885,20.9784,108.957,0.439399,0.0,0.0
1340,334.75,22.4725,23.8659,154.458,99.2507,94.936,0.00163683,0.0874294,20.9798,108.927,0.394507,0.0,0.0
1350,337.25,22.3268,23.4088,158.655,99.2603,95.0249,0.00165298,0.0872205,20.9798,108.887,0.387061,0.0,0.0
1360,339.75,22.5776,23.7775,157.882,99.2414,94.4033,0.00173307,0.0883024,20.9785,108.857,0.443623,0.0,0.0
1370,342.25,22.313,23.4358,157.369,99.2607,95.6547,0.00187849,0.0884176,20.977,108.807,0.328457,0.0,0.0
1380,344.75,22.2625,23.3429,156.263,99.247,95.0936,0.00191416,0.0883848,20.9756,108.757,0.379453,0.0,0.0
1390,347.25,22.6,23.5834,155.319,99.27,94.5922,0.00184592,0.0877803,20.9759,108.727,0.428431,0.0,0.0
1400,349.75,21.3941,23.1078,155.424,99.2438,94.5021,0.00168819,0.0855993,20.9802,108.677,0.434555,0.0,0.0
1410,352.25,22.4088,23.1293,156.834,99.2684,94.409,0.00156428,0.0834259,20.9832,108.637,0.445493,0.0,0.0
1420,354.75,22.7268,23.3895,160.894,99.2362,94.4148,0.00142121,0.0817218,20.9856,108.587,0.442071,0.0,0.0
1430,357.25,22.2852,23.0087,155.299,99.2611,94.0068,0.001124,0.0802341,20.9876,108.547,0.482739,0.0,0.0
1440,359.75,21.8276,23.3094,157.069,99.235,94.2571,0.00106212,0.0792807,20.9893,108.527,0.456798,0.0,0.0
1450,362.25,21.7113,23.0359,160.482,99.2511,93.412,0.00114032,0.0783335,20.9914,108.497,0.538184,0.0,0.0
1460,364.75,21.1573,23.2092,158.274,99.2454,93.6261,0.00118598,0.0772165,20.9933,108.477,0.517363,0.0,0.0
1470,367.25,21.9086,22.8973,156.05,99.2547,93.6664,0.00121949,0.0765413,20.9939,108.437,0.514366,0.0,0.0
1480,369.75,22.5601,22.946,158.321,99.2503,94.2892,0.00128726,0.0761417,20.9944,108.407,0.455143,0.0,0.0
1490,372.25,22.0306,22.6907,157.889,99.2418,94.0085,0.00136128,0.0755112,20.9958,108.387,0.480856,0.0,0.0
1500,374.75,21.3101,22.1236,157.079,99.2579,93.8331,0.00143781,0.0748895,20.9963,108.347,0.498869,0.0,0.0
1510,377.25,21.3219,22.5019,154.567,99.2386,93.8702,0.00142094,0.0740827,20.998,108.327,0.493637,0.0,0.0
1520,379.75,21.1139,22.7507,159.928,99.2523,93.8167,0.0012957,0.0737043,20.9995,108.317,0.499923,0.0,0.0
1530,382.25,21.8647,22.1389,157.737,99.247,93.936,0.00124849,0.0733349,20.9996,108.287,0.488167,0.0,0.0
1540,384.75,20.8836,21.317,156.662,99.2599,93.7948,0.00124245,0.073263,20.9996,108.237,0.502672,0.0,0.0
1550,387.25,21.629,21.3729,156.723,99.2539,93.4943,0.00145999,0.0731657,20.9996,108.217,0.530616,0.0,0.0
1560,389.75,21.0465,21.763,159.001,99.266,94.5338,0.00162487,0.0731913,20.9996,108.207,0.433557,0.0,0.0
1570,392.25,20.7133,21.4347,160.202,99.2478,93.7146,0.00153078,0.07287,20.9996,108.136,0.509191,0.0,0.0
1580,394.75,20.8386,21.8343,159.758,99.2728,93.8813,0.00136443,0.0726865,20.9998,108.116,0.495646,0.0,0.0
1590,397.25,20.8738,22.3144,158.507,99.2652,93.7413,0.0013604,0.07232,21.0012,108.096,0.508206,0.0,0.0
1600,399.75,21.2756,21.8998,158.285,99.2704,93.9513,0.00136087,0.0719664,21.0028,108.076,0.488816,0.0,0.0
1610,402.25,20.735,21.2292,158.154,99.2635,94.3107,0.00143115,0.0718044,21.0049,108.056,0.454316,0.0,0.0
1620,404.75,20.6971,21.9154,159.641,99.2688,93.9747,0.00156957,0.0718297,21.0057,108.026,0.486455,0.0,0.0
1630,407.25,20.3812,21.7061,157.633,99.27,94.1443,0.00154476,0.0719644,21.0057,108.016,0.470558,0.0,0.0
1640,409.75,20.7481,21.8894,158.115,99.2708,94.2267,0.00151983,0.0723285,21.0057,107.966,0.46287,0.0,0.0
1650,412.25,20.7541,22.1162,155.948,99.2784,94.307,0.00158387,0.0726345,21.004,107.976,0.455996,0.0,0.0
1660,414.75,20.2284,21.6548,157.876,99.2708,93.8833,0.00169279,0.0728537,21.003,107.966,0.495271,0.0,0.0
1670,417.25,21.08,21.3968,156.168,99.2809,94.3979,0.00172772,0.0732191,21.0026,107.906,0.447653,0.0,0.0
1680,419.75,20.632,21.2232,156.545,99.2752,93.9731,0.00169485,0.07332,21.0025,107.886,0.487186,0.0,0.0
1690,422.25,20.5899,21.4857,154.751,99.2877,94.3798,0.00178867,0.0733881,21.0025,107.866,0.449968,0.0,0.0
1700,424.75,20.3625,21.0614,155.527,99.2788,93.9805,0.00191485,0.073636,21.0022,107.826,0.486811,0.0,0.0
1710,427.25,20.3607,21.4006,158.073,99.2845,94.3613,0.00200429,0.0738748,21.0007,107.816,0.451423,0.0,0.0
1720,429.75,20.3201,21.3085,160.122,99.2788,94.4173,0.00200921,0.0747042,20.9983,107.776,0.445654,0.0,0.0
1730,432.25,20.5379,21.1853,152.98,99.3002,94.3905,0.00192473,0.0758363,20.9957,107.746,0.450077,0.0,0.0
1740,434.75,20.7098,21.2828,160.695,99.2877,94.6989,0.00186946,0.0769322,20.9933,107.716,0.420014,0.0,0.0
1750,437.25,20.4765,21.2679,158.098,99.297,94.952,0.00189633,0.0779611,20.9913,107.686,0.397143,0.0,0.0
1760,439.75,20.5699,21.0444,154.525,99.2921,93.9817,0.00183485,0.0782285,20.9895,107.656,0.487881,0.0,0.0
1770,442.25,20.8885,21.2281,159.968,99.301,94.9578,0.00158929,0.0782111,20.9888,107.636,0.396964,0.0,0.0
1780,444.75,20.2164,21.1929,157.016,99.2905,94.6132,0.00153178,0.0790672,20.9891,107.626,0.428296,0.0,0.0
1790,447.25,19.998,21.0637,156.395,99.2881,94.7948,0.00160957,0.0799993,20.9876,107.586,0.411064,0.0,0.0
1800,449.75,20.5258,21.2414,160.681,99.2961,95.1706,0.0016379,0.08102,20.9851,107.566,0.37666,0.0,0.0
1810,452.25,20.4788,21.2293,154.691,99.2893,94.8528,0.00156802,0.0823977,20.9823,107.526,0.405739,0.0,0.0
1820,454.75,19.9364,20.837,159.643,99.3018,94.6906,0.00143661,0.0837554,20.9805,107.476,0.422045,0.0,0.0
1830,457.25,20.0552,21.1469,159.123,99.2913,95.0138,0.00135332,0.0850915,20.9776,107.466,0.390869,0.0,0.0
1840,459.75,20.7815,21.315,159.448,99.2978,94.7688,0.0012821,0.0865629,20.9747,107.436,0.414356,0.0,0.0
1850,462.25,20.5355,21.0631,160.097,99.2877,94.8471,0.00130726,0.0883042,20.9731,107.406,0.406134,0.0,0.0
1860,464.75,20.4967,21.4275,160.355,99.2881,95.0834,0.00135855,0.0894892,20.9713,107.396,0.384084,0.0,0.0
1870,467.25,21.0024,21.3055,155.287,99.2861,94.7458,0.00154365,0.0905634,20.9708,107.346,0.415472,0.0,0.0
1880,469.75,20.9707,21.883,155.266,99.2941,94.4165,0.00176263,0.0918315,20.9707,107.316,0.447099,0.0,0.0
1890,472.25,20.6702,21.834,159.942,99.2821,94.5297,0.00173777,0.0931501,20.9698,107.286,0.435383,0.0,0.0
1900,474.75,20.5522,21.8707,154.917,99.2945,94.9236,0.0016449,0.0949463,20.9668,107.236,0.399582,0.0,0.0
1910,477.25,21.1861,21.927,153.168,99.2889,94.5692,0.0015183,0.0975715,20.9639,107.196,0.432284,0.0,0.0
1920,479.75,20.8641,22.0017,153.841,99.2913,94.7767,0.00147479,0.100283,20.9598,107.166,0.413048,0.0,0.0
1930,482.25,21.2702,21.9457,156.375,99.2865,94.717,0.00155567,0.101676,20.9566,107.146,0.418208,0.0,0.0
1940,484.75,21.6449,22.3462,155.766,99.2869,95.3925,0.00162599,0.102612,20.954,107.086,0.355162,0.0,0.0
1950,487.25,21.2993,22.087,150.485,99.297,94.9249,0.00161928,0.103908,20.9524,107.066,0.399683,0.0,0.0
1960,489.75,21.7494,22.1447,155.738,99.2712,94.9895,0.00173668,0.104442,20.9519,107.035,0.391339,0.0,0.0
1970,492.25,22.1394,22.6224,156.518,99.2809,94.8532,0.00194323,0.103986,20.9529,106.985,0.404945,0.0,0.0
1980,494.75,21.8246,22.4151,156.265,99.2619,95.2332,0.0019566,0.103572,20.9551,106.935,0.367768,0.0,0.0
1990,497.25,21.9655,22.6983,154.683,99.2696,94.7828,0.00185535,0.104247,20.9566,106.895,0.410527,0.0,0.0
2000,499.75,22.0485,22.9402,154.465,99.2515,94.7614,0.00175979,0.105044,20.956,106.855,0.410912,0.0,0.0
2010,502.25,21.9799,22.811,158.276,99.2623,95.3781,0.00173066,0.105067,20.9558,106.805,0.354308,0.0,0.0
2020,504.75,22.1022,22.6668,158.977,99.2414,94.845,0.00169042,0.10513,20.9557,106.765,0.402187,0.0,0.0
2030,507.25,22.5519,23.2767,153.911,99.2503,94.4778,0.00158493,0.105618,20.9547,106.735,0.437412,0.0,0.0
2040,509.75,22.2854,23.4039,152.99,99.2293,93.9439,0.00148715,0.106852,20.9536,106.695,0.485844,0.0,0.0
2050,512.25,22.4535,23.2708,160.196,99.2378,94.0546,0.00154086,0.107989,20.9519,106.645,0.476145,0.0,0.0
2060,514.75,22.5912,23.4597,157.965,99.2181,95.0521,0.0016222,0.10871,20.9499,106.605,0.380744,0.0,0.0
2070,517.25,22.5136,23.4154,155.812,99.2044,94.8042,0.00166233,0.109357,20.9491,106.545,0.402691,0.0,0.0
2080,519.75,22.5927,23.2751,154.731,99.2012,94.8553,0.00170877,0.109647,20.9476,106.535,0.397625,0.0,0.0
2090,522.25,22.3312,23.7081,154.931,99.1843,94.2415,0.00166219,0.110364,20.947,106.495,0.453735,0.0,0.0
2100,524.75,22.7127,23.799,155.668,99.1714,94.134,0.00166401,0.111382,20.9468,106.415,0.462707,0.0,0.0
2110,527.25,22.9202,23.7294,157.601,99.1641,94.8812,0.00176723,0.111873,20.9468,106.385,0.391885,0.0,0.0
2120,529.75,22.7957,23.5445,155.183,99.1468,95.0825,0.00185845,0.111827,20.9467,106.335,0.371524,0.0,0.0
2130,532.25,22.8626,23.7838,154.568,99.1368,94.4066,0.00183771,0.111676,20.9452,106.295,0.43395,0.0,0.0
2140,534.75,22.916,23.7071,158.917,99.1476,94.2522,0.00176297,0.111335,20.9447,106.245,0.449449,0.0,0.0
2150,537.25,22.9833,23.6595,159.138,99.1138,94.4004,0.00181566,0.111319,20.9445,106.185,0.432477,0.0,0.0
2160,539.75,23.0707,24.1324,156.363,99.1138,94.7952,0.00185184,0.111537,20.9444,106.125,0.395434,0.0,0.0
2170,542.25,23.3447,24.2898,154.662,99.0941,94.477,0.00180122,0.111914,20.944,106.105,0.423514,0.0,0.0
2180,544.75,23.6727,24.4632,153.716,99.0961,93.9924,0.00184601,0.112328,20.9427,106.055,0.469333,0.0,0.0
2190,547.25,23.5446,24.4215,157.704,99.0873,94.4033,0.00184423,0.113927,20.9408,106.035,0.429826,0.0,0.0
2200,549.75,23.3217,24.466,159.859,99.0889,93.9896,0.00184341,0.116558,20.9395,105.985,0.468955,0.0,0.0
2210,552.25,23.3978,24.5906,160.606,99.0812,94.4679,0.00204323,0.118212,20.9386,105.924,0.42321,0.0,0.0
2220,554.75,23.2457,24.3721,153.061,99.0877,94.2769,0.00223646,0.117439,20.9388,105.884,0.441753,0.0,0.0
2230,557.25,23.7123,24.5859,153.441,99.0828,94.3551,0.00222343,0.115911,20.9399,105.854,0.433959,0.0,0.0
2240,559.75,23.361,24.5507,156.482,99.0708,94.5321,0.00205651,0.114234,20.9423,105.784,0.416242,0.0,0.0
2250,562.25,23.5469,24.4403,156.281,99.0736,94.2864,0.0019947,0.112972,20.9442,105.744,0.4396,0.0,0.0
2260,564.75,23.7914,24.8599,155.605,99.0635,94.3514,0.00204534,0.112347,20.944,105.704,0.432578,0.0,0.0
2270,567.25,23.948,24.4921,156.039,99.0672,93.7743,0.0021071,0.111879,20.9432,105.654,0.487365,0.0,0.0
2280,569.75,23.6166,24.6702,155.345,99.0515,94.633,0.0020361,0.111768,20.9429,105.604,0.405046,0.0,0.0
2290,572.25,23.3212,24.3463,152.123,99.0502,94.3543,0.00199339,0.113491,20.9401,105.534,0.431116,0.0,0.0
2300,574.75,23.6782,24.7679,158.401,99.0386,94.2872,0.00189699,0.115456,20.9367,105.474,0.436385,0.0,0.0
2310,577.25,24.0578,25.0308,155.613,99.0507,94.7306,0.00195861,0.117652,20.933,105.434,0.395828,0.0,0.0
2320,579.75,23.7928,24.7494,155.423,99.0454,94.1102,0.00209167,0.119478,20.9317,105.354,0.453678,0.0,0.0
2330,582.25,23.9023,25.3876,154.023,99.0494,94.6433,0.0020921,0.120329,20.9312,105.324,0.4039,0.0,0.0
2340,584.75,23.839,24.5326,157.433,99.0406,94.3979,0.00203657,0.119965,20.931,105.274,0.426147,0.0,0.0
2350,587.25,23.8168,25.0121,150.805,99.0434,94.2094,0.00197374,0.120121,20.931,105.224,0.444146,0.0,0.0
2360,589.75,24.0832,25.3554,154.172,99.0402,94.4099,0.00186979,0.119968,20.9314,105.164,0.424989,0.0,0.0
2370,592.25,24.0429,24.6683,154.099,99.0531,94.1662,0.00195522,0.119575,20.9322,105.094,0.449085,0.0,0.0
2380,594.75,23.9713,25.1422,156.66,99.0293,94.7812,0.0019503,0.118815,20.9334,105.084,0.389172,0.0,0.0
2390,597.25,24.5342,25.2078,156.734,99.0333,94.3621,0.00181166,0.118526,20.9347,105.054,0.428866,0.0,0.0
2400,599.75,24.6519,25.8401,153.713,99.0281,94.7149,0.00174804,0.118557,20.9367,104.984,0.395273,0.0,0.0
2410,602.25,24.6245,25.2362,157.306,99.0185,94.4346,0.00166315,0.118687,20.936,104.934,0.420718,0.0,0.0
2420,604.75,24.5026,25.1143,152.732,99.0249,94.7314,0.00155705,0.118933,20.9344,104.884,0.393442,0.0,0.0
2430,607.25,24.7218,25.2988,153.624,99.0249,94.449,0.00156267,0.119188,20.9336,104.834,0.419941,0.0,0.0
2440,609.75,24.7318,25.6259,156.992,99.0313,94.3638,0.00158809,0.119695,20.9319,104.763,0.42853,0.0,0.0
2450,612.25,24.5763,25.6365,157.068,99.0253,94.3695,0.00158227,0.120522,20.9319,104.733,0.427448,0.0,0.0
2460,614.75,24.7432,25.7022,159.66,99.0281,94.4547,0.00176465,0.120911,20.931,104.663,0.419689,0.0,0.0
2470,617.25,24.0346,25.264,155.302,99.0193,94.0546,0.00204494,0.122054,20.9294,104.593,0.456577,0.0,0.0
2480,619.75,24.6737,25.6083,154.946,99.0325,93.8393,0.00213247,0.122931,20.9286,104.573,0.478109,0.0,0.0
2490,622.25,24.8205,25.9318,152.771,99.0293,93.6339,0.00218154,0.122992,20.9284,104.533,0.497272,0.0,0.0
2500,624.75,24.8568,25.2993,155.231,99.0454,94.5177,0.00217418,0.123544,20.9276,104.463,0.415323,0.0,0.0
2510,627.25,24.5248,25.5876,155.892,99.0362,94.0859,0.00199514,0.124491,20.9262,104.413,0.455139,0.0,0.0
2520,629.75,24.9395,25.9675,156.254,99.0329,93.9208,0.00179764,0.125348,20.9237,104.323,0.470438,0.0,0.0
2530,632.25,25.1295,26.0517,153.229,99.0341,94.8503,0.00169027,0.126558,20.9215,104.303,0.38313,0.0,0.0
2540,634.75,25.222,26.0567,152.977,99.0354,94.7355,0.00176524,0.127067,20.92,104.243,0.393994,0.0,0.0
2550,637.25,24.9523,25.5336,156.893,99.0321,93.9286,0.00185778,0.127719,20.9185,104.153,0.469627,0.0,0.0
2560,639.75,25.0507,26.3458,158.548,99.0346,94.3028,0.00162161,0.1291,20.9162,104.113,0.434552,0.0,0.0
2570,642.25,24.8002,26.1392,159.739,99.0446,93.4317,0.0014415,0.130361,20.9149,104.083,0.517824,0.0,0.0
2580,644.75,25.2697,26.3005,153.699,99.0482,93.2354,0.00142487,0.132208,20.9138,104.013,0.536824,0.0,0.0
2590,647.25,24.9905,26.5223,156.662,99.0551,94.5844,0.00136946,0.134974,20.909,103.913,0.409927,0.0,0.0
2600,649.75,25.619,26.5741,152.89,99.0736,93.7726,0.00143664,0.138201,20.9022,103.893,0.488098,0.0,0.0
2610,652.25,25.7187,26.4505,154.57,99.0663,94.0904,0.00171114,0.141275,20.8969,103.823,0.457417,0.0,0.0
2620,654.75,25.5822,26.5703,152.03,99.074,94.2077,0.00190323,0.145219,20.8911,103.743,0.447042,0.0,0.0
2630,657.25,25.7648,27.2431,153.213,99.0885,93.8858,0.00192264,0.14855,20.887,103.622,0.478722,0.0,0.0
2640,659.75,25.405,26.5604,151.166,99.0957,93.2881,0.00182068,0.151341,20.8846,103.572,0.536063,0.0,0.0
2650,662.25,25.8753,27.2265,152.132,99.1179,93.6347,0.00172311,0.155428,20.8782,103.522,0.505126,0.0,0.0
2660,664.75,26.2337,27.1581,158.822,99.1384,93.9134,0.00180829,0.159119,20.8739,103.442,0.480584,0.0,0.0
2670,667.25,25.8233,27.037,152.685,99.14,93.9216,0.00195906,0.161167,20.8702,103.372,0.47995,0.0,0.0
2680,669.75,26.7084,27.3897,148.662,99.1484,93.3638,0.00200362,0.164497,20.8637,103.302,0.533579,0.0,0.0
2690,672.25,26.8761,27.3524,155.042,99.1714,93.9068,0.00189563,0.169401,20.8571,103.182,0.484161,0.0,0.0
2700,674.75,27.1294,28.0876,148.021,99.1859,93.1979,0.00171208,0.173892,20.8501,103.112,0.552716,0.0,0.0
2710,677.25,27.0821,28.4846,153.051,99.1927,92.8229,0.00167942,0.17682,20.8449,103.032,0.589118,0.0,0.0
2720,679.75,27.4476,28.6448,147.232,99.2181,92.6451,0.00163365,0.180052,20.8408,102.912,0.608408,0.0,0.0
2730,682.25,27.6179,28.544,153.435,99.2052,92.8114,0.00148257,0.183311,20.8397,102.822,0.591335,0.0,0.0
2740,684.75,28.4273,29.7724,151.221,99.2382,93.6627,0.00134422,0.185844,20.8352,102.732,0.513242,0.0,0.0
2750,687.25,28.4885,29.4095,149.089,99.245,93.7055,0.00149338,0.188946,20.8314,102.642,0.509798,0.0,0.0
2760,689.75,28.2144,29.7793,152.813,99.2664,92.7344,0.00190073,0.192401,20.8259,102.541,0.604173,0.0,0.0
2770,692.25,28.2153,29.739,157.757,99.2619,93.8685,0.00211917,0.195005,20.822,102.471,0.495881,0.0,0.0
2780,694.75,28.7703,29.9344,157.958,99.2748,92.459,0.00198205,0.197135,20.8192,102.361,0.631328,0.0,0.0
2790,697.25,28.87,30.7357,150.264,99.2853,92.3894,0.00181696,0.19796,20.8181,102.261,0.638944,0.0,0.0
2800,699.75,29.4414,30.399,147.123,99.303,92.7998,0.00170915,0.199644,20.8155,102.171,0.601183,0.0,0.0
2810,702.25,29.2666,30.4331,150.323,99.3002,93.5919,0.00165042,0.20208,20.8123,102.061,0.525496,0.0,0.0
2820,704.75,29.6152,31.3957,150.611,99.3014,92.8682,0.00164259,0.203,20.8095,101.951,0.594506,0.0,0.0
2830,707.25,30.1431,31.5939,152.447,99.3002,92.3083,0.00166136,0.204256,20.8073,101.841,0.648071,0.0,0.0
2840,709.75,29.8886,31.5306,155.581,99.2986,92.3589,0.00166088,0.206311,20.8044,101.751,0.643059,0.0,0.0
2850,712.25,30.2096,32.034,151.631,99.3038,91.9613,0.00170836,0.206842,20.8034,101.661,0.681828,0.0,0.0
2860,714.75,30.4666,32.2563,152.739,99.3022,92.2083,0.00172896,0.207958,20.8017,101.561,0.657875,0.0,0.0
2870,717.25,29.9885,31.5111,149.452,99.3094,92.24,0.00176732,0.208903,20.801,101.44,0.655471,0.0,0.0
2880,719.75,30.8553,32.3639,150.421,99.3114,92.0185,0.0018717,0.209378,20.8002,101.32,0.676989,0.0,0.0
2890,722.25,30.811,32.5295,152.453,99.3279,92.5039,0.0018935,0.209223,20.7984,101.25,0.63177,0.0,0.0
2900,724.75,30.9639,32.5924,149.682,99.3199,90.7872,0.00191923,0.209398,20.7977,101.12,0.797318,0.0,0.0
2910,727.25,30.601,32.9708,150.929,99.3235,91.7896,0.00195017,0.209632,20.7975,101.02,0.700174,0.0,0.0
2920,729.75,31.1533,32.6338,155.671,99.3195,90.7888,0.00208722,0.209539,20.7996,100.92,0.79712,0.0,0.0
2930,732.25,31.6176,32.9226,145.845,99.3159,91.2166,0.00217875,0.208363,20.8025,100.83,0.755077,0.0,0.0
2940,734.75,31.2447,33.628,154.764,99.311,91.2643,0.00213896,0.206602,20.8055,100.73,0.75,0.0,0.0
2950,737.25,31.2204,32.8541,153.764,99.2961,91.2071,0.00206411,0.205658,20.8083,100.64,0.754236,0.0,0.0
2960,739.75,31.342,33.265,152.759,99.2869,90.8016,0.00201694,0.204692,20.8099,100.51,0.792959,0.0,0.0
2970,742.25,31.5132,33.2873,151.522,99.2672,91.3755,0.00208816,0.202679,20.8127,100.43,0.735276,0.0,0.0
2980,744.75,31.4495,33.381,150.229,99.239,91.5554,0.00227851,0.200226,20.8174,100.329,0.715298,0.0,0.0
2990,747.25,31.4582,33.2385,152.342,99.2285,91.3549,0.00241182,0.197585,20.8201,100.239,0.733819,0.0,0.0
3000,749.75,31.4311,33.5068,152.964,99.2157,91.4409,0.00240548,0.195915,20.821,100.149,0.724311,0.0,0.0
3010,752.25,31.5453,33.3257,155.689,99.1867,91.9353,0.00233851,0.195663,20.8197,100.069,0.673857,0.0,0.0
3020,754.75,31.1338,33.0658,153.66,99.1609,92.1185,0.00230429,0.195452,20.8192,99.9592,0.653883,0.0,0.0
3030,757.25,31.6513,33.5438,150.351,99.1146,91.3837,0.00236353,0.194831,20.8199,99.8891,0.720826,0.0,0.0
3040,759.75,31.5508,32.9534,152.413,99.0909,91.944,0.00246529,0.193131,20.8223,99.799,0.664446,0.0,0.0
3050,762.25,31.8612,33.3939,152.1,99.0499,91.8394,0.00240155,0.191662,20.8227,99.729,0.670869,0.0,0.0
3060,764.75,30.9077,32.7167,152.37,99.0233,91.9143,0.00222911,0.189906,20.8245,99.6489,0.66125,0.0,0.0
3070,767.25,31.3398,33.5667,156.008,98.9931,91.669,0.00211934,0.187682,20.8278,99.5488,0.68227,0.0,0.0
3080,769.75,31.5382,33.0769,154.992,98.9758,91.9843,0.00210787,0.185726,20.8313,99.4988,0.650237,0.0,0.0
3090,772.25,31.4558,33.2886,152.184,98.9303,91.1622,0.00220623,0.183854,20.8349,99.3586,0.725843,0.0,0.0
3100,774.75,31.2135,32.7962,153.513,98.8981,91.6245,0.00217466,0.182048,20.8392,99.2786,0.678055,0.0,0.0
3110,777.25,31.0176,32.8031,148.233,98.8567,92.2955,0.00210307,0.17941,20.8426,99.2285,0.609567,0.0,0.0
3120,779.75,31.1464,32.8072,148.599,98.8317,92.3219,0.0020119,0.177619,20.8456,99.1484,0.604792,0.0,0.0
3130,782.25,31.6264,33.2208,155.173,98.7689,92.6899,0.00200783,0.176069,20.8502,99.1084,0.563839,0.0,0.0
3140,784.75,31.0089,33.114,154.003,98.7335,91.2417,0.00215724,0.173498,20.8558,99.0083,0.700436,0.0,0.0
3150,787.25,30.6663,32.7377,152.816,98.6973,91.5957,0.00228226,0.171009,20.8613,98.9383,0.662805,0.0,0.0
3160,789.75,30.8322,32.4757,156.445,98.6603,92.2243,0.00228206,0.168509,20.8657,98.8882,0.598766,0.0,0.0
3170,792.25,30.4898,32.4274,153.73,98.6301,92.0469,0.00213025,0.165854,20.8695,98.8282,0.613144,0.0,0.0
3180,794.75,31.044,32.1413,152.226,98.5754,92.1284,0.00193652,0.162953,20.8734,98.7181,0.600361,0.0,0.0
3190,797.25,30.5247,32.4625,154.984,98.5412,92.5306,0.00188741,0.160914,20.8751,98.688,0.558615,0.0,0.0
3200,799.75,30.6147,32.2795,156.021,98.4945,91.9827,0.00190252,0.15883,20.8789,98.618,0.607125,0.0,0.0
3210,802.25,30.138,31.5783,159.471,98.4651,92.7208,0.00182104,0.155668,20.8853,98.5379,0.533534,0.0,0.0
3220,804.75,29.8853,31.9873,156.42,98.4293,92.7225,0.00182902,0.152554,20.8903,98.4779,0.530147,0.0,0.0
3230,807.25,29.9445,31.5292,157.125,98.3955,92.797,0.00179062,0.150609,20.8944,98.4378,0.519969,0.0,0.0
3240,809.75,29.6458,31.5898,156.655,98.3536,92.6331,0.00174905,0.148068,20.898,98.3978,0.531878,0.0,0.0
3250,812.25,29.6837,30.9519,151.654,98.3093,92.1881,0.00169128,0.146099,20.9012,98.3377,0.570626,0.0,0.0
3260,814.75,29.3548,31.592,150.952,98.2623,92.7175,0.00162851,0.144767,20.9026,98.2777,0.515546,0.0,0.0
3270,817.25,29.78,31.2646,153.492,98.2381,93.1687,0.00155488,0.143307,20.9052,98.2477,0.470276,0.0,0.0
3280,819.75,29.3819,31.0757,151.281,98.1926,92.1243,0.00164425,0.14115,20.9068,98.2176,0.566228,0.0,0.0
3290,822.25,29.5108,30.6186,155.386,98.1524,92.7463,0.00179186,0.139112,20.908,98.1376,0.502858,0.0,0.0
3300,824.75,29.28,30.8703,155.313,98.1146,93.7932,0.00179623,0.137516,20.9098,98.0775,0.39981,0.0,0.0
3310,827.25,29.1471,31.0532,158.733,98.0691,93.9756,0.00162512,0.136028,20.9111,98.0174,0.378453,0.0,0.0
3320,829.75,28.8127,29.9947,154.459,98.0522,93.1172,0.00162178,0.135527,20.9102,98.0174,0.458366,0.0,0.0
3330,832.25,28.7608,30.2797,153.488,98.0248,92.1815,0.00182348,0.135205,20.9099,97.9474,0.545533,0.0,0.0
3340,834.75,28.4236,30.027,155.699,98.0095,93.1535,0.00187896,0.133791,20.9113,97.9374,0.45105,0.0,0.0
3350,837.25,28.2148,30.1884,153.296,97.9773,94.0064,0.00186654,0.131847,20.9139,97.8673,0.367229,0.0,0.0
3360,839.75,28.5817,29.9189,155.924,97.9797,93.3741,0.00197927,0.130195,20.9168,97.8573,0.427353,0.0,0.0
3370,842.25,28.2045,29.7844,152.645,97.9512,93.6244,0.00197415,0.128454,20.9194,97.8073,0.401003,0.0,0.0
3380,844.75,27.7761,29.543,151.187,97.9443,93.2325,0.00193706,0.126301,20.9237,97.7372,0.437616,0.0,0.0
3390,847.25,27.6299,29.5731,154.034,97.9455,93.3474,0.00199674,0.124933,20.9258,97.7372,0.426797,0.0,0.0
3400,849.75,27.8096,29.5767,153.083,97.9258,93.7265,0.00204595,0.123757,20.9287,97.7072,0.389032,0.0,0.0
3410,852.25,27.8065,29.0847,154.103,97.927,93.2469,0.00199399,0.122141,20.9306,97.6671,0.434676,0.0,0.0
3420,854.75,27.6791,29.3501,154.218,97.9286,93.4684,0.00193398,0.121293,20.9315,97.6371,0.413765,0.0,0.0
3430,857.25,27.3307,28.8035,155.273,97.931,93.5231,0.00193367,0.119267,20.9344,97.5871,0.408785,0.0,0.0
3440,859.75,27.333,29.1762,155.98,97.9391,93.7401,0.00190022,0.117461,20.9366,97.577,0.388949,0.0,0.0
3450,862.25,26.789,28.426,155.732,97.9689,92.8089,0.00174584,0.116203,20.9383,97.537,0.480261,0.0,0.0
3460,864.75,27.4752,28.6395,155.574,97.9789,93.547,0.001505,0.114668,20.9403,97.497,0.41086,0.0,0.0
3470,867.25,27.1989,28.6131,156.582,98.0027,93.8739,0.00132441,0.113139,20.9413,97.4669,0.38205,0.0,0.0
3480,869.75,26.8302,28.1546,160.425,98.0256,93.8298,0.00147522,0.111807,20.9421,97.4469,0.388293,0.0,0.0
3490,872.25,27.2714,28.1662,155.99,98.0538,93.3815,0.0016768,0.109983,20.9434,97.4169,0.433355,0.0,0.0
3500,874.75,26.6967,27.9625,154.153,98.0916,94.013,0.00181208,0.108887,20.9451,97.4069,0.376955,0.0,0.0
3510,877.25,26.6299,27.9275,153.559,98.1286,93.4243,0.00175653,0.10815,20.9465,97.3769,0.436059,0.0,0.0
3520,879.75,26.432,27.7057,156.755,98.1657,93.7977,0.00170786,0.106824,20.9471,97.3568,0.404003,0.0,0.0
3530,882.25,26.2606,28.3405,155.11,98.226,94.3679,0.00166435,0.104816,20.9487,97.3268,0.35567,0.0,0.0
3540,884.75,26.0787,27.252,156.404,98.2695,94.0435,0.00165603,0.103784,20.9494,97.3168,0.390161,0.0,0.0
3550,887.25,25.9355,27.8217,156.775,98.3266,93.8603,0.00163552,0.103394,20.9492,97.3368,0.412628,0.0,0.0
3560,889.75,26.0056,27.4518,160.9,98.3745,94.5791,0.00161822,0.102202,20.9497,97.2768,0.349238,0.0,0.0
3570,892.25,25.5522,27.5534,162.231,98.4236,94.1789,0.00163564,0.101186,20.9508,97.2568,0.391299,0.0,0.0
3580,894.75,25.5205,26.649,155.451,98.488,93.8401,0.00171984,0.100317,20.9507,97.2468,0.429093,0.0,0.0
3590,897.25,25.2998,26.1718,155.038,98.5339,93.8467,0.00171307,0.0999084,20.9506,97.2267,0.432603,0.0,0.0
3600,899.75,25.991,26.6035,157.779,98.5826,94.1719,0.00160814,0.0994784,20.9515,97.1867,0.406283,0.0,0.0
3610,902.25,25.8883,26.8068,155.193,98.618,94.5873,0.00148547,0.0987664,20.9524,97.1567,0.370406,0.0,0.0
3620,904.75,25.043,26.1101,155.847,98.6611,94.8166,0.00130302,0.0978944,20.9527,97.1567,0.352791,0.0,0.0
3630,907.25,25.1661,26.2151,153.025,98.7017,94.3786,0.00138832,0.0967679,20.9542,97.1367,0.397546,0.0,0.0
3640,909.75,24.9128,25.9966,155.505,98.7613,95.1011,0.00151723,0.0956711,20.9549,97.1066,0.335212,0.0,0.0
3650,912.25,24.8955,26.0911,158.318,98.8023,94.3658,0.00151268,0.0944119,20.9565,97.1066,0.407789,0.0,0.0
3660,914.75,24.7926,26.0893,152.222,98.8583,95.0982,0.00148013,0.0934001,20.9591,97.1066,0.344193,0.0,0.0
3670,917.25,24.7854,25.6567,159.246,98.907,94.8689,0.00144422,0.0924691,20.9615,97.0866,0.369992,0.0,0.0
3680,919.75,24.9709,25.9674,159.587,98.9665,95.1315,0.00144793,0.0916236,20.9634,97.0966,0.350796,0.0,0.0
3690,922.25,24.5559,25.8727,156.963,99.0325,95.0936,0.00141795,0.090724,20.9657,97.0666,0.360249,0.0,0.0
3700,924.75,24.4326,25.6361,157.956,99.078,95.1216,0.00135485,0.0898142,20.9678,97.0366,0.36171,0.0,0.0
3710,927.25,24.6421,25.4079,154.737,99.134,95.4106,0.0014501,0.0889318,20.9692,97.0566,0.339795,0.0,0.0
3720,929.75,24.1675,25.3849,156.211,99.1919,94.7651,0.00160626,0.0881949,20.9703,97.0366,0.405237,0.0,0.0
3730,932.25,24.0751,25.2309,157.956,99.2446,95.1035,0.00162276,0.0874657,20.9734,97.0266,0.378314,0.0,0.0
3740,934.75,24.2431,25.42,155.979,99.3042,95.1352,0.00156754,0.0863692,20.9761,97.0266,0.380682,0.0,0.0
3750,937.25,23.5765,24.9047,155.831,99.3662,95.7445,0.00153901,0.0858867,20.9782,97.0065,0.329557,0.0,0.0
3760,939.75,23.9474,24.9387,157.818,99.3956,94.8413,0.00161432,0.0860936,20.9772,96.9865,0.41631,0.0,0.0
3770,942.25,23.5772,24.5552,153.303,99.4801,94.95,0.00166445,0.0871423,20.9765,96.9765,0.413689,0.0,0.0
3780,944.75,23.4357,24.7658,157.522,99.5151,95.5881,0.00173018,0.0872557,20.9763,96.9665,0.357363,0.0,0.0
3790,947.25,23.6445,24.4607,161.128,99.5783,95.2303,0.00183022,0.086176,20.9773,96.9765,0.396278,0.0,0.0
3800,949.75,23.4411,24.451,153.962,99.6145,95.1208,0.00182655,0.0843635,20.9793,96.9565,0.409718,0.0,0.0
3810,952.25,23.7821,24.7313,154.061,99.6773,95.2501,0.00171603,0.0830333,20.9821,96.9365,0.403256,0.0,0.0
3820,954.75,23.4138,24.3557,158.075,99.6982,95.5897,0.00158087,0.0818987,20.9844,96.9565,0.373527,0.0,0.0
3830,957.25,23.1487,24.0894,155.936,99.7396,95.0554,0.00153101,0.0803642,20.9864,96.9165,0.426974,0.0,0.0
3840,959.75,23.0288,23.9408,159.404,99.7783,95.8737,0.00155051,0.0788759,20.9874,96.9265,0.354319,0.0,0.0
3850,962.25,23.4989,23.9601,160.779,99.8129,95.5535,0.00173795,0.0782195,20.9883,96.9265,0.387098,0.0,0.0
3860,964.75,23.3662,24.0755,158.089,99.8515,95.6576,0.00196716,0.0782058,20.9889,96.9064,0.380863,0.0,0.0
3870,967.25,22.872,24.0049,159.136,99.8656,96.1862,0.00198731,0.0781722,20.9904,96.8964,0.333203,0.0,0.0
3880,969.75,22.1164,23.9317,157.588,99.8773,95.5806,0.00191032,0.0775526,20.9909,96.8964,0.390298,0.0,0.0
3890,972.25,22.6708,23.896,157.088,99.8998,95.2567,0.0018474,0.0775511,20.9911,96.8764,0.422439,0.0,0.0
3900,974.75,22.6657,23.596,158.327,99.9304,96.0779,0.00177177,0.0777658,20.9911,96.8764,0.348957,0.0,0.0
3910,977.25,22.321,23.6192,157.146,99.934,95.8894,0.00180992,0.0777289,20.9911,96.8664,0.366714,0.0,0.0
3920,979.75,22.4705,23.8714,156.804,99.9618,96.2385,0.00199409,0.0774999,20.9912,96.8464,0.336926,0.0,0.0
3930,982.25,22.8149,23.1402,158.379,99.9658,95.7334,0.00204817,0.0772358,20.9894,96.8264,0.383992,0.0,0.0
3940,984.75,22.9721,23.6664,159.546,99.9952,95.9001,0.002017,0.0768654,20.9896,96.8464,0.371155,0.0,0.0
3950,987.25,22.4172,23.2042,155.907,99.9888,95.5774,0.00203509,0.0765463,20.9902,96.8264,0.400506,0.0,0.0
3960,989.75,22.6293,23.2331,150.614,99.9831,96.5942,0.0018872,0.0762177,20.9904,96.8164,0.306075,0.0,0.0
3970,992.25,21.7013,22.599,157.656,99.9976,95.9919,0.0017598,0.0758434,20.9905,96.8064,0.362877,0.0,0.0
3980,994.75,22.4094,22.6439,153.332,100.001,95.9853,0.00187411,0.0756039,20.9912,96.8164,0.363807,0.0,0.0
3990,997.25,21.7546,22.3601,159.694,100.006,96.3867,0.00196775,0.0753413,20.9907,96.8064,0.327232,0.0,0.0
4000,999.75,21.9015,22.6233,156.544,100.012,96.2998,0.00192919,0.0753052,20.9906,96.8064,0.335735,0.0,0.0
4010,1002.25,21.9238,22.6608,158.195,100.01,96.0574,0.00194133,0.0755182,20.9913,96.7863,0.357933,0.0,0.0
4020,1004.75,22.5227,22.9993,156.866,100.009,95.8281,0.00206111,0.0756927,20.9923,96.7763,0.37904,0.0,0.0
4030,1007.25,21.4762,22.7462,156.547,100.014,95.7951,0.00209604,0.0756832,20.9927,96.7763,0.382556,0.0,0.0
4040,1009.75,21.6045,22.472,156.024,99.9956,96.525,0.00188582,0.0761519,20.9913,96.7563,0.313539,0.0,0.0
4050,1012.25,21.7295,22.3259,158.647,100.008,96.0429,0.00175655,0.0763802,20.9906,96.7563,0.359122,0.0,0.0
4060,1014.75,21.4227,22.1934,157.553,100.001,96.3595,0.00192231,0.0763656,20.99,96.7663,0.329235,0.0,0.0
4070,1017.25,22.1452,22.1316,159.207,100.001,96.2319,0.00214915,0.0765426,20.9888,96.7463,0.341034,0.0,0.0
4080,1019.75,21.9832,22.4888,155.695,99.9924,96.101,0.00225766,0.0768788,20.9878,96.7663,0.35233,0.0,0.0
4090,1022.25,21.5401,22.3002,157.631,99.9976,96.6703,0.00232203,0.0772036,20.9875,96.7563,0.300366,0.0,0.0
4100,1024.75,21.9657,22.4137,157.878,99.99,95.8116,0.00228669,0.0774649,20.9873,96.7463,0.378886,0.0,0.0
4110,1027.25,21.3811,21.4916,158.992,99.9908,95.9174,0.00225776,0.0774815,20.9874,96.7363,0.369162,0.0,0.0
4120,1029.75,21.4541,22.1415,158.364,99.9819,96.1916,0.00213334,0.0774325,20.9879,96.6963,0.343041,0.0,0.0
4130,1032.25,20.9453,21.5132,157.312,99.9932,95.9302,0.00199023,0.0775229,20.9887,96.6862,0.368195,0.0,0.0
4140,1034.75,20.9104,21.663,156.712,99.9779,95.8223,0.00197459,0.0774459,20.9904,96.6963,0.376823,0.0,0.0
4150,1037.25,21.0362,21.6044,156.656,99.9863,96.2146,0.00223962,0.0773773,20.9906,96.6862,0.341307,0.0,0.0
4160,1039.75,21.6163,21.9964,157.282,99.9819,96.1372,0.00247573,0.0774965,20.9903,96.6762,0.348057,0.0,0.0
4170,1042.25,20.6386,21.4685,158.009,99.9622,96.4546,0.00260351,0.0778375,20.9895,96.6762,0.31705,0.0,0.0
4180,1044.75,21.2221,22.2336,151.736,99.9662,96.2208,0.0027375,0.0780092,20.9889,96.6662,0.33895,0.0,0.0
4190,1047.25,21.2222,22.1292,156.598,99.9501,96.4192,0.00288918,0.0782363,20.9884,96.6462,0.319237,0.0,0.0
4200,1049.75,21.5946,22.2304,159.91,99.9501,96.2196,0.00289115,0.0784917,20.988,96.6562,0.337636,0.0,0.0
4210,1052.25,21.378,22.1093,158.46,99.9445,95.8379,0.00282761,0.0786011,20.9872,96.6562,0.372408,0.0,0.0
4220,1054.75,21.206,22.1707,158.129,99.9425,96.56,0.0025948,0.0790664,20.9872,96.6462,0.305606,0.0,0.0
4230,1057.25,20.8015,21.8043,159.06,99.922,96.2986,0.00241983,0.0794331,20.9873,96.6162,0.327844,0.0,0.0
4240,1059.75,21.6021,21.9156,155.92,99.9389,96.5209,0.002467,0.0796875,20.9869,96.6162,0.30888,0.0,0.0
4250,1062.25,21.0803,22.0451,153.518,99.934,96.9149,0.00262374,0.0799666,20.9867,96.6162,0.272296,0.0,0.0
4260,1064.75,21.095,21.7039,157.488,99.9324,96.6469,0.00273724,0.0802321,20.9867,96.5862,0.296731,0.0,0.0
4270,1067.25,21.294,22.0967,156.796,99.9393,96.171,0.00277579,0.0805154,20.9861,96.5962,0.341153,0.0,0.0
4280,1069.75,21.2022,22.023,160.762,99.9457,95.9668,0.00281829,0.0807855,20.9845,96.5862,0.36059,0.0,0.0
4290,1072.25,21.2978,21.6492,155.894,99.9284,95.5827,0.00292785,0.0812947,20.9838,96.5661,0.394648,0.0,0.0
4300,1074.75,20.9279,21.0808,160.816,99.9449,95.9833,0.00305662,0.0817583,20.9836,96.5561,0.358996,0.0,0.0
4310,1077.25,21.3117,21.8963,157.566,99.9304,95.9351,0.00310769,0.0820215,20.9835,96.5361,0.362164,0.0,0.0
4320,1079.75,21.2791,21.3624,158.186,99.9034,95.8589,0.0030717,0.0824053,20.9828,96.5261,0.366818,0.0,0.0
4330,1082.25,21.0245,21.4895,165.256,99.9055,96.0956,0.00316933,0.0828554,20.9817,96.5161,0.345105,0.0,0.0
4340,1084.75,21.2357,21.5901,158.152,99.889,96.2084,0.00326983,0.0831429,20.9813,96.5061,0.333227,0.0,0.0
4350,1087.25,21.2053,21.7884,154.375,99.8954,96.1376,0.00322523,0.083426,20.9817,96.4961,0.340334,0.0,0.0
4360,1089.75,21.4342,21.8158,157.143,99.8829,96.0405,0.00318005,0.0836133,20.9819,96.4861,0.3482,0.0,0.0
4370,1092.25,20.8535,21.6428,157.198,99.8845,96.1376,0.00311911,0.0838486,20.9807,96.4761,0.339369,0.0,0.0
4380,1094.75,21.1051,21.7731,158.684,99.8789,95.6144,0.00320938,0.0840863,20.98,96.456,0.387307,0.0,0.0
4390,1097.25,20.9357,21.5311,156.264,99.8998,95.9833,0.0033103,0.0843576,20.98,96.456,0.354991,0.0,0.0
4400,1099.75,20.7866,21.9077,158.31,99.8733,96.0182,,0.0844039,,96.426,0.349396,0.0,0.0
4410,1102.25,21.1125,21.9425,159.695,99.8785,96.6893,,0.0847333,,96.426,0.288046,0.0,0.0
4420,1104.75,21.3332,21.8573,154.777,99.8676,96.038,,,,96.416,0.347068,0.0,0.0
4430,1107.25,21.273,21.6077,156.083,99.8636,95.856,,,,96.406,0.363544,0.0,0.0
4440,1109.75,21.2932,22.0549,154.364,99.8632,95.6407,,,,96.386,0.383467,0.0,0.0
4442,1110.25,21.2382,21.6638,156.761,99.8688,96.0915,,,,96.386,0.342231,0.0,0.0