File: 01_Data/Wool_Rug/Cone/Wool_Rug_Cone_HF50Scan_220324_R1.csv
Names,Time,Stack TC,Smoke TC,Exh Press,Smoke Comp,Smoke Meas,CO Meter,CO2 Meter,O2 Meter,Sample Mass,Ext Coeff,Start Test,Flame Verif
Chan Gain,,500,500,1,1,1,1,1,1,1,1,1.0,1.0
Offset,,0,0,0.130261,0,0,0,0,0,0,0,0.0,0.0
Gain,,1,1,25.011,13.1874,13.4895,1,1,1,1.00089,1.01187,1.0,1.0
Units,sec,C,C,Pa,%,%,%,%,%,g,/m,,
Baseline,,31.8009,33.2297,151.492,99.2739,92.7461,0.000745239,0.0441231,21.0942,-836.128,0.603734,,
5,1,30.5059,31.7859,153.034,99.3485,92.5463,0.000887638,0.0455161,21.0903,-304.161,0.629536,0.0,0.0
10,2.25,30.6728,31.9105,148.996,99.247,91.529,0.00128152,0.0524234,21.0894,-304.442,0.718572,0.0,0.0
15,3.5,30.0684,32.0307,141.752,99.1589,92.1486,0.00185517,0.0587641,21.0403,-304.622,0.650808,0.0,1.0
20,4.75,31.1138,32.3376,135.797,99.072,91.3331,0.00252825,0.142632,20.95,-304.702,0.721925,0.0,1.0
25,6,31.8824,33.0333,122.224,99.0024,89.9388,0.00341083,0.246639,20.8006,-304.902,0.852235,0.0,1.0
30,7.25,34.9012,35.7674,124.363,99.0877,89.5374,0.00425518,0.349313,20.6596,-305.072,0.899581,0.0,0.0
35,8.5,34.9725,35.8939,118.723,99.3742,88.7742,0.00499745,0.428083,20.5412,-305.332,1.0012,0.0,0.0
40,9.75,36.7031,37.9469,127.877,99.6024,87.8611,0.0055679,0.487954,20.4518,-305.493,1.11332,0.0,0.0
45,11,38.1513,39.6345,124.336,99.7493,87.0818,0.00599384,0.527177,20.3932,-305.653,1.20548,0.0,0.0
50,12.25,39.702,41.398,121.053,99.8121,87.2102,0.00627373,0.54892,20.3576,-305.863,1.19798,0.0,0.0
55,13.5,40.902,42.7493,126.626,99.8511,88.6486,0.00644956,0.557222,20.3366,-306.053,1.05625,0.0,0.0
60,14.75,42.2096,44.987,129.334,99.8906,87.3543,0.00652351,0.554853,20.3323,-306.243,1.19031,0.0,0.0
65,16,43.9391,46.1022,125.789,99.8946,88.7984,0.00651627,0.543101,20.3488,-306.413,1.04513,0.0,0.0
70,17.25,44.3855,46.6678,128.069,99.829,87.4177,0.00643231,0.522695,20.3765,-306.543,1.17839,0.0,0.0
75,18.5,45.3258,47.8301,127.336,99.738,88.3654,0.00634676,0.506785,20.4,-306.654,1.0746,0.0,0.0
80,19.75,45.3644,48.4667,131.956,99.5968,88.875,0.00627966,0.488618,20.4215,-306.784,1.01098,0.0,0.0
85,21,47.1339,49.6853,130.828,99.4092,88.6581,0.00626202,0.472845,20.442,-306.974,1.01594,0.0,0.0
90,22.25,47.8032,50.615,130.025,99.4249,87.5495,0.0063025,0.459125,20.4627,-307.084,1.12903,0.0,0.0
95,23.5,48.7282,51.2975,139,99.4966,88.1789,0.00635341,0.448162,20.4784,-307.204,1.07184,0.0,0.0
100,24.75,49.2515,52.1108,127.557,99.5859,86.8937,0.0063569,0.440042,20.4927,-307.344,1.21013,0.0,0.0
105,26,49.8204,52.8204,128.087,99.6632,88.8964,0.00630477,0.433377,20.5042,-307.564,1.01475,0.0,0.0
110,27.25,49.8386,53.6691,135.268,99.765,88.1896,0.00623685,0.426898,20.5134,-307.694,1.09467,0.0,0.0
115,28.5,50.8459,53.9428,134.538,99.868,88.8738,0.00615526,0.420905,20.526,-307.835,1.03524,0.0,0.0
120,29.75,51.1016,54.6728,133.812,99.9698,87.885,0.00607336,0.414834,20.5367,-307.965,1.14359,0.0,0.0
125,31,52.2096,55.329,136.534,100.048,88.1007,0.00594919,0.4092,20.545,-308.095,1.1288,0.0,0.0
130,32.25,52.4745,56.0105,140.198,100.115,88.0459,0.00579742,0.402837,20.5542,-308.215,1.14021,0.0,0.0
135,33.5,52.8774,56.1489,133.159,100.173,89.3143,0.00564198,0.395157,20.563,-308.355,1.01846,0.0,0.0
140,34.75,52.4479,55.9485,132.678,100.207,88.9582,0.00548527,0.388774,20.5728,-308.485,1.05688,0.0,0.0
145,36,53.6548,56.7291,134.211,100.219,89.954,0.00534099,0.382462,20.5833,-308.615,0.959142,0.0,0.0
150,37.25,53.7003,56.3651,137.701,100.23,89.5205,0.00522059,0.374934,20.5958,-308.745,1.00298,0.0,0.0
155,38.5,52.8455,57.1016,133.354,100.209,89.3509,0.00511095,0.36671,20.6073,-308.876,1.018,0.0,0.0
160,39.75,54.213,57.8178,137.555,100.154,89.5757,0.00498532,0.359386,20.6174,-308.976,0.990774,0.0,0.0
165,41,54.8337,58.1534,133.266,100.081,88.9804,0.00481961,0.354237,20.6251,-309.136,1.0435,0.0,0.0
170,42.25,54.5225,57.8643,131.343,100.007,89.0146,0.00460484,0.350002,20.6322,-309.196,1.03352,0.0,0.0
175,43.5,54.737,58.641,141.743,99.9119,89.1348,0.0044059,0.345328,20.6388,-309.346,1.01311,0.0,0.0
180,44.75,55.0656,58.7263,132.606,99.7883,89.306,0.00419683,0.340621,20.6465,-309.466,0.985089,0.0,0.0
185,46,54.7789,58.4205,133.243,99.6728,89.1389,0.00407337,0.337356,20.653,-309.586,0.991436,0.0,0.0
190,47.25,55.4015,58.9939,140.31,99.5682,88.847,0.00406217,0.333341,20.6575,-309.736,1.01122,0.0,0.0
195,48.5,54.9054,58.5807,136.605,99.4338,88.684,0.00410965,0.329445,20.6608,-309.866,1.01553,0.0,0.0
200,49.75,55.2999,58.8352,136.426,99.2788,89.3011,0.00413478,0.325587,20.6659,-310.007,0.940145,0.0,0.0
205,51,55.6522,59.6193,140.458,99.1621,88.2785,0.00411499,0.321357,20.672,-310.087,1.03193,0.0,0.0
210,52.25,55.7043,59.6287,133.342,99.0317,89.3036,0.00405415,0.314525,20.6822,-310.217,0.917779,0.0,0.0
215,53.5,55.586,59.7914,136.462,98.913,88.2925,0.00398376,0.308132,20.6911,-310.327,1.0082,0.0,0.0
220,54.75,55.5151,59.5855,140.796,98.7891,88.868,0.00388336,0.304487,20.6984,-310.427,0.939397,0.0,0.0
225,56,55.9764,60.3766,134.019,98.707,89.2274,0.00380415,0.301448,20.7033,-310.527,0.896195,0.0,0.0
230,57.25,56.0837,60.3647,133.609,98.6176,88.7877,0.00374632,0.298863,20.7073,-310.657,0.932001,0.0,0.0
235,58.5,56.2491,60.4313,139.059,98.5283,88.7375,0.00367627,0.296697,20.7107,-310.807,0.928979,0.0,0.0
240,59.75,56.0239,60.1124,142.051,98.4647,89.2682,0.00360083,0.294814,20.7134,-310.897,0.870328,0.0,0.0
245,61,56.5724,60.1865,137.647,98.4176,89.6292,0.00352595,0.292168,20.7165,-311.037,0.830257,0.0,0.0
250,62.25,56.5323,60.5905,138.783,98.3906,88.9532,0.00347429,0.289216,20.7204,-311.148,0.895019,0.0,0.0
255,63.5,56.3276,60.8287,136.308,98.3516,89.1632,0.00341781,0.285567,20.7254,-311.268,0.870572,0.0,0.0
260,64.75,56.7272,60.7424,137.251,98.3347,89.1982,0.00335808,0.281953,20.7296,-311.388,0.865564,0.0,0.0
265,66,56.453,61.0699,140.836,98.3689,89.2167,0.00327938,0.277946,20.7368,-311.458,0.866808,0.0,0.0
270,67.25,57.0201,61.0657,141.938,98.389,89.4505,0.00318853,0.274182,20.7428,-311.588,0.845391,0.0,0.0
275,68.5,56.4967,60.6152,135.608,98.4116,89.6127,0.00306305,0.270292,20.7482,-311.688,0.831344,0.0,0.0
280,69.75,56.552,60.8806,141.275,98.453,90.0355,0.00291879,0.267443,20.7528,-311.828,0.793304,0.0,0.0
285,71,56.8368,60.8548,145.223,98.5098,89.5946,0.00282153,0.264127,20.7576,-311.938,0.84199,0.0,0.0
290,72.25,56.5864,60.9797,139.323,98.5589,90.1709,0.00280407,0.260993,20.7638,-312.028,0.789498,0.0,0.0
295,73.5,56.6244,61.172,140.968,98.6148,90.4221,0.00283377,0.258923,20.7678,-312.128,0.769851,0.0,0.0
300,74.75,56.6378,60.6939,136.627,98.6913,89.6053,0.00287602,0.257923,20.7702,-312.219,0.857269,0.0,0.0
305,76,56.5696,61.0334,142.31,98.7661,89.3431,0.00292488,0.256516,20.7724,-312.309,0.890013,0.0,0.0
310,77.25,56.3378,60.559,141.264,98.8365,90.0865,0.00296148,0.25466,20.7753,-312.419,0.822784,0.0,0.0
315,78.5,56.6252,60.6524,140.228,98.8893,89.8589,0.0030002,0.253314,20.7775,-312.549,0.849975,0.0,0.0
320,79.75,56.4928,61.1626,138.738,98.969,90.0602,0.00301633,0.251878,20.7798,-312.649,0.837262,0.0,0.0
325,81,56.879,60.7935,140.264,99.0418,90.6888,0.00302315,0.250482,20.7826,-312.709,0.782054,0.0,0.0
330,82.25,56.6099,60.9399,143.482,99.0961,90.8646,0.00304838,0.24807,20.7862,-312.859,0.769734,0.0,0.0
335,83.5,56.2554,60.7889,133.511,99.1609,90.7765,0.00310417,0.246029,20.7888,-312.959,0.784145,0.0,0.0
340,84.75,56.7626,60.5395,140.658,99.2446,90.8514,0.00318614,0.24486,20.7908,-312.919,0.784312,0.0,0.0
345,86,56.4127,60.9048,136.885,99.3058,90.8597,0.00325165,0.24422,20.7922,-313.099,0.788977,0.0,0.0
350,87.25,55.9141,60.7865,138.704,99.3448,90.6291,0.00330906,0.243512,20.7941,-313.159,0.815015,0.0,0.0
355,88.5,56.2816,60.7445,142.4,99.3915,91.1878,0.00332725,0.242856,20.7954,-313.31,0.764642,0.0,0.0
360,89.75,56.1035,60.533,139.339,99.4414,91.1659,0.00332441,0.241574,20.797,-313.38,0.771221,0.0,0.0
365,91,56.1853,60.4662,133.822,99.4821,91.3644,0.0032855,0.239771,20.801,-313.49,0.755551,0.0,0.0
370,92.25,55.7561,60.3613,135.213,99.5155,91.2981,0.00319929,0.238283,20.8034,-313.57,0.764972,0.0,0.0
375,93.5,55.2984,60.3765,140.311,99.5408,91.3438,0.0030725,0.237169,20.8048,-313.64,0.762791,0.0,0.0
380,94.75,56.3724,60.2809,138.781,99.5787,91.5459,0.00298694,0.236268,20.8065,-313.75,0.746544,0.0,0.0
385,96,56.2093,60.5416,138.277,99.5827,90.9202,0.0028218,0.235972,20.8074,-313.86,0.807781,0.0,0.0
390,97.25,55.4151,59.7195,137.042,99.6008,91.7196,0.0027308,0.236156,20.8078,-313.94,0.73169,0.0,0.0
395,98.5,55.6866,60.5418,140.019,99.6262,92.2466,0.00270585,0.236931,20.8071,-314.03,0.683102,0.0,0.0
400,99.75,55.8166,59.8099,137.543,99.6378,91.8851,0.00270641,0.237815,20.8067,-314.12,0.718988,0.0,0.0
405,101,55.81,60.3562,137.669,99.639,91.9456,0.00270944,0.23773,20.8071,-314.2,0.713252,0.0,0.0
410,102.25,55.6387,60.1367,140.11,99.6394,92.501,0.00270241,0.236797,20.8077,-314.28,0.659839,0.0,0.0
415,103.5,55.4545,60.3132,137.761,99.6402,92.8558,0.00267809,0.236064,20.808,-314.36,0.625924,0.0,0.0
420,104.75,55.2827,59.9639,142.513,99.6229,92.5405,0.00264578,0.235965,20.8081,-314.471,0.654577,0.0,0.0
425,106,55.9997,60.4691,140.212,99.6233,92.5817,0.00261159,0.236244,20.808,-314.591,0.650665,0.0,0.0
430,107.25,56.0364,59.6411,140.343,99.6012,92.2988,0.00255001,0.236316,20.8079,-314.641,0.675849,0.0,0.0
435,108.5,55.2055,60.0133,139.643,99.5791,92.4561,0.00248146,0.236013,20.8087,-314.801,0.658766,0.0,0.0
440,109.75,55.5728,60.0121,139.993,99.5654,92.7039,0.00243347,0.235864,20.8092,-314.861,0.633786,0.0,0.0
445,111,55.57,60.0785,138.478,99.5336,92.3083,0.00246586,0.235729,20.8095,-314.941,0.668911,0.0,0.0
450,112.25,54.6082,59.6012,140.442,99.5131,92.6899,0.00256375,0.235331,20.8097,-315.031,0.630461,0.0,0.0
455,113.5,55.1682,59.3305,140.723,99.4833,92.2671,0.00266825,0.234784,20.8105,-315.101,0.668383,0.0,0.0
460,114.75,55.1059,59.836,142.793,99.4459,92.4619,0.00272164,0.23399,20.8112,-315.211,0.646331,0.0,0.0
465,116,55.325,59.8943,138.551,99.4217,92.3997,0.00269758,0.23306,20.8126,-315.301,0.650144,0.0,0.0
470,117.25,55.038,59.8712,140.498,99.4096,92.1601,0.0026316,0.232213,20.8144,-315.381,0.672112,0.0,0.0
475,118.5,55.3103,60.0635,140.366,99.3835,92.6689,0.00257014,0.231259,20.816,-315.491,0.620905,0.0,0.0
480,119.75,55.381,59.7385,140.258,99.3481,92.6306,0.00252068,0.230232,20.8182,-315.582,0.621409,0.0,0.0
485,121,55.0026,59.8241,138.787,99.3267,92.3857,0.00250466,0.229269,20.821,-315.662,0.643006,0.0,0.0
490,122.25,55.18,59.4261,135.839,99.3126,92.4989,0.00252924,0.227995,20.8238,-315.772,0.630877,0.0,0.0
495,123.5,55.1662,59.5197,140.838,99.3006,92.2778,0.00256901,0.226769,20.8265,-315.822,0.651037,0.0,0.0
500,124.75,54.8846,59.0268,137.678,99.27,91.9465,0.00258301,0.225695,20.8284,-315.922,0.680235,0.0,0.0
505,126,54.4606,59.8011,141.21,99.2511,93.1172,0.0025575,0.225084,20.8295,-316.012,0.566236,0.0,0.0
510,127.25,55.0676,58.9653,138.049,99.2406,92.1235,0.00251704,0.224598,20.8301,-316.082,0.660536,0.0,0.0
515,128.5,54.7111,59.6216,136.702,99.2289,92.4215,0.00248804,0.224106,20.8305,-316.202,0.630822,0.0,0.0
520,129.75,55.1171,59.1632,140.425,99.2,92.1951,0.00247727,0.223938,20.8307,-316.252,0.65,0.0,0.0
525,131,54.9594,59.9384,145.101,99.1823,91.9765,0.00246428,0.223632,20.8318,-316.322,0.669487,0.0,0.0
530,132.25,54.7195,59.2018,137.575,99.173,92.4726,0.00243674,0.222932,20.8335,-316.402,0.620916,0.0,0.0
535,133.5,54.6926,58.9396,139.876,99.1545,92.1856,0.00239567,0.22217,20.8344,-316.452,0.646843,0.0,0.0
540,134.75,54.5689,59.184,138.291,99.1332,91.9637,0.00235166,0.221353,20.8358,-316.512,0.666323,0.0,0.0
545,136,54.6412,59.0767,140.738,99.1315,92.0123,0.00231361,0.220067,20.8376,-316.632,0.661493,0.0,0.0
550,137.25,54.4969,58.9695,143.878,99.1154,92.2099,0.00230232,0.218732,20.8388,-316.733,0.64101,0.0,0.0
555,138.5,54.6276,58.8969,142.291,99.0977,91.9242,0.00230224,0.217914,20.8401,-316.793,0.666967,0.0,0.0
560,139.75,53.6157,58.8599,142.625,99.0917,91.9889,0.00229442,0.217399,20.8413,-316.863,0.660187,0.0,0.0
565,141,54.2253,58.3439,136.738,99.0816,91.9193,0.00228779,0.216391,20.8424,-316.983,0.666002,0.0,0.0
570,142.25,54.2077,58.6457,145.14,99.072,92.1453,0.00228388,0.214357,20.8453,-317.073,0.643339,0.0,0.0
575,143.5,54.9175,58.6507,139.612,99.0659,91.8106,0.00227093,0.2125,20.8479,-317.143,0.675096,0.0,0.0
580,144.75,53.6541,58.4229,139.56,99.0587,91.4109,0.00219856,0.212537,20.8495,-317.223,0.713176,0.0,0.0
585,146,53.7581,58.5929,140.267,99.0865,91.7501,0.00205587,0.214095,20.8487,-317.253,0.682788,0.0,0.0
590,147.25,54.5453,58.1938,142.884,99.1356,92.156,0.00188356,0.215434,20.848,-317.373,0.648003,0.0,0.0
595,148.5,53.9944,58.3547,139.251,99.1581,91.9975,0.00176574,0.215734,20.8476,-317.443,0.6653,0.0,0.0
600,149.75,53.7524,57.7331,136.218,99.2008,92.3828,0.00171447,0.215606,20.8476,-317.463,0.632019,0.0,0.0
605,151,53.7735,58.0813,145.664,99.2571,91.9308,0.00171932,0.215059,20.8485,-317.523,0.680594,0.0,0.0
610,152.25,53.5831,58.1092,140.106,99.2937,91.7221,0.00175688,0.213939,20.8498,-317.663,0.704043,0.0,0.0
615,153.5,53.3819,57.9129,140.979,99.3251,92.2667,0.00178269,0.213253,20.8506,-317.713,0.6543,0.0,0.0
620,154.75,53.4114,58.0027,140.618,99.3895,92.2544,0.00179703,0.213096,20.851,-317.763,0.66124,0.0,0.0
625,156,53.4337,57.7762,149.462,99.4201,92.4948,0.00182183,0.212903,20.8513,-317.864,0.640871,0.0,0.0
630,157.25,53.3438,57.8189,141.641,99.4724,92.0366,0.00185464,0.212486,20.8523,-317.944,0.689618,0.0,0.0
635,158.5,53.1688,57.852,142.224,99.4958,92.0728,0.00191327,0.212063,20.8529,-318.014,0.688208,0.0,0.0
640,159.75,53.1008,57.1819,140.172,99.5272,92.3087,0.00201933,0.211508,20.8534,-318.074,0.668297,0.0,0.0
645,161,53.2779,57.478,140.326,99.5754,91.9975,0.00218689,0.210832,20.8544,-318.174,0.702579,0.0,0.0
650,162.25,53.4634,57.9325,140.641,99.5968,91.7616,0.00234291,0.210845,20.8552,-318.234,0.727268,0.0,0.0
655,163.5,53.5322,56.9131,142.283,99.6354,92.3499,0.00244864,0.210838,20.8557,-318.354,0.673988,0.0,0.0
660,164.75,52.718,57.6363,143.049,99.6837,92.0098,0.00250927,0.210385,20.856,-318.374,0.711033,0.0,0.0
665,166,53.4733,56.9942,139.358,99.6954,92.5108,0.00244961,0.209941,20.8556,-318.404,0.663872,0.0,0.0
670,167.25,53.3217,57.5909,138.397,99.7187,92.4837,0.00235186,0.209731,20.8552,-318.504,0.668557,0.0,0.0
675,168.5,53.1439,56.8599,139.111,99.7425,92.1696,0.00224008,0.209777,20.856,-318.564,0.700868,0.0,0.0
680,169.75,52.9896,56.9915,145.476,99.7759,91.9485,0.00217008,0.209646,20.8567,-318.684,0.725154,0.0,0.0
685,171,52.5498,56.5527,138.872,99.7831,92.2252,0.00215663,0.209137,20.8578,-318.734,0.699134,0.0,0.0
690,172.25,53.2103,56.823,144.526,99.8169,91.6826,0.00217611,0.208485,20.8585,-318.824,0.754514,0.0,0.0
695,173.5,52.5983,56.8587,144.409,99.8451,91.7818,0.00229294,0.208029,20.8589,-318.894,0.747419,0.0,0.0
700,174.75,52.6814,56.6662,145.877,99.8624,92.0024,0.00242858,0.208181,20.8591,-318.965,0.727644,0.0,0.0
705,176,52.5523,56.5243,142.718,99.8668,91.8147,0.00254954,0.208656,20.8592,-319.025,0.746167,0.0,0.0
710,177.25,52.6944,56.7721,139.156,99.8797,92.051,0.00262214,0.208751,20.8593,-319.075,0.724498,0.0,0.0
715,178.5,52.6187,56.7849,140.844,99.9091,92.0835,0.00263836,0.208354,20.8594,-319.175,0.723972,0.0,0.0
720,179.75,52.4705,56.4333,144.24,99.9296,91.8283,0.00261203,0.20795,20.8594,-319.215,0.750432,0.0,0.0
725,181,52.3002,56.115,143.357,99.9167,91.3812,0.0025665,0.208043,20.8594,-319.265,0.792607,0.0,0.0
730,182.25,51.6671,57.236,144.643,99.9308,91.4323,0.00249977,0.208355,20.8586,-319.305,0.788901,0.0,0.0
735,183.5,51.4683,56.8368,141.069,99.9409,91.3417,0.00244629,0.209213,20.858,-319.385,0.798592,0.0,0.0
740,184.75,52.3601,56.4768,143.869,99.9538,91.3944,0.00242224,0.210081,20.8574,-319.465,0.794617,0.0,0.0
745,186,51.8699,55.9681,141.778,99.9389,91.8135,0.00241493,0.210617,20.8563,-319.505,0.752686,0.0,0.0
750,187.25,52.514,56.3152,142.947,99.9562,91.4595,0.00246595,0.210977,20.8557,-319.575,0.788516,0.0,0.0
755,188.5,51.9137,56.4925,140.564,99.963,91.3726,0.00252749,0.211083,20.8553,-319.715,0.797557,0.0,0.0
760,189.75,52.4818,56.2418,144.072,99.9562,91.4051,0.00264235,0.210917,20.8558,-319.745,0.793791,0.0,0.0
765,191,52.0284,55.891,139.145,99.9469,91.6949,0.00272553,0.210645,20.8563,-319.785,0.764871,0.0,0.0
770,192.25,52.2637,55.7516,140.203,99.9674,91.4026,0.00279091,0.210416,20.8566,-319.845,0.795031,0.0,0.0
775,193.5,52.0991,56.5507,142.546,99.9658,91.3891,0.00283419,0.209916,20.8568,-319.885,0.796207,0.0,0.0
780,194.75,52.0496,55.8709,144.579,99.9457,91.2812,0.00284806,0.20977,20.8569,-319.965,0.804903,0.0,0.0
785,196,51.3763,55.9373,143.346,99.9509,91.4121,0.00283383,0.209975,20.857,-320.035,0.792646,0.0,0.0
790,197.25,50.995,56.4335,141.419,99.9521,91.252,0.00278487,0.210323,20.857,-320.126,0.808317,0.0,0.0
795,198.5,51.7295,55.7106,143.137,99.9477,91.2273,0.00271943,0.210568,20.857,-320.226,0.810327,0.0,0.0
800,199.75,52.1353,56.0168,138.999,99.9308,90.9918,0.0026665,0.211125,20.8564,-320.266,0.831766,0.0,0.0
805,201,52.0206,55.4397,143.979,99.9409,91.1165,0.00258881,0.211858,20.8557,-320.306,0.820501,0.0,0.0
810,202.25,52.5859,54.9164,139.916,99.9352,91.3726,0.00251697,0.212148,20.8553,-320.356,0.795091,0.0,0.0
815,203.5,51.8979,55.7446,138.661,99.9103,90.7839,0.00244904,0.212064,20.8551,-320.436,0.850245,0.0,0.0
820,204.75,51.8008,55.795,143.318,99.9071,91.2684,0.00238981,0.211783,20.8549,-320.506,0.802712,0.0,0.0
825,206,51.9229,54.7836,144.873,99.903,90.9597,0.00232264,0.211447,20.8548,-320.536,0.832431,0.0,0.0
830,207.25,51.4509,55.7863,142.094,99.9014,91.1528,0.002231,0.211486,20.8548,-320.626,0.813468,0.0,0.0
835,208.5,51.4083,55.1868,137.398,99.8761,90.7843,0.00213873,0.211897,20.8547,-320.666,0.847165,0.0,0.0
840,209.75,51.5836,55.288,141.657,99.862,90.9934,0.00208808,0.212011,20.8547,-320.726,0.825491,0.0,0.0
845,211,51.6156,55.2576,140.636,99.8656,90.8811,0.00207824,0.212309,20.8547,-320.776,0.836782,0.0,0.0
850,212.25,51.2046,55.5745,141.036,99.8576,90.8823,0.00207946,0.212913,20.854,-320.856,0.835945,0.0,0.0
855,213.5,51.5658,55.6136,146.168,99.8189,90.9519,0.00208155,0.21305,20.8543,-320.876,0.825718,0.0,0.0
860,214.75,51.4079,54.7068,140.489,99.8081,91.0918,0.0020806,0.212821,20.8547,-320.936,0.811103,0.0,0.0
865,216,51.3974,55.4884,141.153,99.8089,90.6847,0.00207914,0.212139,20.8557,-321.046,0.850936,0.0,0.0
870,217.25,52.0274,54.966,141.313,99.794,90.6723,0.00212334,0.211768,20.8562,-321.106,0.850821,0.0,0.0
875,218.5,51.1807,54.458,139.474,99.761,90.7012,0.0021849,0.212257,20.8559,-321.146,0.845064,0.0,0.0
880,219.75,51.155,55.2628,142.012,99.7513,90.5423,0.00223376,0.21331,20.8554,-321.237,0.859769,0.0,0.0
885,221,51.2502,55.5551,140.819,99.7336,91.0037,0.0022733,0.214036,20.8547,-321.307,0.813068,0.0,0.0
890,222.25,50.7935,54.8573,143.64,99.7441,90.7921,0.00233338,0.214816,20.8536,-321.347,0.834661,0.0,0.0
895,223.5,51.5757,55.3656,138.249,99.7066,90.9729,0.00239365,0.215912,20.8527,-321.407,0.813679,0.0,0.0
900,224.75,51.1615,55.4343,142.327,99.6938,90.3727,0.00242412,0.216557,20.8512,-321.477,0.871289,0.0,0.0
905,226,51.9423,54.0996,134.816,99.6765,90.3319,0.0024364,0.216998,20.8508,-321.547,0.873752,0.0,0.0
910,227.25,51.6599,54.9809,142.796,99.6579,90.4019,0.002456,0.217213,20.8511,-321.577,0.865229,0.0,0.0
915,228.5,51.1878,54.8297,139.15,99.639,90.8654,0.00248008,0.216584,20.8517,-321.627,0.818149,0.0,0.0
920,229.75,51.3483,55.1299,144.147,99.6334,90.4673,0.00247105,0.215838,20.8526,-321.737,0.856618,0.0,0.0
925,231,51.6299,54.8346,143.42,99.6145,90.2323,0.00244814,0.215578,20.8531,-321.807,0.878026,0.0,0.0
930,232.25,51.6089,55.3605,142.55,99.5899,90.7971,0.00244507,0.215614,20.8534,-321.887,0.820452,0.0,0.0
935,233.5,51.7147,54.356,143.253,99.5891,90.6518,0.00245924,0.215624,20.8531,-321.917,0.834597,0.0,0.0
940,234.75,51.2925,54.7366,144.973,99.5694,90.625,0.00248357,0.216006,20.8528,-321.977,0.83546,0.0,0.0
945,236,50.8356,54.7893,145.369,99.5606,90.5077,0.00249794,0.216885,20.8519,-322.057,0.846169,0.0,0.0
950,237.25,51.702,54.8299,140.894,99.5384,90.2438,0.00250419,0.21792,20.8507,-322.107,0.870112,0.0,0.0
955,238.5,50.897,55.4622,140.435,99.5304,90.2891,0.00249089,0.218745,20.85,-322.187,0.864942,0.0,0.0
960,239.75,50.9741,55.3225,143.721,99.5235,90.5451,0.00246681,0.21932,20.8496,-322.267,0.839195,0.0,0.0
965,241,51.2346,54.8764,137.792,99.5042,90.6188,0.00244545,0.219313,20.8493,-322.338,0.83025,0.0,0.0
970,242.25,51.437,54.7187,137.321,99.4877,90.1528,0.00245274,0.218807,20.8498,-322.368,0.874541,0.0,0.0
975,243.5,50.6382,55.2365,140.071,99.4628,90.3364,0.00252347,0.21825,20.8504,-322.448,0.854256,0.0,0.0
980,244.75,51.7567,54.1355,144.279,99.4748,90.4719,0.00259472,0.21781,20.8508,-322.508,0.842036,0.0,0.0
985,246,51.0102,55.1124,141.027,99.4607,89.977,0.00264454,0.216693,20.852,-322.528,0.88946,0.0,0.0
990,247.25,50.9616,54.4684,140.398,99.4664,90.3941,0.00267295,0.215856,20.8527,-322.608,0.848919,0.0,0.0
995,248.5,51.0484,54.7638,142.444,99.4752,90.2936,0.00267465,0.2155,20.8531,-322.648,0.859578,0.0,0.0
1000,249.75,51.8736,53.7965,142.088,99.4708,90.5106,0.00265467,0.215457,20.854,-322.698,0.837882,0.0,0.0
1005,251,51.6261,54.8721,139.107,99.4616,90.0816,0.0026256,0.21538,20.8548,-322.788,0.879222,0.0,0.0
1010,252.25,50.9402,55.0455,142.995,99.4591,90.1059,0.0025898,0.215162,20.8553,-322.848,0.876614,0.0,0.0
1015,253.5,51.5331,54.5906,140.561,99.4748,90.5637,0.00253346,0.214428,20.8564,-322.948,0.833035,0.0,0.0
1020,254.75,50.8408,55.0111,146.89,99.4837,90.3533,0.002466,0.213088,20.8585,-322.998,0.854466,0.0,0.0
1025,256,51.0516,54.4623,139,99.4736,90.5044,0.00233541,0.212011,20.8598,-323.028,0.838739,0.0,0.0
1030,257.25,51.0897,54.7583,142.626,99.4829,90.2331,0.00220135,0.211792,20.8605,-323.098,0.866211,0.0,0.0
1035,258.5,50.6624,54.7478,138.53,99.4833,90.0166,0.0021051,0.21157,20.8618,-323.178,0.887573,0.0,0.0
1040,259.75,50.8125,54.3786,150.028,99.4946,90.3327,0.00201907,0.210909,20.8624,-323.238,0.857458,0.0,0.0
1045,261,50.9973,54.3988,143.485,99.4933,90.2813,0.0019695,0.210082,20.8634,-323.238,0.862408,0.0,0.0
1050,262.25,50.7281,54.6305,143.647,99.4958,90.1524,0.00194364,0.209209,20.864,-323.298,0.875301,0.0,0.0
1055,263.5,50.9959,54.535,141.041,99.5006,89.9165,0.00193712,0.208649,20.8643,-323.368,0.898986,0.0,0.0
1060,264.75,50.7165,54.0763,144.426,99.505,90.0651,0.00197118,0.208148,20.8642,-323.439,0.884723,0.0,0.0
1065,266,50.529,54.1723,144.037,99.4913,90.0664,0.00205342,0.207579,20.8647,-323.509,0.88338,0.0,0.0
1070,267.25,50.7458,54.315,139.163,99.5139,89.5189,0.00216528,0.207162,20.8654,-323.529,0.939514,0.0,0.0
1075,268.5,50.6943,54.2547,142.159,99.5203,90.0783,0.00225144,0.207128,20.8658,-323.609,0.884788,0.0,0.0
1080,269.75,50.6898,54.2945,140.954,99.5054,89.5501,0.0023051,0.20712,20.866,-323.699,0.935658,0.0,0.0
1085,271,50.6494,54.089,142.425,99.503,89.7823,0.00230959,0.206803,20.8664,-323.739,0.91246,0.0,0.0
1090,272.25,50.8734,53.2638,143.819,99.5187,90.0664,0.00229413,0.206097,20.8673,-323.789,0.885821,0.0,0.0
1095,273.5,51.3397,53.7044,139.108,99.5219,89.9132,0.00230687,0.205095,20.8679,-323.839,0.901213,0.0,0.0
1100,274.75,50.6959,53.979,142.692,99.5078,89.5736,0.00237495,0.204659,20.8688,-323.889,0.933548,0.0,0.0
1105,276,50.0686,54.4651,138.414,99.5022,89.7181,0.0024593,0.204478,20.8697,-323.929,0.918738,0.0,0.0
1110,277.25,49.5304,54.154,143.502,99.5155,89.7103,0.00251727,0.204172,20.8703,-323.989,0.920696,0.0,0.0
1115,278.5,50.5686,53.9641,140.519,99.5115,89.7667,0.00251402,0.204273,20.8698,-324.039,0.914759,0.0,0.0
1120,279.75,50.5249,53.9559,145.169,99.501,89.6341,0.00243022,0.204495,20.8693,-324.089,0.926944,0.0,0.0
1125,281,51.4769,53.5463,137.939,99.5086,89.7745,0.00236232,0.204492,20.8691,-324.149,0.913735,0.0,0.0
1130,282.25,50.4129,54.285,145.416,99.5102,89.313,0.00226409,0.204719,20.8697,-324.229,0.959623,0.0,0.0
1135,283.5,50.4894,53.6654,142.996,99.5107,89.404,0.00222171,0.204913,20.8702,-324.259,0.950622,0.0,0.0
1140,284.75,50.6517,53.7049,140.954,99.503,89.1644,0.00225018,0.204984,20.8705,-324.329,0.973759,0.0,0.0
1145,286,49.7585,53.1513,137.65,99.4974,88.8586,0.00231481,0.205107,20.8706,-324.389,1.00376,0.0,0.0
1150,287.25,50.5803,52.8158,144.163,99.4889,89.2179,0.00234991,0.204859,20.8707,-324.439,0.967176,0.0,0.0
1155,288.5,50.4217,53.4368,140.731,99.4889,89.1097,0.00233491,0.204671,20.8708,-324.509,0.977954,0.0,0.0
1160,289.75,50.4523,53.5354,143.708,99.4909,88.7626,0.00230943,0.204945,20.8708,-324.56,1.01277,0.0,0.0
1165,291,50.8622,52.6712,140.057,99.4946,89.6275,0.00229572,0.205244,20.8708,-324.59,0.927021,0.0,0.0
1170,292.25,49.5425,53.0405,141.573,99.4849,88.894,0.00231234,0.205441,20.8709,-324.63,0.999108,0.0,0.0
1175,293.5,50.1814,53.5246,140.635,99.4724,89.1562,0.00235056,0.205463,20.8709,-324.68,0.97185,0.0,0.0
1180,294.75,50.4217,53.5269,139.639,99.4793,88.9932,0.00239331,0.205527,20.8709,-324.75,0.988704,0.0,0.0
1185,296,50.5132,53.3424,142.873,99.4853,88.1501,0.00244975,0.205727,20.8715,-324.8,1.07373,0.0,0.0
1190,297.25,50.486,53.7165,141.332,99.4728,88.8042,0.00252665,0.205436,20.8722,-324.86,1.007,0.0,0.0
1195,298.5,49.9682,53.2853,143.24,99.4768,88.5971,0.00259862,0.204574,20.8734,-324.92,1.02808,0.0,0.0
1200,299.75,49.4213,53.9743,140.855,99.4616,88.593,0.00263447,0.203636,20.8753,-324.93,1.02712,0.0,0.0
1205,301,50.2074,53.2422,145.652,99.4632,88.9154,0.00262463,0.202624,20.8766,-325,0.995031,0.0,0.0
1210,302.25,50.2228,53.3653,140.104,99.4732,89.1331,0.00256101,0.201597,20.8781,-325.06,0.974216,0.0,0.0
1215,303.5,49.7515,53.1324,146.759,99.4483,88.8409,0.00248711,0.200855,20.879,-325.1,1.00114,0.0,0.0
1220,304.75,50.2927,53.1414,143.389,99.4648,89.3509,0.00243272,0.20021,20.8796,-325.16,0.951803,0.0,0.0
1225,306,50.0898,53.3506,139.651,99.4881,88.6107,0.00243743,0.199311,20.8824,-325.18,1.02772,0.0,0.0
1230,307.25,49.9423,52.8803,141.25,99.4833,89.2229,0.00255146,0.198346,20.885,-325.26,0.966182,0.0,0.0
1235,308.5,49.9101,53.3025,145.373,99.4913,89.2006,0.00270477,0.196948,20.887,-325.29,0.969111,0.0,0.0
1240,309.75,49.7562,53.1283,141.972,99.5183,89.3213,0.00281964,0.195273,20.8893,-325.37,0.959523,0.0,0.0
1245,311,49.8129,53.2307,141.293,99.5308,89.32,0.00286007,0.193652,20.8915,-325.39,0.960758,0.0,0.0
1250,312.25,49.427,52.6221,143.273,99.5267,89.7004,0.00283815,0.192323,20.8933,-325.43,0.922679,0.0,0.0
1255,313.5,49.677,52.7335,140.493,99.5465,89.3069,0.00276083,0.19146,20.8951,-325.49,0.963467,0.0,0.0
1260,314.75,50.0358,52.981,145.343,99.5461,89.905,0.00267772,0.190381,20.8972,-325.54,0.904179,0.0,0.0
1265,316,49.4922,52.5146,139.709,99.5638,89.6082,0.00261363,0.188973,20.8996,-325.58,0.935111,0.0,0.0
1270,317.25,49.6696,52.7984,140.908,99.5618,89.5366,0.00258177,0.186922,20.9023,-325.63,0.942029,0.0,0.0
1275,318.5,50.2279,52.2,140.9,99.5891,89.8243,0.00258322,0.184826,20.9058,-325.641,0.915988,0.0,0.0
1280,319.75,49.7796,52.6543,140.049,99.608,89.9598,0.00259369,0.183281,20.9083,-325.681,0.904301,0.0,0.0
1285,321,49.3182,52.4757,148.449,99.6197,89.9832,0.00260944,0.181617,20.9104,-325.721,0.903025,0.0,0.0
1290,322.25,49.4947,52.4585,143.924,99.6362,89.8025,0.00264661,0.179167,20.914,-325.751,0.922341,0.0,0.0
1295,323.5,48.3148,52.0305,145.502,99.6567,90.1236,0.00267206,0.17687,20.9176,-325.791,0.892488,0.0,0.0
1300,324.75,48.652,51.9038,145.164,99.6821,90.3056,0.00266782,0.17509,20.9201,-325.821,0.876842,0.0,0.0
1305,326,49.2442,51.9323,147.865,99.6893,90.0326,0.00264711,0.17349,20.9222,-325.851,0.904355,0.0,0.0
1310,327.25,49.0294,51.7888,143.81,99.6914,90.3224,0.00261581,0.172378,20.9231,-325.901,0.876008,0.0,0.0
1315,328.5,48.172,52.1588,137.541,99.7304,90.5056,0.00259509,0.170878,20.9242,-325.961,0.861499,0.0,0.0
1320,329.75,48.1426,52.1812,144.161,99.7437,90.8086,0.00261173,0.169399,20.9257,-326.001,0.833016,0.0,0.0
1325,331,48.6067,51.6033,141.959,99.7485,91.0947,0.0026642,0.167525,20.9276,-326.051,0.805524,0.0,0.0
1330,332.25,47.7602,51.1898,146.646,99.7582,91.2845,0.0027629,0.165451,20.9305,-326.071,0.787911,0.0,0.0
1335,333.5,47.2309,51.7505,145.246,99.796,90.774,0.00287359,0.163626,20.9334,-326.101,0.841052,0.0,0.0
1340,334.75,48.1916,50.9349,141.328,99.796,90.9506,0.00297876,0.162248,20.9356,-326.131,0.823799,0.0,0.0
1345,336,48.1872,51.3412,142.084,99.8081,91.1705,0.00308176,0.16058,20.9381,-326.161,0.803446,0.0,0.0
1350,337.25,47.2475,50.7359,145.032,99.8278,91.1701,0.00317717,0.159056,20.9396,-326.261,0.80524,0.0,0.0
1355,338.5,47.8521,50.4127,145.237,99.8479,91.1198,0.00326941,0.15805,20.9412,-326.231,0.811919,0.0,0.0
1360,339.75,47.9273,50.8867,143.757,99.8499,91.7007,0.00333116,0.157387,20.9433,-326.261,0.755695,0.0,0.0
1365,341,47.9729,50.783,146.094,99.8483,91.79,0.0033474,0.156294,20.9449,-326.251,0.746909,0.0,0.0
1370,342.25,47.2774,50.309,142.591,99.8769,92.1251,0.00334558,0.155035,20.9478,-326.281,0.717104,0.0,0.0
1375,343.5,47.1004,50.0926,144.318,99.8869,91.8995,0.00333012,0.153873,20.9492,-326.311,0.739761,0.0,0.0
1380,344.75,47.2053,50.4175,146.672,99.8894,92.0609,0.00329031,0.153128,20.9503,-326.351,0.724403,0.0,0.0
1385,346,47.3775,50.4149,147.846,99.9026,91.8864,0.00319696,0.152419,20.9512,-326.391,0.742428,0.0,0.0
1390,347.25,47.1785,50.0463,148.127,99.9187,91.7102,0.00312887,0.150734,20.9534,-326.411,0.760894,0.0,0.0
1395,348.5,46.8851,50.1684,145.566,99.9308,92.2367,0.00311469,0.148611,20.9561,-326.431,0.711154,0.0,0.0
1400,349.75,46.8237,49.534,150.379,99.928,92.4199,0.00314201,0.146631,20.9585,-326.461,0.693292,0.0,0.0
1405,351,47.0591,48.825,147.774,99.9284,92.3631,0.0031995,0.14499,20.9608,-326.531,0.698785,0.0,0.0
1410,352.25,46.1863,49.0872,144.435,99.9541,92.2935,0.00327138,0.143385,20.9625,-326.571,0.707761,0.0,0.0
1415,353.5,47.0679,49.3829,148.668,99.9533,92.3503,0.00335093,0.141967,20.9643,-326.601,0.702228,0.0,0.0
1420,354.75,46.6872,49.3356,147.243,99.9489,92.5936,0.00343885,0.140373,20.9666,-326.591,0.678482,0.0,0.0
1425,356,46.4514,49.5232,149.01,99.9517,92.764,0.00355343,0.138351,20.9694,-326.621,0.66241,0.0,0.0
1430,357.25,46.8179,48.7783,148.696,99.9638,92.5677,0.00364176,0.135777,20.9726,-326.661,0.68229,0.0,0.0
1435,358.5,46.2746,48.8336,149.118,99.9586,92.6496,0.00371076,0.133509,20.975,-326.661,0.673975,0.0,0.0
1440,359.75,45.6367,48.59,143.7,99.9481,92.8488,0.00372739,0.132167,20.9773,-326.701,0.653976,0.0,0.0
1445,361,45.5677,48.97,143.436,99.9626,92.389,0.00372048,0.130394,20.9788,-326.731,0.699331,0.0,0.0
1450,362.25,46.0403,48.0399,146.694,99.9566,92.6747,0.00372184,0.128907,20.9816,-326.731,0.67139,0.0,0.0
1455,363.5,46.074,48.6008,150.789,99.932,92.4359,0.00374839,0.12742,20.983,-326.772,0.692108,0.0,0.0
1460,364.75,45.728,48.6713,145.741,99.928,92.4005,0.00382992,0.125903,20.9848,-326.802,0.69515,0.0,0.0
1465,366,45.4314,48.2021,144.811,99.9308,92.6191,0.0039235,0.124372,20.987,-326.812,0.674427,0.0,0.0
1470,367.25,45.5202,47.8748,144.233,99.924,92.6241,0.00400493,0.123414,20.9894,-326.822,0.673345,0.0,0.0
1475,368.5,45.471,47.9308,146.258,99.8974,92.5784,0.00404312,0.122928,20.9908,-326.812,0.675366,0.0,0.0
1480,369.75,44.8557,47.2011,149.035,99.8881,92.6578,0.0040443,0.123182,20.9916,-326.832,0.666929,0.0,0.0
1485,371,44.99,47.7158,144.905,99.8781,92.8756,0.00403308,0.123733,20.9913,-326.852,0.645198,0.0,0.0
1490,372.25,45.1222,47.6226,145.239,99.8584,92.8192,0.00399243,0.124209,20.9909,-326.862,0.648837,0.0,0.0
1495,373.5,44.6212,47.2263,148.653,99.8326,92.8567,0.00392587,0.12434,20.9914,-326.902,0.642966,0.0,0.0
1500,374.75,44.7913,47.519,147.975,99.8238,92.5817,0.00385957,0.124013,20.9918,-326.912,0.668503,0.0,0.0
1505,376,44.178,47.304,147.354,99.8056,92.8114,0.00387451,0.123427,20.9927,-326.952,0.644898,0.0,0.0
1510,377.25,44.46,46.7231,149.857,99.765,93.0584,0.00395302,0.122158,20.9944,-326.942,0.617692,0.0,0.0
1515,378.5,44.5637,46.9051,151.479,99.7312,92.8464,0.00407441,0.120179,20.9959,-326.982,0.634928,0.0,0.0
1520,379.75,43.7202,47.1391,148.53,99.7078,92.6166,0.00416481,0.118118,20.9982,-326.972,0.654838,0.0,0.0
1525,381,44.2858,46.6516,146.5,99.6833,92.967,0.00423122,0.115997,21.0015,-326.982,0.619141,0.0,0.0
1530,382.25,43.8934,46.1457,146.908,99.6181,92.9814,0.0042742,0.114027,21.0039,-327.012,0.611958,0.0,0.0
1535,383.5,44.063,46.3639,145.626,99.5799,92.9398,0.00433943,0.112298,21.0072,-327.002,0.612522,0.0,0.0
1540,384.75,43.08,47.0088,148.357,99.5461,92.8978,0.00444066,0.11034,21.0105,-327.032,0.613518,0.0,0.0
1545,386,43.3386,46.0924,150.627,99.499,92.5187,0.00453705,0.108104,21.0135,-327.072,0.645619,0.0,0.0
1550,387.25,43.4594,45.8281,147.085,99.4491,92.4536,0.00463357,0.106084,21.0162,-327.082,0.647409,0.0,0.0
1555,388.5,43.2589,46.1173,149.779,99.377,92.3511,0.00471534,0.104785,21.018,-327.102,0.650822,0.0,0.0
1560,389.75,43.1291,45.5503,147.705,99.3489,92.3281,0.00481621,0.104267,21.02,-327.102,0.650523,0.0,0.0
1565,391,43.0142,45.4653,147.591,99.2849,92.0029,0.00492393,0.103849,21.0211,-327.122,0.676124,0.0,0.0
1570,392.25,43.042,45.0746,148.156,99.2149,92.2692,0.00504145,0.103409,21.0218,-327.162,0.644202,0.0,0.0
1575,393.5,43.2339,44.5125,144.778,99.1597,92.1325,0.00516949,0.102958,21.0223,-327.162,0.652426,0.0,0.0
1580,394.75,41.5489,45.4276,145.842,99.1078,92.454,0.00523074,0.102365,21.0225,-327.182,0.616857,0.0,0.0
1585,396,42.566,44.5891,149.438,99.0728,92.4969,0.00525139,0.101623,21.0229,-327.202,0.609611,0.0,0.0
1590,397.25,42.6404,44.751,146.784,99.0659,92.3495,0.00521196,0.100872,21.0242,-327.192,0.623152,0.0,0.0
1595,398.5,42.1922,45.1206,149.718,99.0776,92.3824,0.0051423,0.100245,21.0253,-327.212,0.621033,0.0,0.0
1600,399.75,41.2384,45.3212,144.959,99.1054,92.4582,0.00510493,0.0999156,21.026,-327.242,0.616245,0.0,0.0
1605,401,42.3861,44.1646,149.151,99.107,92.3495,0.00511523,0.0995995,21.0263,-327.252,0.626829,0.0,0.0
1610,402.25,42.2204,44.0867,147.618,99.1159,91.9197,0.00514284,0.0990035,21.0274,-327.252,0.669026,0.0,0.0
1615,403.5,41.6322,44.3102,145.205,99.1392,92.2219,0.0051673,0.0982772,21.0282,-327.272,0.641986,0.0,0.0
1620,404.75,41.5157,44.2949,149.404,99.1621,92.056,0.00518353,0.0976203,21.0286,-327.292,0.660021,0.0,0.0
1625,406,41.5125,43.7512,145.279,99.1589,92.2165,0.00519861,0.0972751,21.0288,-327.312,0.644267,0.0,0.0
1630,407.25,41.7097,43.7476,149.878,99.1931,92.0053,0.00522895,0.0971759,21.0288,-327.322,0.667679,0.0,0.0
1635,408.5,41.2811,43.7267,143.477,99.2052,92.4734,0.00525419,0.0971776,21.028,-327.342,0.623718,0.0,0.0
1640,409.75,41.677,43.5159,144.819,99.2197,92.2692,0.00524541,0.0972096,21.0276,-327.332,0.644634,0.0,0.0
1645,411,41.2729,43.4778,147.74,99.2285,92.3108,0.00518082,0.0971921,21.0277,-327.322,0.641427,0.0,0.0
1650,412.25,41.9933,42.5434,148.337,99.2583,92.0564,0.00508822,0.0969036,21.0284,-327.322,0.668588,0.0,0.0
1655,413.5,42.1125,42.8648,147.911,99.2804,92.1465,0.00499483,0.0965775,21.0287,-327.372,0.661879,0.0,0.0
1660,414.75,41.1269,43.3128,145.148,99.2809,92.3256,0.00495038,0.0960721,21.029,-327.362,0.644682,0.0,0.0
1665,416,40.9833,43.2215,148.373,99.2833,92.3038,0.00495903,0.095368,21.0297,-327.352,0.646996,0.0,0.0
1670,417.25,41.3019,43.0879,150.847,99.3275,92.9624,0.0050054,0.0948436,21.0305,-327.382,0.587839,0.0,0.0
1675,418.5,40.524,42.4241,147.756,99.3332,92.6129,0.00504297,0.0948027,21.031,-327.382,0.621775,0.0,0.0
1680,419.75,41.2873,43.3244,150.634,99.3352,92.811,0.00506516,0.095028,21.0312,-327.412,0.602998,0.0,0.0
1685,421,39.9956,42.1122,151.421,99.3533,92.4466,0.00501086,0.0950639,21.0314,-327.432,0.639528,0.0,0.0
1690,422.25,40.0119,41.6221,147.035,99.3847,92.6117,0.0049164,0.0949256,21.0315,-327.462,0.626496,0.0,0.0
1695,423.5,40.2661,42.0485,147.48,99.4161,92.5932,0.00481291,0.0946933,21.0316,-327.512,0.631074,0.0,0.0
1700,424.75,39.6367,41.4804,149.556,99.4265,92.7245,0.00474478,0.0946827,21.0316,-327.412,0.619429,0.0,0.0
1705,426,39.9953,41.4985,148.686,99.4446,92.424,0.00468425,0.0948271,21.0316,-327.462,0.64986,0.0,0.0
1710,427.25,40.0591,41.7777,148.983,99.476,92.7064,0.00459416,0.0949724,21.0316,-327.482,0.625582,0.0,0.0
1715,428.5,39.7924,41.7257,145.852,99.503,92.6805,0.00450033,0.0949804,21.0319,-327.502,0.63047,0.0,0.0
1720,429.75,39.7647,40.9618,149.512,99.5078,92.715,0.00442255,0.0948369,21.0327,-327.532,0.62759,0.0,0.0
1725,431,39.2884,41.868,146.955,99.534,92.8731,0.00442303,0.0945217,21.0333,-327.542,0.614803,0.0,0.0
1730,432.25,38.8613,41.3199,150.358,99.5537,92.7653,0.00451613,0.0940047,21.0339,-327.542,0.626874,0.0,0.0
1735,433.5,39.4391,40.8671,151.439,99.5573,92.6895,0.0046478,0.0935373,21.0345,-327.552,0.634448,0.0,0.0
1740,434.75,39.6534,40.8505,145.516,99.5791,92.8056,0.00474032,0.0932596,21.0349,-327.572,0.625276,0.0,0.0
1745,436,38.7522,40.9626,148.263,99.6096,92.6759,0.00474378,0.0929787,21.0352,-327.612,0.640412,0.0,0.0
1750,437.25,38.9415,40.3076,152.227,99.6435,92.9522,0.00470963,0.0928189,21.0353,-327.622,0.617007,0.0,0.0
1755,438.5,38.8814,40.9413,148.031,99.6245,92.3845,0.00466414,0.0928148,21.0354,-327.582,0.669698,0.0,0.0
1760,439.75,39.1934,40.5443,149.375,99.637,92.8612,0.00462616,0.0925869,21.0354,-327.592,0.625126,0.0,0.0
1765,441,39.2344,40.6151,143.231,99.6543,92.825,0.00459649,0.0924488,21.0355,-327.632,0.630131,0.0,0.0
1770,442.25,38.9301,40.3543,147.581,99.6668,92.6908,0.00457799,0.0924355,21.0355,-327.622,0.644084,0.0,0.0
1775,443.5,38.3567,40.8922,151.38,99.662,92.8192,0.00456439,0.0923184,21.0355,-327.662,0.631363,0.0,0.0
1780,444.75,38.8351,41.2135,151.695,99.6644,92.8225,0.00455072,0.09203,21.0364,-327.682,0.631264,0.0,0.0
1785,446,38.5825,40.1754,150.581,99.6744,93.0254,0.00455265,0.091779,21.0369,-327.662,0.612773,0.0,0.0
1790,447.25,38.3803,40.4604,144.256,99.6769,92.9266,0.00455743,0.0911171,21.0379,-327.672,0.622421,0.0,0.0
1795,448.5,38.9647,40.4871,151.499,99.6588,93.0596,0.00456025,0.0908004,21.0388,-327.692,0.608116,0.0,0.0
1800,449.75,37.5898,39.6483,151.343,99.6515,92.941,0.00453029,0.090841,21.0393,-327.692,0.618786,0.0,0.0
1805,451,38.1044,40.1552,145.372,99.6571,92.5343,0.004434,0.0912092,21.0396,-327.702,0.658217,0.0,0.0
1810,452.25,38.5284,39.7431,148.821,99.6471,92.8674,0.00425272,0.0915351,21.0398,-327.732,0.625432,0.0,0.0
1815,453.5,37.9867,39.8286,151.266,99.6302,92.9921,0.00409494,0.0915116,21.0399,-327.732,0.612012,0.0,0.0
1820,454.75,38.3101,39.7291,147.138,99.6233,92.9801,0.00403024,0.0911874,21.04,-327.752,0.612543,0.0,0.0
1825,456,38.5105,40.029,148.357,99.6249,92.839,0.00401792,0.0909504,21.04,-327.772,0.626175,0.0,0.0
1830,457.25,37.9217,39.153,151.099,99.6012,92.7817,0.00403622,0.0907268,21.0408,-327.782,0.629532,0.0,0.0
1835,458.5,38.3813,40.0132,147.956,99.5847,92.7192,0.00402366,0.0904907,21.0415,-327.782,0.63405,0.0,0.0
1840,459.75,38.3035,39.7211,150.282,99.5803,92.7677,0.00400153,0.0903138,21.0419,-327.822,0.629007,0.0,0.0
1845,461,37.4045,38.5007,149.376,99.5549,92.8517,0.00401008,0.0900523,21.0421,-327.832,0.618715,0.0,0.0
1850,462.25,38.0175,39.7482,147.438,99.53,92.6553,0.00406774,0.089769,21.0414,-327.842,0.635281,0.0,0.0
1855,463.5,37.8677,39.0399,149.522,99.495,92.9011,0.00415333,0.0898037,21.0409,-327.852,0.608646,0.0,0.0
1860,464.75,38.0582,39.3792,157.065,99.4736,92.8365,0.00425334,0.0900732,21.0405,-327.852,0.61292,0.0,0.0
1865,466,37.8315,39.8768,150.666,99.4515,92.8501,0.00431744,0.0901819,21.0403,-327.872,0.609646,0.0,0.0
1870,467.25,37.9419,38.452,151.203,99.412,92.6224,0.0043353,0.0902111,21.0401,-327.893,0.627913,0.0,0.0
1875,468.5,37.7365,39.2248,147.519,99.3899,92.6969,0.00432068,0.0902488,21.0395,-327.893,0.6188,0.0,0.0
1880,469.75,38.1172,39.2921,148.871,99.3569,93.4173,0.00431023,0.0901783,21.0397,-327.902,0.547136,0.0,0.0
1885,471,37.5029,39.297,150.869,99.3247,92.4969,0.00428983,0.089964,21.0402,-327.902,0.632153,0.0,0.0
1890,472.25,37.5052,39.2814,153.313,99.2837,92.6681,0.00424121,0.089807,21.0406,-327.913,0.612066,0.0,0.0
1895,473.5,37.6153,39.3586,152.187,99.2595,92.3697,0.00416523,0.0895353,21.0408,-327.913,0.63854,0.0,0.0
1900,474.75,36.8651,39.0836,142.947,99.2273,92.7212,0.0041017,0.0892833,21.0409,-327.943,0.601942,0.0,0.0
1905,476,37.4705,39.1858,146.125,99.1839,92.5364,0.00399731,0.0892355,21.041,-327.953,0.615765,0.0,0.0
1910,477.25,37.6488,39.0611,147.029,99.1464,92.3968,0.00390732,0.0894813,21.0401,-327.953,0.625812,0.0,0.0
1915,478.5,37.6164,39.1943,148.416,99.1098,92.6286,0.00380098,0.089764,21.0395,-327.963,0.600295,0.0,0.0
1920,479.75,37.8115,38.4097,143.45,99.0804,92.7879,0.00374239,0.0896756,21.0399,-327.983,0.582412,0.0,0.0
1925,481,37.3314,38.7352,150.332,99.0293,92.9699,0.00374233,0.0894109,21.0399,-327.993,0.560442,0.0,0.0
1930,482.25,37.4905,39.3442,148.586,99.0076,92.5763,0.00379008,0.0893698,21.0404,-328.003,0.596147,0.0,0.0
1935,483.5,37.5321,38.7106,148.592,98.9645,92.4701,0.0038702,0.0894857,21.0407,-328.013,0.602476,0.0,0.0
1940,484.75,37.4331,38.5864,147.783,98.9307,92.4824,0.0039847,0.089509,21.0408,-328.023,0.598257,0.0,0.0
1945,486,37.3142,38.5809,146.597,98.8893,93.0312,0.00409281,0.089388,21.041,-328.043,0.542025,0.0,0.0
1950,487.25,37.5868,38.7727,148.438,98.8563,92.5425,0.00414637,0.0893671,21.041,-328.053,0.585808,0.0,0.0
1955,488.5,36.7195,38.3309,151.649,98.8204,92.3001,0.0041285,0.0893391,21.041,-328.043,0.605878,0.0,0.0
1960,489.75,37.6968,38.5709,149.617,98.7633,92.233,0.00406521,0.089141,21.0411,-328.053,0.607199,0.0,0.0
1965,491,37.3058,38.6515,149.689,98.7142,92.0238,0.00395545,0.0887499,21.0411,-328.063,0.622933,0.0,0.0
1970,492.25,36.944,38.5744,146.879,98.686,91.7814,0.00388789,0.088519,21.0411,-328.083,0.643819,0.0,0.0
1975,493.5,37.421,38.8605,146.538,98.6546,91.8551,0.0038561,0.0886832,21.0411,-328.083,0.633871,0.0,0.0
1980,494.75,37.3275,38.4525,147.841,98.6039,91.7896,0.00384768,0.0888703,21.0412,-328.113,0.635635,0.0,0.0
1985,496,36.45,38.5508,153.74,98.5742,92.296,0.00383937,0.0887784,21.0415,-328.133,0.584124,0.0,0.0
1990,497.25,37.4459,39.0448,149.857,98.5436,92.0415,0.00381486,0.0886932,21.0417,-328.133,0.605869,0.0,0.0
1995,498.5,37.1398,38.6036,148.837,98.5202,92.4742,0.00378907,0.0887997,21.0418,-328.143,0.562141,0.0,0.0
2000,499.75,37.2795,38.0522,151.875,98.4723,92.1235,0.00377935,0.0888513,21.0419,-328.173,0.591555,0.0,0.0
2005,501,37.5088,38.4651,146.224,98.4595,91.8065,0.00378476,0.088712,21.0419,-328.163,0.620988,0.0,0.0
2010,502.25,37.0931,37.826,146.371,98.4389,91.9028,0.00378469,0.0885189,21.0419,-328.153,0.609828,0.0,0.0
2015,503.5,36.8774,38.1595,149.004,98.4148,92.1292,0.00377891,0.088334,21.0419,-328.173,0.58581,0.0,0.0
2020,504.75,37.445,38.6609,147.906,98.4007,92.3211,0.00376812,0.0883647,21.0419,-328.203,0.566076,0.0,0.0
2025,506,37.1448,38.5563,149.895,98.4011,91.5109,0.00375561,0.0884877,21.0416,-328.213,0.644349,0.0,0.0
2030,507.25,37.2129,38.3842,148.109,98.4132,92.0193,0.00375827,0.088478,21.0414,-328.213,0.596261,0.0,0.0
2035,508.5,37.2965,38.6094,150.26,98.4063,91.7476,0.00379904,0.0882748,21.0413,-328.233,0.621891,0.0,0.0
2040,509.75,37.0196,37.751,149.172,98.3999,91.9279,0.00386057,0.088065,21.0412,-328.233,0.603882,0.0,0.0
2045,511,37.1148,38.4131,149.133,98.422,92.3289,0.00389895,0.0878344,21.0412,-328.233,0.567249,0.0,0.0
2050,512.25,36.5125,38.2291,148.464,98.4333,91.8637,0.00386758,0.0875518,21.0411,-328.253,0.613099,0.0,0.0
2055,513.5,37.25,37.6366,146.191,98.4361,91.9679,0.00382988,0.0873357,21.0412,-328.283,0.603294,0.0,0.0
2060,514.75,36.8098,38.4708,150.863,98.4591,91.7472,0.00379859,0.0873294,21.0421,-328.293,0.626685,0.0,0.0
2065,516,37.2587,38.5985,152.235,98.4912,92.184,0.00375001,0.0873915,21.0429,-328.293,0.58743,0.0,0.0
2070,517.25,36.7546,38.2128,148.689,98.5238,91.8345,0.00368426,0.0874008,21.0434,-328.313,0.624085,0.0,0.0
2075,518.5,36.6832,38.1311,148.105,98.552,91.8085,0.00365818,0.0873162,21.0437,-328.323,0.629129,0.0,0.0
2080,519.75,37.4949,38.3185,152.243,98.5814,92.5672,0.00370801,0.0872218,21.0439,-328.343,0.558725,0.0,0.0
2085,521,36.979,37.9552,150.863,98.6317,91.816,0.00379409,0.087166,21.044,-328.313,0.635587,0.0,0.0
2090,522.25,37.058,37.8341,151.82,98.6832,92.338,0.00383653,0.0871331,21.044,-328.323,0.589902,0.0,0.0
2095,523.5,36.6287,38.2289,151.582,98.7142,92.3235,0.00381706,0.0869108,21.0441,-328.333,0.594074,0.0,0.0
2100,524.75,36.4644,37.2884,150.762,98.7536,92.0741,0.00376767,0.0867743,21.0441,-328.353,0.621636,0.0,0.0
2105,526,36.1358,38.1902,149.21,98.8011,92.3614,0.0037429,0.0865622,21.0441,-328.363,0.598246,0.0,0.0
2110,527.25,36.0093,37.6664,149.167,98.845,92.5648,0.00375947,0.0863266,21.0441,-328.353,0.582664,0.0,0.0
2115,528.5,36.7097,37.8084,151.704,98.8796,92.0942,0.00380254,0.0863557,21.0441,-328.373,0.631006,0.0,0.0
2120,529.75,36.9141,37.9262,147.539,98.9323,92.6483,0.00382364,0.0866695,21.0441,-328.403,0.582494,0.0,0.0
2125,531,36.2396,36.9205,152.065,98.9818,92.5158,0.00379672,0.0870405,21.0441,-328.423,0.599642,0.0,0.0
2130,532.25,36.7354,38.2786,152.459,99.0281,92.3207,,0.0870878,,-328.413,0.622532,0.0,0.0
2135,533.5,36.3493,37.9349,153.344,99.0732,92.4503,,0.0870869,,-328.433,0.614113,0.0,0.0
2140,534.75,36.6652,37.573,152.278,99.144,92.701,,,,-328.453,0.596418,0.0,0.0
2145,536,36.6452,37.7575,146.988,99.1931,92.4483,,,,-328.433,0.625048,0.0,0.0
2150,537.25,36.8213,37.9722,149.647,99.2185,92.545,,,,-328.433,0.618033,0.0,0.0
2155,538.5,36.8958,38.2524,146.816,99.2704,93.1152,,,,-328.443,0.56816,0.0,0.0
2160,539.75,37.1148,37.8685,146.817,99.3239,92.7006,,,,-328.453,0.612548,0.0,0.0
2165,541,36.5269,38.06,144.885,99.3646,93.335,,,,-328.473,0.555645,0.0,0.0
2169,542,36.9267,37.7671,151.185,99.402,92.9941,,,,-328.503,0.591463,0.0,0.0