File: 01_Data/Wool_Rug/Cone/Wool_Rug_Cone_HF75Scan_220324_R2.csv
Names,Time,Stack TC,Smoke TC,Exh Press,Smoke Comp,Smoke Meas,CO Meter,CO2 Meter,O2 Meter,Sample Mass,Ext Coeff,Start Test,Flame Verif
Chan Gain,,500,500,1,1,1,1,1,1,1,1,1.0,1.0
Offset,,0,0,0.129198,0,0,0,0,0,0,0,0.0,0.0
Gain,,1,1,25.011,13.1874,13.4895,1,1,1,1.00089,1.01187,1.0,1.0
Units,sec,C,C,Pa,%,%,%,%,%,g,/m,,
Baseline,,46.1653,48.1118,124.389,99.9048,94.1394,0.000672719,0.0695989,20.9941,-836.688,0.527665,,
4,0.75,44.221,46.274,125.112,100.112,91.7983,0.00186921,0.0888668,20.9361,-302.32,0.769515,0.0,0.0
8,1.75,43.555,45.1754,117.889,100.113,92.8521,0.00272322,0.125024,20.8582,-302.69,0.668269,0.0,0.0
12,2.75,43.6697,45.15625,102.505,100.122,91.8588,0.00387186,0.219318,20.7362,-302.94,0.764594,0.0,1.0
16,3.75,43.9066,45.7713,95.425,100.122,87.6408,0.00512048,0.345401,20.5794,-303.11,1.18178,0.0,1.0
20,4.75,45.1863,47.0076,96.7607,100.122,85.0918,0.00645222,0.47303,20.3754,-303.421,1.44377,0.0,1.0
24,5.75,46.8822,48.5665,97.5019,100.127,84.8959,0.0076397,0.582131,20.1972,-303.621,1.46466,0.0,1.0
28,6.75,49.018,50.4085,92.6123,100.129,84.2668,0.00878965,0.687982,20.0454,-303.871,1.53089,0.0,1.0
32,7.75,50.6455,52.573,94.071,100.134,84.3055,0.00984376,0.766756,19.9397,-304.001,1.52728,0.0,0.0
36,8.75,52.1042,54.1746,103.93,100.151,87.1621,0.0106213,0.818565,19.8704,-304.241,1.23297,0.0,0.0
40,9.75,54.4048,56.8393,98.8956,100.142,83.3632,0.0113144,0.84555,19.8286,-304.482,1.62769,0.0,0.0
44,10.75,55.8042,58.4872,96.6272,100.156,82.1064,0.0118414,0.852719,19.8144,-304.632,1.76377,0.0,0.0
48,11.75,57.6027,60.829,101.043,100.142,82.1999,0.0122474,0.848909,19.8147,-304.822,1.75246,0.0,0.0
52,12.75,58.8726,62.2472,97.9514,100.14,82.4748,0.0125248,0.837467,19.8286,-305.002,1.72264,0.0,0.0
56,13.75,60.2414,63.6025,106.544,100.15,83.7181,0.0126678,0.819568,19.8554,-305.142,1.59073,0.0,0.0
60,14.75,61.3173,65.194,98.5521,100.159,85.0272,0.01273,0.801697,19.8763,-305.312,1.45376,0.0,0.0
64,15.75,62.3267,66.4693,100.792,100.152,84.9588,0.0125805,0.781864,19.898,-305.563,1.46033,0.0,0.0
68,16.75,63.3393,67.3414,104.858,100.155,81.9426,0.0124056,0.764306,19.9241,-305.673,1.78147,0.0,0.0
72,17.75,64.4561,68.193,99.3047,100.153,82.7939,0.012061,0.747732,19.9517,-305.863,1.68955,0.0,0.0
76,18.75,64.8193,69.8982,103.551,100.162,82.3522,0.0117011,0.733566,19.9803,-306.013,1.73782,0.0,0.0
80,19.75,66.2923,70.6204,100.048,100.165,82.4806,0.011389,0.716245,20.0151,-306.173,1.7242,0.0,0.0
84,20.75,66.92,72.1379,102.843,100.171,81.689,0.011091,0.698785,20.0431,-306.323,1.81034,0.0,0.0
88,21.75,66.9991,72.0878,106.868,100.173,82.0599,0.0107735,0.682133,20.0722,-306.453,1.7703,0.0,0.0
92,22.75,68.0249,73.2289,107.39,100.171,83.2307,0.0106176,0.668292,20.0887,-306.644,1.64442,0.0,0.0
96,23.75,69.221,74.2147,101.627,100.173,82.1278,0.0103984,0.655264,20.1063,-306.754,1.76303,0.0,0.0
100,24.75,69.6272,74.4492,105.79,100.174,83.5439,0.0101806,0.638807,20.1257,-306.904,1.61132,0.0,0.0
104,25.75,69.5264,74.5331,103.074,100.172,83.5106,0.0099392,0.629548,20.1436,-307.024,1.61468,0.0,0.0
108,26.75,70.4842,75.872,108.208,100.185,82.5407,0.00970332,0.617785,20.1618,-307.174,1.71955,0.0,0.0
112,27.75,71.1856,76.3973,106.253,100.175,83.4027,0.00944006,0.607417,20.1785,-307.334,1.6264,0.0,0.0
116,28.75,71.4053,76.8545,109.128,100.174,84.9432,0.00917781,0.598568,20.1927,-307.454,1.46392,0.0,0.0
120,29.75,71.4464,77.3663,103.198,100.182,83.5884,0.00895507,0.591244,20.2053,-307.544,1.60735,0.0,0.0
124,30.75,71.992,78.0923,108.922,100.179,85.1984,0.00873635,0.584213,20.2153,-307.775,1.43772,0.0,0.0
128,31.75,72.4298,78.4598,109.438,100.178,84.5748,0.00852621,0.576355,20.226,-307.855,1.50283,0.0,0.0
132,32.75,73.2152,78.5764,104.593,100.189,85.1058,0.00834138,0.568809,20.2361,-308.025,1.44823,0.0,0.0
136,33.75,73.3546,79.351,107.086,100.184,85.198,0.00816824,0.561159,20.2471,-308.135,1.43819,0.0,0.0
140,34.75,73.7558,79.7376,108.983,100.178,85.7171,0.00801777,0.553108,20.2616,-308.265,1.38374,0.0,0.0
144,35.75,74.1375,80.1737,103.408,100.183,85.8423,0.00785545,0.543454,20.2762,-308.435,1.37125,0.0,0.0
148,36.75,74.5412,80.4587,104.126,100.188,86.631,0.00769701,0.533212,20.2904,-308.535,1.29046,0.0,0.0
152,37.75,74.9209,81.1275,109.061,100.184,86.7129,0.00750826,0.523367,20.2996,-308.695,1.28175,0.0,0.0
156,38.75,74.8956,81.0773,107.398,100.185,86.813,0.00733104,0.513301,20.3114,-308.785,1.27162,0.0,0.0
160,39.75,75.496,81.3274,112.045,100.178,86.7611,0.00711629,0.503955,20.325,-308.916,1.27632,0.0,0.0
164,40.75,75.6704,81.5503,106.527,100.186,86.6405,0.00689456,0.496388,20.3396,-309.006,1.28935,0.0,0.0
168,41.75,75.7643,82.0258,110.379,100.191,87.3008,0.00669409,0.489927,20.3516,-309.186,1.22238,0.0,0.0
172,42.75,75.602,81.8721,107.805,100.183,87.7166,0.00648968,0.483697,20.362,-309.256,1.1795,0.0,0.0
176,43.75,76.1302,82.2627,110.67,100.175,88.064,0.00628275,0.477988,20.3714,-309.396,1.14377,0.0,0.0
180,44.75,76.2282,82.4899,112.011,100.179,88.2666,0.00606639,0.47205,20.3803,-309.516,1.1237,0.0,0.0
184,45.75,76.0908,82.4492,111.799,100.177,88.6786,0.00587039,0.465732,20.3889,-309.636,1.08214,0.0,0.0
188,46.75,76.8727,82.9147,109.223,100.177,89.0117,0.00563714,0.460087,20.3968,-309.786,1.04887,0.0,0.0
192,47.75,76.5048,83.2731,111.697,100.172,89.1895,0.00542143,0.455286,20.4047,-309.886,1.03076,0.0,0.0
196,48.75,76.8246,83.0648,108.214,100.19,89.1879,0.00518072,0.451167,20.4115,-310.017,1.03246,0.0,0.0
200,49.75,77.1884,83.2381,110.166,100.169,89.5559,0.00508092,0.44749,20.4168,-310.117,0.994053,0.0,0.0
204,50.75,77.0474,83.0632,107.502,100.185,90.2072,0.00498181,0.44402,20.4215,-310.267,0.931165,0.0,0.0
208,51.75,77.0291,83.2239,107.794,100.17,89.6992,0.00493105,0.440474,20.4267,-310.387,0.980008,0.0,0.0
212,52.75,77.0193,83.5591,111.451,100.161,89.367,0.00490871,0.436395,20.4329,-310.487,1.01212,0.0,0.0
216,53.75,77.3386,83.632,109.684,100.166,90.024,0.00490133,0.432464,20.4398,-310.607,0.947532,0.0,0.0
220,54.75,77.204,83.7644,110.252,100.176,89.4719,0.00488722,0.428629,20.4463,-310.707,1.00306,0.0,0.0
224,55.75,77.1006,83.7284,108.455,100.156,89.7827,0.00483944,0.425122,20.4509,-310.867,0.970494,0.0,0.0
228,56.75,77.2923,84.0055,108.617,100.155,89.4732,0.00474989,0.422326,20.4543,-310.957,1.00101,0.0,0.0
232,57.75,77.759,84.1629,107.586,100.158,90.3821,0.00465176,0.419894,20.4578,-311.068,0.911613,0.0,0.0
236,58.75,77.1502,83.8486,108.153,100.16,90.1133,0.00452869,0.418123,20.4598,-311.208,0.938195,0.0,0.0
240,59.75,77.6543,84.497,108.493,100.156,89.9219,0.00444261,0.416926,20.4615,-311.318,0.956713,0.0,0.0
244,60.75,77.1963,83.8333,109.233,100.153,90.1545,0.00438825,0.415849,20.4629,-311.418,0.933498,0.0,0.0
248,61.75,77.7295,84.4372,109.124,100.157,89.5168,0.00435026,0.415019,20.4647,-311.528,0.996931,0.0,0.0
252,62.75,77.7227,84.3997,109.117,100.151,90.5431,0.00430554,0.414302,20.4663,-311.648,0.895214,0.0,0.0
256,63.75,78.2216,84.5921,108.419,100.151,91.2009,0.00423495,0.413679,20.4681,-311.758,0.830885,0.0,0.0
260,64.75,78.208,84.5684,110.307,100.149,90.3175,0.00415827,0.412542,20.4692,-311.858,0.917178,0.0,0.0
264,65.75,78.0634,84.5719,107.405,100.149,90.9259,0.00407601,0.410874,20.4723,-311.978,0.857511,0.0,0.0
268,66.75,77.9495,84.4271,106.96,100.143,90.6382,0.00401333,0.408979,20.476,-312.098,0.885182,0.0,0.0
272,67.75,77.8617,84.988,108.672,100.14,90.9,0.00397927,0.407539,20.4791,-312.219,0.859259,0.0,0.0
276,68.75,77.9614,84.6724,110.026,100.137,90.8712,0.00395528,0.406495,20.4816,-312.299,0.861858,0.0,0.0
280,69.75,78.1154,84.7135,109.323,100.139,91.5776,0.00392864,0.405637,20.4842,-312.419,0.793266,0.0,0.0
284,70.75,77.8903,85.2692,111.706,100.147,90.6188,0.00389812,0.403792,20.4887,-312.509,0.887398,0.0,0.0
288,71.75,78.1485,85.0974,109.126,100.145,91.8892,0.00387407,0.4013,20.4927,-312.609,0.763612,0.0,0.0
292,72.75,77.9572,84.7328,110.422,100.137,90.5357,0.00385379,0.39892,20.4966,-312.729,0.894656,0.0,0.0
296,73.75,78.1811,85.34,111.488,100.128,91.3261,0.00381797,0.396125,20.5008,-312.859,0.816716,0.0,0.0
300,74.75,78.0795,85.0092,114.64,100.129,91.8328,0.00373825,0.393406,20.5052,-312.929,0.767706,0.0,0.0
304,75.75,78.0298,85.1886,110.631,100.14,91.1606,0.00362526,0.391116,20.5084,-313.009,0.833849,0.0,0.0
308,76.75,78.2138,85.3552,111.213,100.13,91.3837,0.00348826,0.38918,20.5118,-313.139,0.811259,0.0,0.0
312,77.75,78.234,85.1771,109.834,100.134,91.5467,0.00338081,0.387383,20.515,-313.229,0.795796,0.0,0.0
316,78.75,78.3358,85.0911,111.548,100.131,91.3038,0.00331081,0.385652,20.5176,-313.31,0.819127,0.0,0.0
320,79.75,78.419,85.2331,107.821,100.133,91.5109,0.00327761,0.38415,20.5203,-313.39,0.799198,0.0,0.0
324,80.75,78.4834,85.1655,111.887,100.131,91.3627,0.00331734,0.382798,20.522,-313.48,0.813405,0.0,0.0
328,81.75,78.1227,85.145,110.395,100.126,91.4405,0.00338696,0.380887,20.524,-313.62,0.805386,0.0,0.0
332,82.75,77.9398,85.1307,110.784,100.124,90.8667,0.00344813,0.378886,20.5277,-313.7,0.861159,0.0,0.0
336,83.75,77.9972,84.8007,109.585,100.124,92.1725,0.00347551,0.376801,20.5303,-313.82,0.734442,0.0,0.0
340,84.75,78.4458,85.4391,115.788,100.126,91.224,0.00343682,0.3752,20.533,-313.9,0.826502,0.0,0.0
344,85.75,76.8402,85.1766,111.306,100.124,91.7801,0.00337793,0.373904,20.535,-313.97,0.772373,0.0,0.0
348,86.75,78.0514,85.059,109.916,100.118,92.0424,0.00329473,0.372919,20.5371,-314.09,0.746442,0.0,0.0
352,87.75,77.8013,85.744,109.53,100.13,92.1408,0.00322668,0.371404,20.5391,-314.15,0.73803,0.0,0.0
356,88.75,77.8329,83.6072,113.449,100.123,91.0416,0.00319075,0.370481,20.5408,-314.23,0.843979,0.0,0.0
360,89.75,78.8103,84.9642,107.933,100.124,92.3009,0.00319196,0.369911,20.542,-314.36,0.722117,0.0,0.0
364,90.75,77.8935,85.0169,109.614,100.126,91.8526,0.00319806,0.369404,20.5437,-314.451,0.765476,0.0,0.0
368,91.75,78.2364,84.8184,114.229,100.118,91.6188,0.00320702,0.368427,20.5464,-314.511,0.787388,0.0,0.0
372,92.75,77.6763,84.635,112.532,100.124,91.8044,0.0032119,0.366362,20.5489,-314.631,0.770025,0.0,0.0
376,93.75,77.1192,84.9685,111.655,100.117,91.4586,0.00320445,0.363989,20.553,-314.681,0.802878,0.0,0.0
380,94.75,77.582,84.5817,112.832,100.118,91.7501,0.00317546,0.361378,20.5564,-314.811,0.774744,0.0,0.0
384,95.75,77.6732,84.5541,115.74,100.133,91.5578,0.00313062,0.358686,20.5611,-314.921,0.794683,0.0,0.0
388,96.75,77.4932,84.4827,112.851,100.123,92.3009,0.0031023,0.356174,20.565,-315.041,0.72201,0.0,0.0
392,97.75,77.4299,84.2166,110.452,100.111,91.2536,0.00309804,0.353883,20.5682,-315.121,0.822226,0.0,0.0
396,98.75,77.5859,84.4358,110.351,100.116,91.0939,0.00313801,0.352245,20.5705,-315.181,0.838276,0.0,0.0
400,99.75,77.255,84.2676,111.951,100.125,91.8217,0.00317168,0.351189,20.5721,-315.271,0.768424,0.0,0.0
404,100.75,77.4888,84.2638,112.031,100.13,92.0074,0.00319772,0.350221,20.5743,-315.381,0.750888,0.0,0.0
408,101.75,77.0802,84.191,111.703,100.117,91.6447,0.00319895,0.348852,20.5761,-315.451,0.784839,0.0,0.0
412,102.75,77.008,84.0629,110.152,100.107,91.1342,0.00318843,0.346805,20.5801,-315.561,0.833525,0.0,0.0
416,103.75,77.2559,84.1173,111.92,100.113,91.7653,0.00316844,0.344325,20.5844,-315.632,0.772808,0.0,0.0
420,104.75,77.3556,84.06,110.126,100.118,92.1844,0.00314794,0.342693,20.588,-315.712,0.732756,0.0,0.0
424,105.75,76.6162,83.6619,114.2,100.112,91.8724,0.00312813,0.340263,20.592,-315.772,0.762389,0.0,0.0
428,106.75,76.7403,83.5073,109.706,100.108,92.1972,0.00308333,0.337696,20.5947,-315.862,0.730672,0.0,0.0
432,107.75,76.5695,83.4788,111.892,100.109,92.2182,0.00304539,0.334944,20.5972,-315.932,0.728794,0.0,0.0
436,108.75,76.295,83.6824,116.302,100.101,91.9942,0.00294881,0.332283,20.6008,-316.052,0.749626,0.0,0.0
440,109.75,76.4473,83.7336,113.341,100.109,92.2252,0.00285186,0.330029,20.6042,-316.082,0.728049,0.0,0.0
444,110.75,76.2429,83.7183,109.459,100.104,92.0189,0.00278155,0.328149,20.608,-316.182,0.747492,0.0,0.0
448,111.75,76.434,83.3269,112.485,100.093,92.7941,0.00275779,0.326431,20.6108,-316.262,0.67207,0.0,0.0
452,112.75,76.4139,83.2232,113.122,100.088,92.0794,0.00277131,0.324933,20.6132,-316.332,0.740266,0.0,0.0
456,113.75,76.24,82.782,114.33,100.098,92.2997,0.00278513,0.323548,20.6152,-316.412,0.719916,0.0,0.0
460,114.75,76.0892,82.7632,115.517,100.082,92.6504,0.00278336,0.322268,20.6176,-316.472,0.684824,0.0,0.0
464,115.75,76.3081,82.9822,113.859,100.071,92.0259,0.00276106,0.320634,20.6203,-316.562,0.74389,0.0,0.0
468,116.75,75.8192,82.738,114.133,100.081,92.7912,0.00272291,0.318824,20.6229,-316.652,0.671239,0.0,0.0
472,117.75,76.0859,82.5735,114.343,100.085,93.1127,0.00270954,0.316368,20.627,-316.682,0.640894,0.0,0.0
476,118.75,75.8889,82.4292,113.77,100.062,92.2322,0.00272511,0.314303,20.6305,-316.783,0.723199,0.0,0.0
480,119.75,75.7053,82.3438,113.28,100.058,92.79,0.00276539,0.312849,20.6328,-316.823,0.669322,0.0,0.0
484,120.75,75.5945,82.0202,111.099,100.07,92.1473,0.00279182,0.311992,20.6345,-316.913,0.732078,0.0,0.0
488,121.75,75.3225,81.7877,111.62,100.069,92.4981,0.00279681,0.311434,20.6362,-317.003,0.698285,0.0,0.0
492,122.75,75.547,82.1751,111.958,100.051,91.9456,0.00278793,0.310887,20.6376,-317.073,0.749851,0.0,0.0
496,123.75,75.2135,81.7666,112.117,100.057,92.2692,0.00277621,0.310245,20.639,-317.143,0.719241,0.0,0.0
500,124.75,75.1618,81.8147,112.777,100.043,91.79,0.00276227,0.309394,20.6407,-317.203,0.764208,0.0,0.0
504,125.75,75.2441,81.7811,114.062,100.038,91.8761,0.00276053,0.308557,20.6426,-317.273,0.755428,0.0,0.0
508,126.75,74.7112,81.4708,111.741,100.037,91.9975,0.00276501,0.307733,20.6445,-317.343,0.743595,0.0,0.0
512,127.75,74.7846,81.4431,114.643,100.035,91.6501,0.0027772,0.30691,20.6463,-317.413,0.777039,0.0,0.0
516,128.75,74.8185,81.3259,110.239,100.034,92.8159,0.00278837,0.306228,20.6483,-317.483,0.664735,0.0,0.0
520,129.75,74.5989,81.046,113.173,100.017,91.0972,0.00278109,0.305551,20.6496,-317.543,0.829174,0.0,0.0
524,130.75,74.3546,81.1933,117.267,100.02,91.7505,0.00277207,0.304768,20.6503,-317.613,0.765995,0.0,0.0
528,131.75,74.3175,81.1548,110.204,100.004,91.8489,0.00274801,0.30369,20.6508,-317.723,0.755053,0.0,0.0
532,132.75,74.2245,80.9619,114.015,100.012,91.3582,0.00269872,0.302547,20.6523,-317.753,0.80328,0.0,0.0
536,133.75,74.4312,80.8137,116.214,100,91.4199,0.00264736,0.301794,20.6533,-317.844,0.796282,0.0,0.0
540,134.75,73.9459,80.9018,111.155,99.992,91.4031,0.00258459,0.301268,20.654,-317.874,0.797171,0.0,0.0
544,135.75,73.771,80.5111,116.309,99.9952,90.9329,0.00257471,0.301329,20.6538,-317.964,0.843227,0.0,0.0
548,136.75,73.9241,80.6511,112.984,99.9795,90.9622,0.00260627,0.301862,20.6535,-318.034,0.838982,0.0,0.0
552,137.75,74.1286,80.6606,112.543,99.9819,91.4817,0.00264488,0.302272,20.6533,-318.094,0.788646,0.0,0.0
556,138.75,73.3258,79.7973,117.144,99.9795,91.1071,0.00266573,0.302519,20.6525,-318.184,0.824853,0.0,0.0
560,139.75,73.7682,80.014,112.535,99.9719,91.5858,0.00266001,0.302912,20.6514,-318.234,0.777652,0.0,0.0
564,140.75,73.7458,80.326,116.855,99.9493,90.8761,0.00263933,0.303684,20.6503,-318.294,0.844701,0.0,0.0
568,141.75,73.3724,79.9775,111.385,99.9397,91.4405,0.00259201,0.304506,20.6496,-318.374,0.788888,0.0,0.0
572,142.75,73.3855,80.0082,112.027,99.9372,91.1474,0.00254828,0.305166,20.6483,-318.454,0.817171,0.0,0.0
576,143.75,73.4688,80.0314,112.015,99.9312,91.6266,0.00252182,0.305772,20.6475,-318.464,0.770094,0.0,0.0
580,144.75,73.1535,79.4827,112.731,99.9236,91.007,0.00252011,0.306147,20.6469,-318.504,0.829636,0.0,0.0
584,145.75,73.0205,79.3175,116.059,99.9135,90.5703,0.00253241,0.306434,20.6466,-318.644,0.871446,0.0,0.0
588,146.75,73.2627,79.7357,110.629,99.9067,90.2734,0.00254272,0.30655,20.6463,-318.724,0.899973,0.0,0.0
592,147.75,72.8793,79.3068,113.936,99.9067,90.5674,0.00254948,0.306315,20.6471,-318.804,0.87112,0.0,0.0
596,148.75,73.2486,79.2126,112.746,99.8986,90.122,0.00255638,0.30587,20.6483,-318.834,0.914166,0.0,0.0
600,149.75,72.8151,78.939,113.719,99.8922,89.8626,0.00256166,0.305338,20.649,-318.914,0.939174,0.0,0.0
604,150.75,72.679,79.1299,115.114,99.8898,90.2899,0.00256206,0.304623,20.6496,-318.965,0.896852,0.0,0.0
608,151.75,72.6013,78.9436,115.095,99.8902,90.2874,0.00256363,0.303468,20.6504,-319.055,0.89713,0.0,0.0
612,152.75,73.0549,79.3313,112.674,99.8801,90.4212,0.00256782,0.30251,20.6519,-319.115,0.883094,0.0,0.0
616,153.75,72.6713,78.9183,110.883,99.87,90.3974,0.00258665,0.301631,20.6538,-319.185,0.884544,0.0,0.0
620,154.75,72.6585,78.8131,111.978,99.868,90.3846,0.00261201,0.300739,20.6559,-319.235,0.885618,0.0,0.0
624,155.75,72.7725,79.0107,111.945,99.866,89.856,0.00265328,0.300088,20.6579,-319.305,0.9375,0.0,0.0
628,156.75,71.8431,78.0856,111.459,99.8503,90.4348,0.00271393,0.299632,20.6594,-319.345,0.879113,0.0,0.0
632,157.75,72.5741,78.8196,114.398,99.8455,90.0244,0.00278286,0.299265,20.661,-319.395,0.919059,0.0,0.0
636,158.75,72.6681,78.5836,109.856,99.8366,89.7214,0.00284152,0.298991,20.6623,-319.475,0.948196,0.0,0.0
640,159.75,72.1316,78.2496,113.698,99.8338,90.7407,0.00288673,0.298751,20.6637,-319.535,0.847676,0.0,0.0
644,160.75,72.1662,78.1418,114.434,99.827,90.7296,0.00291981,0.29846,20.6654,-319.585,0.848155,0.0,0.0
648,161.75,71.7283,77.9166,112.876,99.8197,90.0606,0.00291767,0.298004,20.6669,-319.645,0.913198,0.0,0.0
652,162.75,71.7904,77.9171,113.096,99.8048,90.2092,0.00286652,0.297457,20.668,-319.685,0.897239,0.0,0.0
656,163.75,71.9464,78.0335,113.459,99.8044,90.3739,0.00280891,0.297022,20.6687,-319.775,0.881016,0.0,0.0
660,164.75,71.6187,78.0152,114.466,99.8048,90.5517,0.00272571,0.296825,20.6692,-319.825,0.863602,0.0,0.0
664,165.75,71.7709,77.8712,113.183,99.7992,90.0487,0.00266954,0.296724,20.6695,-319.875,0.912549,0.0,0.0
668,166.75,71.511,77.5277,114.424,99.8024,90.2578,0.00264835,0.296681,20.6697,-319.935,0.892246,0.0,0.0
672,167.75,71.8745,77.8956,114.748,99.8004,90.0627,0.00264786,0.296737,20.6699,-320.035,0.911277,0.0,0.0
676,168.75,71.6399,77.3472,113.405,99.7948,90.0619,0.00266115,0.29668,20.67,-320.086,0.910856,0.0,0.0
680,169.75,71.8995,77.6845,118.514,99.7936,90.0931,0.00268739,0.296391,20.67,-320.146,0.907667,0.0,0.0
684,170.75,71.2799,77.3612,113.825,99.7891,89.9017,0.00272314,0.295791,20.6709,-320.196,0.926152,0.0,0.0
688,171.75,71.547,77.4362,113.564,99.7823,89.7757,0.0027524,0.295134,20.6722,-320.286,0.93799,0.0,0.0
692,172.75,71.2931,77.276,113.704,99.7714,89.9528,0.00276871,0.294121,20.6728,-320.346,0.919539,0.0,0.0
696,173.75,71.513,77.3435,114.128,99.7698,89.8881,0.00277038,0.293322,20.6732,-320.366,0.925776,0.0,0.0
700,174.75,71.1942,77.1522,116.196,99.7767,89.1801,0.00275718,0.293054,20.6735,-320.436,0.99658,0.0,0.0
704,175.75,71.1758,77.1749,117.003,99.7557,89.2381,0.00269562,0.293299,20.6736,-320.516,0.988943,0.0,0.0
708,176.75,71.4421,76.9411,116.031,99.7565,89.6185,0.00264101,0.293954,20.6731,-320.536,0.95126,0.0,0.0
712,177.75,71.1972,76.7975,117.841,99.7421,88.875,0.00250732,0.294861,20.6727,-320.606,1.02391,0.0,0.0
716,178.75,71.1635,76.7769,118.261,99.74,89.2566,0.00244441,0.296003,20.672,-320.696,0.985703,0.0,0.0
720,179.75,70.7984,76.5571,113.644,99.7332,89.4892,0.00239877,0.296705,20.6705,-320.726,0.961995,0.0,0.0
724,180.75,70.975,76.5782,115.34,99.7348,89.2632,0.00239259,0.297387,20.6695,-320.816,0.984583,0.0,0.0
728,181.75,70.7956,76.6834,114.401,99.7344,89.2793,0.00242415,0.297794,20.6695,-320.856,0.98295,0.0,0.0
732,182.75,70.7642,76.63,112.522,99.7268,89.1891,0.00246091,0.298102,20.6697,-320.866,0.991238,0.0,0.0
736,183.75,70.8713,76.913,116.394,99.736,89.5378,0.00250299,0.297852,20.6703,-320.936,0.957429,0.0,0.0
740,184.75,70.559,76.3016,118.144,99.7175,88.84,0.00253069,0.297395,20.6713,-320.976,1.02522,0.0,0.0
744,185.75,70.8683,76.5508,112.087,99.7143,88.7709,0.00253545,0.296386,20.6719,-321.046,1.03185,0.0,0.0
748,186.75,70.6035,76.5059,116.038,99.7107,88.6717,0.0025232,0.295127,20.6739,-321.106,1.04145,0.0,0.0
752,187.75,70.7871,75.8317,118.053,99.7107,89.3262,0.0024983,0.293875,20.6753,-321.167,0.976173,0.0,0.0
756,188.75,70.3143,76.3722,119.218,99.7026,89.3283,0.00247562,0.292917,20.6762,-321.237,0.975252,0.0,0.0
760,189.75,70.2961,76.0696,110.519,99.6946,88.5552,0.00248364,0.292417,20.6767,-321.277,1.05169,0.0,0.0
764,190.75,70.3454,75.6863,110.08,99.6966,88.3913,0.00251236,0.292304,20.6771,-321.347,1.06831,0.0,0.0
768,191.75,70.3426,76.1029,111.446,99.6901,88.7211,0.00256748,0.292294,20.6773,-321.427,1.03468,0.0,0.0
772,192.75,70.0691,75.9585,112.152,99.6817,88.7161,0.00264022,0.2923,20.6777,-321.467,1.03442,0.0,0.0
776,193.75,70.4336,75.8537,115.23,99.6696,88.5729,0.00271659,0.292048,20.6786,-321.557,1.04769,0.0,0.0
780,194.75,69.9291,76.0913,113.339,99.6757,88.0097,0.00278267,0.291712,20.6791,-321.607,1.10485,0.0,0.0
784,195.75,70.6296,75.293,115.742,99.672,88.4123,0.00283004,0.291265,20.6795,-321.687,1.06401,0.0,0.0
788,196.75,70.6775,75.8643,114.828,99.6664,88.1814,0.00287457,0.29077,20.6803,-321.717,1.08673,0.0,0.0
792,197.75,69.6435,75.1415,116.624,99.666,88.5008,0.00292171,0.290235,20.6811,-321.747,1.05459,0.0,0.0
796,198.75,69.9945,75.3047,115.694,99.6648,88.3296,0.00294734,0.289576,20.6816,-321.787,1.07168,0.0,0.0
800,199.75,70.2496,75.2181,114.242,99.6414,88.4629,0.00296273,0.288886,20.6827,-321.857,1.05621,0.0,0.0
804,200.75,70.0757,75.5721,112.503,99.6463,88.4749,0.00294146,0.288325,20.6832,-321.947,1.05544,0.0,0.0
808,201.75,70.0481,75.4565,113.007,99.6547,87.7228,0.00292526,0.287937,20.6835,-321.997,1.13197,0.0,0.0
812,202.75,70.3088,75.1775,111.388,99.6382,88.4658,0.0029058,0.287432,20.6841,-322.027,1.05563,0.0,0.0
816,203.75,70.0457,75.4131,114.508,99.6406,88.2559,0.00288159,0.28671,20.6852,-322.087,1.07694,0.0,0.0
820,204.75,70.002,74.8987,114.58,99.633,88.0521,0.00283616,0.28592,20.6869,-322.137,1.09677,0.0,0.0
824,205.75,69.6067,74.7424,116.268,99.6205,88.5383,0.00279838,0.285001,20.688,-322.187,1.04679,0.0,0.0
828,206.75,69.4669,75.1937,111.609,99.6189,88.4885,0.00276819,0.283774,20.6904,-322.247,1.05164,0.0,0.0
832,207.75,69.5985,75.1317,112.167,99.6141,88.3086,0.0027406,0.282502,20.6921,-322.288,1.06927,0.0,0.0
836,208.75,69.4336,75.1971,110.478,99.6201,87.7343,0.00270637,0.281386,20.6939,-322.358,1.12772,0.0,0.0
840,209.75,69.8151,74.9097,116.03,99.6008,88.5366,0.0026749,0.280479,20.695,-322.398,1.04519,0.0,0.0
844,210.75,69.5728,74.9565,115.13,99.602,88.4469,0.00261623,0.279715,20.6964,-322.418,1.0543,0.0,0.0
848,211.75,69.4327,75.2299,115.414,99.602,88.4296,0.00256717,0.278801,20.6979,-322.468,1.05604,0.0,0.0
852,212.75,69.4211,74.7242,115.927,99.5899,88.262,0.00255328,0.277805,20.6993,-322.548,1.0718,0.0,0.0
856,213.75,69.7637,74.8906,116.75,99.5839,87.7862,0.00258818,0.276798,20.7002,-322.618,1.11925,0.0,0.0
860,214.75,69.6506,74.7058,115.798,99.5795,88.5111,0.00267305,0.275875,20.701,-322.658,1.04585,0.0,0.0
864,215.75,69.4292,74.244,112.973,99.5746,88.409,0.00276493,0.275309,20.7021,-322.708,1.05566,0.0,0.0
868,216.75,69.3874,74.1787,115.014,99.575,89.0018,0.00283424,0.275106,20.7028,-322.758,0.996384,0.0,0.0
872,217.75,68.9239,74.7243,118.541,99.5843,88.2744,0.00283715,0.274692,20.7033,-322.808,1.07005,0.0,0.0
876,218.75,69.0057,74.1476,117.684,99.565,88.1822,0.00278979,0.274168,20.7042,-322.878,1.07761,0.0,0.0
880,219.75,69.3818,74.4121,116.577,99.5783,88.5037,0.00271174,0.273802,20.705,-322.918,1.04649,0.0,0.0
884,220.75,69.1604,73.7158,116.693,99.573,88.5774,0.00262922,0.273441,20.7062,-322.988,1.03863,0.0,0.0
888,221.75,69.3661,74.2938,115.331,99.5787,87.9339,0.00256614,0.272829,20.7071,-322.988,1.10385,0.0,0.0
892,222.75,68.9899,73.6773,114.827,99.5795,88.6437,0.00254081,0.271863,20.7077,-323.088,1.03257,0.0,0.0
896,223.75,68.5018,74.254,114.761,99.569,88.6708,0.0025372,0.270611,20.7098,-323.118,1.02892,0.0,0.0
900,224.75,68.6487,74.1134,114.144,99.5618,88.4024,0.00258408,0.269501,20.7112,-323.178,1.05518,0.0,0.0
904,225.75,68.8709,74.0144,119.061,99.5589,88.4032,0.00265984,0.268575,20.7127,-323.228,1.05484,0.0,0.0
908,226.75,68.7983,73.4784,114.36,99.5646,88.2534,0.00274532,0.268101,20.7144,-323.258,1.07041,0.0,0.0
912,227.75,68.6016,73.7056,115.58,99.5569,88.2155,0.00284576,0.267942,20.7161,-323.298,1.07353,0.0,0.0
916,228.75,68.4678,73.8124,113.325,99.5573,88.4201,0.00294459,0.267837,20.7172,-323.348,1.05301,0.0,0.0
920,229.75,68.6927,73.0825,114.928,99.5573,87.985,0.00303388,0.2676,20.7179,-323.409,1.0968,0.0,0.0
924,230.75,68.4387,73.185,120.232,99.5545,88.0809,0.0031025,0.267557,20.7184,-323.459,1.08687,0.0,0.0
928,231.75,68.315,73.3458,114.746,99.5501,88.2625,0.00314752,0.267752,20.7181,-323.499,1.0682,0.0,0.0
932,232.75,68.1244,73.2609,121.069,99.5573,88.4201,0.00318155,0.267992,20.7177,-323.539,1.05301,0.0,0.0
936,233.75,68.613,73.3797,113.399,99.5585,87.6915,0.00321061,0.268018,20.7179,-323.599,1.12656,0.0,0.0
940,234.75,68.6321,73.4325,114.261,99.5573,87.5326,0.00321034,0.267721,20.719,-323.629,1.14255,0.0,0.0
944,235.75,68.2643,73.1235,114.71,99.5525,87.5951,0.00318198,0.267115,20.7202,-323.699,1.13578,0.0,0.0
948,236.75,68.1787,73.1494,118.079,99.5509,87.9632,0.00314659,0.26647,20.7212,-323.729,1.09842,0.0,0.0
952,237.75,68.5539,73.0347,116.383,99.5441,88.2575,0.00311432,0.265742,20.7219,-323.769,1.06816,0.0,0.0
956,238.75,67.7311,73.2022,117.215,99.5469,88.0937,0.00308488,0.264944,20.7228,-323.809,1.08491,0.0,0.0
960,239.75,68.037,73.0534,115.606,99.5372,88.6486,0.00305239,0.264025,20.7245,-323.829,1.02831,0.0,0.0
964,240.75,67.9765,72.7025,114.776,99.5308,88.7931,0.00300989,0.262586,20.7265,-323.879,1.01328,0.0,0.0
968,241.75,67.9665,72.9139,117.109,99.5272,88.9018,0.00295223,0.260964,20.7285,-323.909,1.0021,0.0,0.0
972,242.75,67.7648,72.6962,117.559,99.5364,88.8919,0.002885,0.259169,20.7307,-323.929,1.00391,0.0,0.0
976,243.75,67.5465,72.4693,113.776,99.5171,89.1727,0.00282343,0.257015,20.7338,-323.969,0.974195,0.0,0.0
980,244.75,67.5856,72.1886,117.269,99.5207,89.847,0.00277553,0.254585,20.7357,-324.009,0.907651,0.0,0.0
984,245.75,67.7881,72.5949,116.327,99.5272,89.8659,0.00273802,0.25139,20.7396,-324.069,0.906355,0.0,0.0
988,246.75,67.4509,72.208,113.886,99.5235,90.0565,0.00275819,0.248621,20.7442,-324.109,0.887226,0.0,0.0
992,247.75,67.4417,72.1387,118.629,99.5344,89.2883,0.00282294,0.245789,20.7483,-324.189,0.964231,0.0,0.0
996,248.75,67.4913,72.3628,112.524,99.5155,89.9491,0.00289905,0.243191,20.7534,-324.179,0.897105,0.0,0.0
1000,249.75,67.3899,72.3832,115.317,99.5159,90.0701,0.00295642,0.239212,20.7598,-324.229,0.885205,0.0,0.0
1004,250.75,67.4847,71.8004,117.817,99.5139,90.2479,0.00300627,0.235023,20.7659,-324.259,0.867517,0.0,0.0
1008,251.75,67.2009,71.8952,120.205,99.507,90.4262,0.003044,0.231213,20.7715,-324.299,0.849393,0.0,0.0
1012,252.75,66.8285,71.8573,115.057,99.5066,90.2191,0.0030867,0.227816,20.7759,-324.309,0.869706,0.0,0.0
1016,253.75,67.0447,71.6774,117.098,99.5006,91.0132,0.0031035,0.2251,20.7796,-324.349,0.791383,0.0,0.0
1020,254.75,66.881,71.5271,117.333,99.5022,90.9383,0.00308537,0.222591,20.784,-324.369,0.798836,0.0,0.0
1024,255.75,66.4895,70.9569,119.409,99.4966,91.2075,0.00304003,0.220182,20.7884,-324.419,0.772094,0.0,0.0
1028,256.75,66.6423,71.1844,120.158,99.4982,91.301,0.00295349,0.217872,20.7931,-324.449,0.763148,0.0,0.0
1032,257.75,66.4649,70.7167,118.06,99.4954,91.2355,0.00290582,0.216013,20.7957,-324.479,0.769262,0.0,0.0
1036,258.75,65.9699,70.5022,118.885,99.4869,91.4702,0.00287532,0.214344,20.7983,-324.479,0.745709,0.0,0.0
1040,259.75,66.0964,70.5156,113.151,99.4865,91.7118,0.00287285,0.212347,20.8006,-324.52,0.722255,0.0,0.0
1044,260.75,66.1271,70.5595,119.097,99.4873,91.6711,0.00288126,0.211351,20.8029,-324.54,0.726272,0.0,0.0
1048,261.75,66.0181,69.8595,119.161,99.4797,91.9979,0.00286401,0.209621,20.8052,-324.61,0.693997,0.0,0.0
1052,262.75,66.0631,70.1875,116.13,99.4785,91.6743,0.00282553,0.207661,20.8075,-324.65,0.725163,0.0,0.0
1056,263.75,66.1059,70.2054,120.944,99.4756,91.7233,0.00277725,0.205708,20.8106,-324.68,0.72017,0.0,0.0
1060,264.75,64.9199,69.9371,120.345,99.464,92.242,0.00272812,0.204118,20.8127,-324.7,0.669075,0.0,0.0
1064,265.75,65.4143,69.7695,117.96,99.4652,92.1634,0.00266239,0.202854,20.814,-324.75,0.676752,0.0,0.0
1068,266.75,65.1704,69.809,119.787,99.466,92.1231,0.00259782,0.201431,20.8152,-324.79,0.680711,0.0,0.0
1072,267.75,65.1922,69.6944,119.983,99.4575,91.9819,0.00253427,0.199847,20.8168,-324.81,0.693572,0.0,0.0
1076,268.75,65.1454,69.5508,115.057,99.4511,92.2239,0.00248357,0.198401,20.8185,-324.82,0.669669,0.0,0.0
1080,269.75,65.1154,69.0294,122.848,99.4716,92.5113,0.00245478,0.196467,20.8215,-324.82,0.643888,0.0,0.0
1084,270.75,65.066,68.7937,117.851,99.4398,92.5039,0.00243061,0.194344,20.8243,-324.86,0.641762,0.0,0.0
1088,271.75,64.36,68.8233,120.521,99.439,92.6813,0.00239044,0.192437,20.827,-324.86,0.624682,0.0,0.0
1092,272.75,64.5969,68.9323,117.553,99.4507,92.5763,0.00232709,0.190484,20.8296,-324.9,0.635782,0.0,0.0
1096,273.75,64.0656,68.5748,115.047,99.4362,92.5895,0.00224698,0.188242,20.8329,-324.94,0.633227,0.0,0.0
1100,274.75,64.1727,68.2768,122.053,99.4245,93.1777,0.00218221,0.186132,20.8365,-324.96,0.575968,0.0,0.0
1104,275.75,64.4231,68.2276,121.437,99.429,93.0246,0.00214131,0.183899,20.8394,-324.98,0.590963,0.0,0.0
1108,276.75,63.9907,68.1096,122.394,99.4281,93.1535,0.00212345,0.181705,20.8429,-324.99,0.578605,0.0,0.0
1112,277.75,64.2447,68.4044,121.367,99.4265,93.0695,0.00211817,0.179445,20.8457,-325.02,0.586468,0.0,0.0
1116,278.75,64.0206,67.9209,117.118,99.4237,92.9666,0.00213256,0.177046,20.8488,-325.02,0.596036,0.0,0.0
1120,279.75,63.6891,67.801,118.927,99.4084,93.4025,0.00219127,0.17463,20.8517,-325.04,0.553145,0.0,0.0
1124,280.75,63.4762,67.8216,120.184,99.4125,93.2687,0.00228998,0.172089,20.8544,-325.05,0.566228,0.0,0.0
1128,281.75,63.6069,67.6455,124.146,99.4064,92.8702,0.00241872,0.169863,20.8575,-325.11,0.603694,0.0,0.0
1132,282.75,62.8009,66.6936,121.151,99.4201,93.0954,0.00254772,0.1679,20.8604,-325.09,0.583419,0.0,0.0
1136,283.75,63.1134,67.3095,118.997,99.3907,93.3762,0.00270296,0.165957,20.863,-325.12,0.554068,0.0,0.0
1140,284.75,63.0165,66.6331,120.111,99.3915,93.4976,0.00280039,0.164263,20.8654,-325.15,0.542604,0.0,0.0
1144,285.75,62.5485,66.556,119.578,99.4044,93.5322,0.00290459,0.162785,20.8669,-325.14,0.540471,0.0,0.0
1148,286.75,62.6192,66.518,120.96,99.3903,93.5939,0.00303578,0.161133,20.8692,-325.17,0.533356,0.0,0.0
1152,287.75,62.5457,66.584,121.538,99.3919,93.5857,0.00316598,0.159827,20.8716,-325.17,0.534281,0.0,0.0
1156,288.75,62.0256,66.0336,122.343,99.3855,93.4779,0.00328984,0.157797,20.8749,-325.19,0.543941,0.0,0.0
1160,289.75,62.2238,65.8074,122.546,99.3895,93.5993,0.00339398,0.155941,20.8788,-325.16,0.532776,0.0,0.0
1164,290.75,62.2282,66.0305,121.437,99.3992,93.633,0.00346977,0.153796,20.8816,-325.18,0.530438,0.0,0.0
1168,291.75,62.2286,65.7725,121.589,99.3891,93.3856,0.00352553,0.151815,20.8843,-325.19,0.553024,0.0,0.0
1172,292.75,61.6657,65.5891,120.58,99.3911,93.9196,0.0035846,0.150162,20.886,-325.22,0.5026,0.0,0.0
1176,293.75,61.0338,64.7303,117.381,99.3851,93.5664,0.00364699,0.148894,20.8871,-325.28,0.535505,0.0,0.0
1180,294.75,60.7474,64.9537,120.315,99.3863,93.6783,0.00373442,0.147918,20.888,-325.31,0.524996,0.0,0.0
1184,295.75,60.7937,64.5726,122.137,99.3891,93.3716,0.00383387,0.147071,20.8894,-325.24,0.554355,0.0,0.0
1188,296.75,61.4043,65.1151,118.154,99.3923,93.3144,0.00392771,0.146295,20.8909,-325.24,0.560084,0.0,0.0
1192,297.75,61.0898,64.6467,124.719,99.404,93.4849,0.00400727,0.145214,20.8919,-325.27,0.544929,0.0,0.0
1196,298.75,60.803,63.8287,117.138,99.3899,93.6343,0.00408664,0.144324,20.8934,-325.27,0.529495,0.0,0.0
1200,299.75,60.2468,64.066,120.239,99.3911,93.7648,0.00415792,0.14361,20.8941,-325.35,0.51724,0.0,0.0
1204,300.75,60.7419,63.6736,118.195,99.3903,93.3185,0.00423313,0.142814,20.8945,-325.3,0.559512,0.0,0.0
1208,301.75,60.2426,63.9283,123.567,99.3996,93.5421,0.00429762,0.141859,20.8953,-325.29,0.539102,0.0,0.0
1212,302.75,60.1539,64.0205,120.803,99.3931,93.8558,0.004346,0.140842,20.8969,-325.27,0.508811,0.0,0.0
1216,303.75,59.9772,63.4398,118.896,99.3907,93.4457,0.00437399,0.1399,20.8982,-325.27,0.547458,0.0,0.0
1220,304.75,59.459,63.441,122.118,99.3911,93.2362,0.00437935,0.139075,20.8996,-325,0.567418,0.0,0.0
1224,305.75,59.8439,63.1629,119.849,99.3939,93.8805,0.0043511,0.138611,20.9005,-325.32,0.506548,0.0,0.0
1228,306.75,59.6664,62.7535,120.785,99.3903,93.5561,0.00431338,0.138514,20.9012,-325.33,0.536948,0.0,0.0
1232,307.75,58.9597,62.6249,119.087,99.3903,93.6009,0.00422775,0.138967,20.9009,-325.36,0.532691,0.0,0.0
1236,308.75,59.3494,62.7043,123.813,99.3907,93.5038,0.00417819,0.13999,20.9,-325.41,0.541946,0.0,0.0
1240,309.75,59.2554,62.5796,121.192,99.3911,93.6615,0.00419542,0.141479,20.8981,-325.41,0.527026,0.0,0.0
1244,310.75,58.7607,62.2514,122.972,99.3883,93.2518,0.00427526,0.142985,20.8966,-325.44,0.565678,0.0,0.0
1248,311.75,58.9046,62.05,123.092,99.4056,93.5923,0.00439588,0.144814,20.8957,-325.47,0.534877,0.0,0.0
1252,312.75,58.7982,62.0171,121.782,99.3931,93.7368,0.00451078,0.146149,20.895,-325.53,0.52007,0.0,0.0
1256,313.75,58.7069,61.9685,122.891,99.3964,93.8504,0.00459125,0.146738,20.8946,-325.52,0.509606,0.0,0.0
1260,314.75,58.5897,61.6561,120.849,99.3968,93.5038,0.00464245,0.146829,20.8943,-325.54,0.542484,0.0,0.0
1264,315.75,58.1686,61.8072,124.318,99.3911,93.703,0.00464753,0.146343,20.8945,-325.56,0.523088,0.0,0.0
1268,316.75,58.0748,61.6474,121.777,99.3895,93.2432,0.00462322,0.145532,20.8955,-325.56,0.566609,0.0,0.0
1272,317.75,57.9254,61.4101,118.959,99.4036,93.1716,0.00457113,0.144999,20.8964,-325.56,0.574688,0.0,0.0
1276,318.75,57.799,60.9678,121.135,99.3943,93.3012,0.00451338,0.143975,20.8976,-325.56,0.561516,0.0,0.0
1280,319.75,57.7659,61.167,122.334,99.4064,93.6549,0.00448446,0.143252,20.8983,-325.58,0.529018,0.0,0.0
1284,320.75,57.8043,60.5085,125.106,99.3968,93.2873,0.00447761,0.142985,20.8985,-325.57,0.563064,0.0,0.0
1288,321.75,57.6262,60.8879,121.158,99.4044,93.3033,0.00451604,0.142869,20.8987,-325.58,0.56222,0.0,0.0
1292,322.75,57.5811,60.6723,122.324,99.4004,93.0267,0.00453057,0.142783,20.8983,-325.61,0.588216,0.0,0.0
1296,323.75,57.2347,60.3705,120.519,99.4088,93.736,0.00451587,0.142604,20.8977,-325.63,0.52155,0.0,0.0
1300,324.75,57.2671,60.0352,121.632,99.4068,93.9286,0.00449158,0.142401,20.8973,-325.641,0.503145,0.0,0.0
1304,325.75,57.1223,60.2244,122.473,99.4068,93.5894,0.00446791,0.142132,20.8971,-325.661,0.535259,0.0,0.0
1308,326.75,57.1133,60.0419,124.657,99.4084,93.6923,0.00445205,0.141937,20.897,-325.65,0.525647,0.0,0.0
1312,327.75,56.9866,60.2609,122.653,99.4072,93.9245,0.00443537,0.14155,20.8968,-325.65,0.50357,0.0,0.0
1316,328.75,57.0589,60.0566,123.891,99.4068,93.3754,0.00441955,0.140699,20.8976,-325.65,0.555584,0.0,0.0
1320,329.75,56.7526,59.7286,120.999,99.4064,93.6396,0.00440505,0.140056,20.8986,-325.661,0.530461,0.0,0.0
1324,330.75,56.6374,59.7196,119.314,99.4137,93.6635,0.00437134,0.139258,20.9001,-325.671,0.528844,0.0,0.0
1328,331.75,56.6671,59.3859,118.993,99.4137,93.6256,0.0043244,0.138508,20.9013,-325.711,0.532434,0.0,0.0
1332,332.75,56.5163,59.8457,127.535,99.4161,93.4136,0.00427939,0.137981,20.9021,-325.731,0.552772,0.0,0.0
1336,333.75,56.3816,59.5538,122.289,99.4161,93.4457,0.00425491,0.13736,20.9027,-325.741,0.549721,0.0,0.0
1340,334.75,56.0071,59.4065,119.502,99.4201,93.8768,0.00424,0.136758,20.903,-325.731,0.509233,0.0,0.0
1344,335.75,56.1826,59.1608,124.497,99.4201,93.4906,0.00421426,0.136252,20.9032,-325.751,0.545819,0.0,0.0
1348,336.75,56.02,58.9647,123.561,99.4129,93.4494,0.00417215,0.135829,20.9034,-325.791,0.549082,0.0,0.0
1352,337.75,56.0682,59.0777,124.697,99.4141,93.7508,0.00411256,0.135267,20.9039,-325.761,0.520614,0.0,0.0
1356,338.75,56.0053,58.9087,120.265,99.4233,93.4943,0.00404329,0.134736,20.9047,-325.751,0.545754,0.0,0.0
1360,339.75,55.8376,59.1062,121.908,99.4125,93.3996,0.00399711,0.134181,20.9054,-325.771,0.553779,0.0,0.0
1364,340.75,55.7426,58.3963,121.103,99.4189,93.6647,0.00397652,0.133706,20.9066,-325.781,0.529195,0.0,0.0
1368,341.75,56.1208,58.7976,122.556,99.4068,93.5931,0.00396604,0.133229,20.9075,-325.801,0.534907,0.0,0.0
1372,342.75,55.8028,58.396,125.793,99.4117,93.1777,0.0039524,0.132865,20.909,-325.821,0.574819,0.0,0.0
1376,343.75,56.0587,58.4118,118.861,99.4052,93.6759,0.00395697,0.132422,20.9099,-325.821,0.52692,0.0,0.0
1380,344.75,55.7403,58.135,123.041,99.4137,93.4276,0.00398952,0.132009,20.9104,-325.841,0.551226,0.0,0.0
1384,345.75,55.2689,58.4988,119.765,99.4129,93.5165,0.00405872,0.131676,20.9109,-325.861,0.542711,0.0,0.0
1388,346.75,55.3423,58.1377,122.755,99.3996,93.216,0.00413597,0.131391,20.9112,-325.871,0.570094,0.0,0.0
1392,347.75,55.7134,58.3525,119.555,99.3923,93.6265,0.00419594,0.131259,20.9114,-325.841,0.530452,0.0,0.0
1396,348.75,55.6716,58.1901,121.921,99.3984,93.7117,0.00423428,0.131209,20.9115,-325.901,0.522916,0.0,0.0
1400,349.75,55.583,58.0206,121.386,99.3972,93.6746,0.00425464,0.131103,20.9116,-325.911,0.526319,0.0,0.0
1404,350.75,55.4373,57.9002,122.224,99.3883,93.3539,0.00428605,0.130751,20.9116,-325.941,0.555965,0.0,0.0
1408,351.75,55.7264,57.9077,124.11,99.3919,93.2696,0.00431199,0.13054,20.9117,-325.951,0.564317,0.0,0.0
1412,352.75,55.415,57.66,117.993,99.3891,93.8167,0.00432155,0.130677,20.9112,-325.941,0.512152,0.0,0.0
1416,353.75,55.459,57.9129,122.019,99.3879,93.8595,0.00432188,0.131054,20.9106,-325.921,0.507994,0.0,0.0
1420,354.75,54.6245,57.9556,120.144,99.4064,94.0826,0.00436205,0.131495,20.9097,-325.931,0.488572,0.0,0.0
1424,355.75,54.885,57.5075,128.39,99.396,93.4532,0.00442767,0.131933,20.9088,-325.931,0.54722,0.0,0.0
1428,356.75,54.7514,57.8231,122.492,99.3851,93.3321,0.00453964,0.132404,20.9082,-325.961,0.557753,0.0,0.0
1432,357.75,54.6469,57.601,120.483,99.3875,93.3581,0.00464704,0.132893,20.9078,-325.971,0.555502,0.0,0.0
1436,358.75,54.571,57.0084,122.976,99.3951,93.3684,0.00471751,0.133315,20.9075,-325.991,0.555207,0.0,0.0
1440,359.75,54.5117,57.3085,121.24,99.3891,93.9385,0.00474564,0.133591,20.9074,-326.001,0.500631,0.0,0.0
1444,360.75,54.3874,57.1314,121.66,99.3891,93.5396,0.00475067,0.133664,20.9075,-325.991,0.538403,0.0,0.0
1448,361.75,54.4208,57.035,121.096,99.3927,93.1572,0.00475331,0.133585,20.9081,-326.021,0.575091,0.0,0.0
1452,362.75,54.4956,56.9168,125.613,99.3879,93.4507,0.00475344,0.133445,20.9089,-326.031,0.546736,0.0,0.0
1456,363.75,54.5047,56.9171,121.322,99.3927,93.144,0.00476936,0.133318,20.9093,-326.021,0.576345,0.0,0.0
1460,364.75,54.2402,56.9077,122.294,99.3951,93.3185,0.00480654,0.133131,20.9096,-326.051,0.559943,0.0,0.0
1464,365.75,53.7638,56.773,122.001,99.3867,93.3399,0.00487025,0.13291,20.9098,-326.031,0.557153,0.0,0.0
1468,366.75,54.1373,56.012,120.55,99.3871,93.13,0.00494745,0.132707,20.91,-326.061,0.577176,0.0,0.0
1472,367.75,53.2697,56.1987,120.656,99.3887,93.8175,0.00501781,0.132458,20.91,-326.071,0.512037,0.0,0.0
1476,368.75,53.6101,56.0481,119.86,99.3811,93.8117,0.0050709,0.131993,20.911,-326.061,0.5119,0.0,0.0
1480,369.75,54.2,56.0746,117.644,99.3903,93.349,0.00511296,0.131375,20.9123,-326.061,0.556615,0.0,0.0
1484,370.75,53.4494,56.169,120.812,99.3803,93.5787,0.00515218,0.13062,20.9132,-326.091,0.533902,0.0,0.0
1488,371.75,53.5554,55.9611,124.462,99.3919,93.7121,0.00519389,0.129943,20.9138,-326.061,0.522302,0.0,0.0
1492,372.75,53.7354,56.1129,121.747,99.3887,93.3329,0.00524166,0.129421,20.915,-326.081,0.557999,0.0,0.0
1496,373.75,53.3532,55.7603,124.487,99.3843,93.3449,0.00527527,0.128916,20.9161,-326.081,0.556468,0.0,0.0
1500,374.75,53.5391,55.69,121.186,99.3879,93.545,0.00527012,0.128301,20.9168,-326.091,0.537786,0.0,0.0
1504,375.75,53.3771,55.8375,121.25,99.3891,93.1728,0.0052453,0.127419,20.9179,-326.111,0.573277,0.0,0.0
1508,376.75,53.2938,55.7219,121.646,99.3839,93.1069,0.00520822,0.126426,20.919,-326.141,0.579086,0.0,0.0
1512,377.75,53.1228,54.9968,120.8,99.4016,93.8187,0.0051658,0.125587,20.9203,-326.161,0.513071,0.0,0.0
1516,378.75,53.2301,55.8528,122.334,99.3927,93.4684,0.00512351,0.124864,20.9212,-326.171,0.545487,0.0,0.0
1520,379.75,52.9027,55.5066,122.811,99.3911,93.7446,0.00510499,0.124189,20.9225,-326.201,0.51915,0.0,0.0
1524,380.75,53.0386,55.5142,122.466,99.3931,93.8006,0.00512785,0.123544,20.9234,-326.171,0.514031,0.0,0.0
1528,381.75,52.4996,55.2261,121.648,99.3851,93.7327,0.00517339,0.123006,20.9246,-326.181,0.519742,0.0,0.0
1532,382.75,52.9957,55.1634,122.943,99.3919,93.4931,0.00523516,0.122516,20.9256,-326.201,0.54307,0.0,0.0
1536,383.75,52.9375,55.3204,121.571,99.3883,93.4375,0.00524888,0.122121,20.9262,-326.191,0.548024,0.0,0.0
1540,384.75,52.8157,54.9866,122.538,99.3827,93.8463,0.00525067,0.121779,20.9264,-326.211,0.508772,0.0,0.0
1544,385.75,52.4809,54.7933,113.675,99.3827,93.4671,0.00519649,0.121459,20.9267,-326.211,0.544706,0.0,0.0
1548,386.75,52.8306,55.5202,122.228,99.3903,93.7491,0.00513699,0.121159,20.9269,-326.221,0.518649,0.0,0.0
1552,387.75,52.5684,55.2157,125.063,99.3875,93.682,0.00511223,0.120947,20.9276,-326.241,0.524754,0.0,0.0
1556,388.75,52.4768,55.3762,121.672,99.4016,93.6236,0.00511342,0.120745,20.9283,-326.271,0.531551,0.0,0.0
1560,389.75,52.8647,55.1122,122.924,99.3871,94.0031,0.00511194,0.120462,20.9288,-326.221,0.494346,0.0,0.0
1564,390.75,52.8855,55.0092,124.272,99.3887,93.5758,0.00509845,0.1202,20.929,-326.241,0.53493,0.0,0.0
1568,391.75,52.6329,55.0546,121.795,99.3956,93.4165,0.00506695,0.119959,20.9292,-326.241,0.550665,0.0,0.0
1572,392.75,52.8701,54.5456,117.485,99.3951,93.6899,0.00502357,0.119742,20.9295,-326.271,0.524695,0.0,0.0
1576,393.75,52.9435,54.8563,120.073,99.3855,93.6084,0.00498116,0.119545,20.9298,-326.271,0.531558,0.0,0.0
1580,394.75,52.6055,54.9712,123.862,99.4016,93.4943,0.00495655,0.119365,20.93,-326.301,0.543815,0.0,0.0
1584,395.75,52.2155,54.788,120.235,99.4125,93.5676,0.00495271,0.119268,20.9302,-326.291,0.537831,0.0,0.0
1588,396.75,52.4158,54.77,123.501,99.3899,93.6462,0.00496785,0.119271,20.9303,-326.301,0.528363,0.0,0.0
1592,397.75,52.2911,54.7972,120.55,99.3915,94.1032,0.00500634,0.119315,20.9303,-326.311,0.485301,0.0,0.0
1596,398.75,52.5144,54.6178,122.145,99.3984,93.4906,0.0050482,0.119369,20.9304,-326.331,0.543879,0.0,0.0
1600,399.75,52.387,54.7278,121.304,99.3972,93.7734,0.0050745,0.11932,20.9304,-326.341,0.516961,0.0,0.0
1604,400.75,52.1841,54.3748,123.185,99.398,93.4783,0.00508008,0.119167,20.9309,-326.381,0.545016,0.0,0.0
1608,401.75,52.3882,54.6377,121.885,99.3972,94.0229,0.00506836,0.118939,20.9315,-326.391,0.493379,0.0,0.0
1612,402.75,52.4385,54.3252,122.509,99.4205,93.5598,0.00504981,0.118657,20.932,-326.381,0.539292,0.0,0.0
1616,403.75,52.4314,54.6159,120.946,99.4068,93.1975,0.00503156,0.118378,20.9323,-326.361,0.572506,0.0,0.0
1620,404.75,52.5063,54.0848,121.817,99.3903,93.7022,0.00502769,0.11814,20.9325,-326.401,0.523094,0.0,0.0
1624,405.75,51.7863,54.414,121.489,99.404,93.9142,0.00502837,0.117881,20.9326,-326.431,0.504255,0.0,0.0
1628,406.75,52.3274,54.1538,125.685,99.4,93.6936,0.00503787,0.117772,20.9327,-326.441,0.524776,0.0,0.0
1632,407.75,52.073,54.0103,122.708,99.4012,93.5248,0.00505531,0.117675,20.9327,-326.451,0.540887,0.0,0.0
1636,408.75,52.2997,53.9094,122.626,99.398,93.5441,0.00510065,0.117576,20.9321,-326.461,0.538763,0.0,0.0
1640,409.75,51.7814,54.5787,124.465,99.4044,93.4235,0.00514773,0.117512,20.9317,-326.451,0.550791,0.0,0.0
1644,410.75,51.0587,53.73,118.171,99.4072,93.5211,0.00518572,0.117489,20.9314,-326.461,0.541777,0.0,0.0
1648,411.75,51.7072,53.7939,120.583,99.3964,93.9854,0.00519163,0.117359,20.9319,-326.461,0.496844,0.0,0.0
1652,412.75,52.0821,54.2952,122.037,99.4,93.7726,0.00519483,0.11714,20.9324,-326.471,0.51729,0.0,0.0
1656,413.75,51.6733,54.1656,118.181,99.3992,93.7775,0.00519348,0.116998,20.9327,-326.501,0.51675,0.0,0.0
1660,414.75,52.3483,53.6011,121.431,99.3915,93.4371,0.00519701,0.116977,20.9328,-326.501,0.54835,0.0,0.0
1664,415.75,52.2691,53.9806,122.057,99.4028,93.5075,0.00520828,0.116946,20.9327,-326.511,0.542672,0.0,0.0
1668,416.75,52.1567,53.7267,122.896,99.4024,93.5787,0.00522506,0.116822,20.9326,-326.501,0.535878,0.0,0.0
1672,417.75,52.1267,54.0462,120.702,99.3935,93.9323,0.00524411,0.116759,20.9325,-326.471,0.50161,0.0,0.0
1676,418.75,51.6215,53.8485,120.521,99.3931,93.3461,0.00526342,0.11682,20.9325,-326.501,0.557141,0.0,0.0
1680,419.75,51.7408,54.1843,122.062,99.3951,94.3938,0.00528061,0.116835,20.9324,-326.501,0.458253,0.0,0.0
1684,420.75,51.9766,53.737,121.864,99.398,93.4453,0.00530262,0.116759,20.9324,-326.521,0.548143,0.0,0.0
1688,421.75,51.6202,54.1082,121.819,99.3887,93.5511,0.00533067,0.116626,20.9324,-326.521,0.537273,0.0,0.0
1692,422.75,51.7911,53.9943,121.351,99.3879,93.5964,0.00534969,0.116481,20.9324,-326.541,0.532906,0.0,0.0
1696,423.75,51.885,53.9198,124.865,99.3831,93.6565,0.00534608,0.116353,20.9324,-326.541,0.526776,0.0,0.0
1700,424.75,51.9709,53.9098,119.922,99.377,94.0381,0.00532946,0.116331,20.9324,-326.531,0.490143,0.0,0.0
1704,425.75,51.7465,53.2048,120.676,99.3782,93.5503,0.00529433,0.116335,20.9327,-326.561,0.536416,0.0,0.0
1708,426.75,51.8052,53.5438,122.663,99.3819,93.3268,0.00526902,0.116337,20.9329,-326.571,0.557974,0.0,0.0
1712,427.75,51.5386,53.8999,120.914,99.3774,93.4532,0.00525921,0.11628,20.933,-326.611,0.545567,0.0,0.0
1716,428.75,51.685,53.549,119.114,99.3899,93.6409,0.00526528,0.116169,20.9331,-326.621,0.52887,0.0,0.0
1720,429.75,51.429,53.5854,119.183,99.3646,93.6845,0.00529304,0.116037,20.9332,-326.581,0.522471,0.0,0.0
1724,430.75,51.5081,53.4948,121.414,99.371,93.8599,0.00532002,0.115962,20.9334,-326.591,0.506446,0.0,0.0
1728,431.75,51.3765,53.5314,121.607,99.3843,93.8545,0.00534484,0.115974,20.9339,-326.601,0.508138,0.0,0.0
1732,432.75,51.4374,53.7073,119.538,99.369,93.4536,0.00535396,0.116,20.9343,-326.601,0.544773,0.0,0.0
1736,433.75,51.9088,53.5543,125.524,99.3754,94.0665,0.00533762,0.115977,20.9345,-326.631,0.487319,0.0,0.0
1740,434.75,51.3741,53.6072,124.371,99.3617,93.575,0.00529831,0.115908,20.9346,-326.671,0.5326,0.0,0.0
1744,435.75,51.6889,53.6635,122.643,99.3569,93.4688,0.00525411,0.115871,20.9343,-326.661,0.542248,0.0,0.0
1748,436.75,51.1387,53.5074,124.506,99.3593,94.0147,0.00522401,0.115874,20.9337,-326.661,0.490777,0.0,0.0
1752,437.75,51.5032,53.8216,123.261,99.3666,93.6162,0.005206,0.115858,20.9333,-326.651,0.529127,0.0,0.0
1756,438.75,51.3122,53.5469,127.791,99.3549,94.0715,0.0051952,0.115697,20.9331,-326.691,0.48502,0.0,0.0
1760,439.75,51.1782,53.9515,122.05,99.3489,93.3906,0.00519718,0.115537,20.9329,-326.701,0.548961,0.0,0.0
1764,440.75,50.923,53.2522,122.902,99.3585,93.9883,0.00520074,0.115483,20.9334,-326.711,0.493194,0.0,0.0
1768,441.75,51.0326,53.2293,125.484,99.3601,93.505,0.0052138,0.115462,20.934,-326.701,0.539096,0.0,0.0
1772,442.75,51.4238,53.499,124.28,99.3545,93.5499,0.00525472,0.115488,20.9343,-326.711,0.534334,0.0,0.0
1776,443.75,51.8123,53.6511,122.746,99.3654,93.3577,0.00531107,0.11555,20.9345,-326.711,0.553564,0.0,0.0
1780,444.75,50.972,53.2584,123.636,99.3541,93.799,0.00535161,0.115689,20.9347,-326.751,0.510699,0.0,0.0
1784,445.75,51.2977,53.165,119.909,99.3473,93.5285,0.0053746,0.115897,20.9348,-326.741,0.535719,0.0,0.0
1788,446.75,51.0899,53.2289,123.375,99.3553,93.7763,0.00537455,0.11603,20.9337,-326.751,0.51295,0.0,0.0
1792,447.75,51.4449,52.9491,121.077,99.3509,93.3601,0.00536289,0.116062,20.933,-326.741,0.552036,0.0,0.0
1796,448.75,50.606,53.0729,121.255,99.3589,93.5437,0.00534976,0.115954,20.9334,-326.751,0.535316,0.0,0.0
1800,449.75,51.0339,52.9267,120.957,99.3493,93.4309,0.00533623,0.115741,20.9336,-326.762,0.545162,0.0,0.0
1804,450.75,51.4302,53.0142,123.964,99.3545,93.6689,0.00531602,0.115484,20.9338,-326.762,0.523053,0.0,0.0
1808,451.75,50.951,53.0342,123.191,99.3436,93.517,0.00529472,0.115222,20.9339,-326.772,0.536489,0.0,0.0
1812,452.75,51.2445,53.3186,122.394,99.3481,93.0946,0.00528432,0.11498,20.934,-326.781,0.577064,0.0,0.0
1816,453.75,51.187,53.5311,123.963,99.3408,93.7965,0.00527846,0.114851,20.934,-326.802,0.509747,0.0,0.0
1820,454.75,51.0091,53.1764,119.824,99.3509,93.1045,0.00529048,0.114801,20.9336,-326.781,0.576373,0.0,0.0
1824,455.75,50.8818,53.3059,122.808,99.3517,93.6149,0.0053072,0.114769,20.9333,-326.792,0.527914,0.0,0.0
1828,456.75,51.1082,53.2369,122.488,99.3529,93.2856,0.00532591,0.114747,20.9332,-326.792,0.559302,0.0,0.0
1832,457.75,51.0071,52.6447,119.951,99.3465,93.8438,0.00533426,0.114749,20.9333,-326.802,0.505771,0.0,0.0
1836,458.75,50.8765,53.336,122.598,99.3448,93.5676,0.00532577,0.114824,20.9334,-326.822,0.531792,0.0,0.0
1840,459.75,51.2063,52.9248,123.151,99.3489,93.8377,0.00531004,0.114935,20.9334,-326.822,0.506571,0.0,0.0
1844,460.75,50.8646,53.2666,124.707,99.3372,93.4824,0.0053033,0.114934,20.9334,-326.842,0.539196,0.0,0.0
1848,461.75,51.0314,52.995,123.439,99.3368,93.3408,0.0053224,0.114934,20.9332,-326.842,0.552616,0.0,0.0
1852,462.75,50.9404,53.2509,128.416,99.3396,94.1954,0.00537201,0.115019,20.9325,-326.842,0.471969,0.0,0.0
1856,463.75,50.5154,52.8604,120.126,99.3416,93.6203,0.00542857,0.115143,20.9323,-326.842,0.526507,0.0,0.0
1860,464.75,50.8254,52.8541,123.172,99.342,93.5812,0.00547405,0.115123,20.9324,-326.852,0.530252,0.0,0.0
1864,465.75,50.6773,52.6354,124.613,99.3481,93.6701,0.00549764,0.115007,20.9322,-326.892,0.522361,0.0,0.0
1868,466.75,50.7314,52.5198,123.727,99.338,93.2691,0.00549541,0.114829,20.9326,-326.912,0.559539,0.0,0.0
1872,467.75,50.9871,52.694,122.036,99.3537,93.4256,0.00541908,0.114651,20.9329,-326.902,0.546066,0.0,0.0
1876,468.75,50.7975,52.63,127.67,99.3364,93.0571,0.00528969,0.114478,20.9331,-326.872,0.579594,0.0,0.0
1880,469.75,51.1845,52.4248,124.42,99.336,93.7096,0.00514058,0.114241,20.9332,-326.912,0.517539,0.0,0.0
1884,470.75,50.5489,53.1239,123.32,99.3308,94.3769,0.00502298,0.113979,20.9333,-326.922,0.454088,0.0,0.0
1888,471.75,50.7451,52.7666,120.398,99.3304,93.4671,0.00497054,0.113801,20.9334,-326.942,0.540031,0.0,0.0
1892,472.75,50.6284,52.3799,125.005,99.3336,93.8796,0.00497901,0.113756,20.9334,-326.912,0.501234,0.0,0.0
1896,473.75,51.018,52.9535,121.536,99.34,93.5042,,0.113906,,-326.912,0.537377,0.0,0.0
1900,474.75,50.8287,52.8398,125.508,99.3448,94.4128,,0.114106,,-326.932,0.451978,0.0,0.0
1904,475.75,50.6571,52.6548,123.704,99.3714,93.4783,,0.114289,,-326.942,0.542644,0.0,0.0
1908,476.75,50.8512,51.8511,123.353,99.3803,93.661,,,,-326.932,0.526095,0.0,0.0
1912,477.75,50.7511,52.7549,122.878,99.3819,93.3898,,,,-326.952,0.551986,0.0,0.0
1916,478.75,50.6001,52.7635,125.358,99.3891,93.9809,,,,-326.962,0.496625,0.0,0.0
1920,479.75,50.4073,52.4053,121.782,99.4209,93.7096,,,,-326.982,0.525123,0.0,0.0
1924,480.75,50.3446,52.5244,123.842,99.4145,93.7491,,,,-326.992,0.520805,0.0,0.0
1928,481.75,50.8175,52.5732,120.879,99.4225,93.3976,,,,-326.982,0.554872,0.0,0.0
1932,482.75,50.7074,52.4486,124.006,99.4358,93.8677,,,,-326.992,0.511492,0.0,0.0
1936,483.75,50.1739,52.0512,125.008,99.4519,93.5104,,,,-327.012,0.546782,0.0,0.0
1938,484.25,50.6368,52.5404,123.068,99.4527,93.5816,,,,-327.022,0.540096,0.0,0.0