File: 01_Data/Wool_Rug/Cone/Wool_Rug_Cone_HF75Scan_220324_R1.csv
Names,Time,Stack TC,Smoke TC,Exh Press,Smoke Comp,Smoke Meas,CO Meter,CO2 Meter,O2 Meter,Sample Mass,Ext Coeff,Start Test,Flame Verif
Chan Gain,,500,500,1,1,1,1,1,1,1,1,1.0,1.0
Offset,,0,0,0.129198,0,0,0,0,0,0,0,0.0,0.0
Gain,,1,1,25.011,13.1874,13.4895,1,1,1,1.00089,1.01187,1.0,1.0
Units,sec,C,C,Pa,%,%,%,%,%,g,/m,,
Baseline,,44.9962,46.8789,124.889,99.4143,93.2516,0.000787036,0.0733297,20.9818,-836.391,0.568053,,
4,0.75,43.4992,45.5821,126.415,99.6833,89.5954,0.00189166,0.103769,20.9299,-326.511,0.947025,0.0,0.0
8,1.75,42.9494,44.8168,103.974,99.6837,92.6483,0.002712,0.151732,20.8862,-326.551,0.64965,0.0,1.0
12,2.75,43.1493,45.0297,100.01,99.6704,90.3455,0.00389175,0.244625,20.8025,-326.872,0.871879,0.0,1.0
16,3.75,43.5768,45.2963,93.5489,99.6652,86.1341,0.0053396,0.347743,20.6462,-327.212,1.29512,0.0,1.0
20,4.75,44.3004,46.011,92.5207,99.6571,84.4624,0.00684831,0.484358,20.435,-327.342,1.46837,0.0,1.0
24,5.75,47.359,49.0736,94.2076,99.6447,82.2472,0.00817719,0.605054,20.2367,-327.612,1.70315,0.0,1.0
28,6.75,49.1466,50.7039,99.6238,99.627,82.7198,0.00949042,0.700068,20.0798,-327.792,1.65072,0.0,1.0
32,7.75,50.3999,52.5845,98.2774,99.6117,81.9446,0.0106018,0.769446,19.974,-328.033,1.73293,0.0,1.0
36,8.75,52.1851,54.6175,93.2779,99.596,83.8745,0.0114566,0.812947,19.9045,-328.203,1.52491,0.0,0.0
40,9.75,54.0564,56.7003,97.2294,99.5883,82.9952,0.0120285,0.835051,19.8618,-328.343,1.61778,0.0,0.0
44,10.75,55.4473,58.4102,101.783,99.575,80.8784,0.0123118,0.846189,19.8434,-328.603,1.84591,0.0,0.0
48,11.75,56.8214,59.9236,104.678,99.5622,83.779,0.0124043,0.84361,19.8426,-328.803,1.53201,0.0,0.0
52,12.75,58.3406,61.986,97.7721,99.5513,84.5085,0.012394,0.834374,19.853,-328.983,1.45409,0.0,0.0
56,13.75,59.7161,63.1849,101.93,99.5437,82.9215,0.0123354,0.819993,19.8735,-329.144,1.62168,0.0,0.0
60,14.75,60.7367,64.282,100.912,99.5336,83.886,0.012242,0.803144,19.8957,-329.324,1.51813,0.0,0.0
64,15.75,61.5478,66.0156,101.646,99.5263,81.7408,0.0120959,0.785678,19.9157,-329.474,1.74742,0.0,0.0
68,16.75,62.4352,67.1675,101.514,99.4929,83.5942,0.0119307,0.766303,19.9369,-329.604,1.54544,0.0,0.0
72,17.75,63.5706,68.0683,103.387,99.4849,82.8108,0.0117331,0.74953,19.9627,-329.814,1.6283,0.0,0.0
76,18.75,64.5842,69.1894,98.9292,99.4752,82.6181,0.0115268,0.732956,19.9884,-329.944,1.64811,0.0,0.0
80,19.75,65.3062,70.0795,103.602,99.4583,81.8351,0.0113349,0.718231,20.0114,-330.124,1.73112,0.0,0.0
84,20.75,65.9381,71.1464,102.959,99.4463,83.3369,0.0111552,0.70603,20.0327,-330.225,1.56864,0.0,0.0
88,21.75,66.5851,71.221,105.498,99.4241,84.3874,0.0110122,0.694536,20.0517,-330.405,1.45547,0.0,0.0
92,22.75,67.609,72.5052,104.11,99.4096,82.8606,0.0107858,0.682111,20.0712,-330.555,1.61624,0.0,0.0
96,23.75,68.0017,73.1808,111.356,99.3875,82.7445,0.0105096,0.668705,20.0859,-330.675,1.62671,0.0,0.0
100,24.75,68.805,73.793,108.128,99.3593,82.3592,0.0102724,0.653959,20.1028,-330.815,1.66563,0.0,0.0
104,25.75,69.2851,74.1321,105.12,99.3505,83.5316,0.00995625,0.641278,20.1217,-330.985,1.53937,0.0,0.0
108,26.75,69.9672,75.4093,107.473,99.3255,84.8201,0.0096696,0.62879,20.1438,-331.145,1.40127,0.0,0.0
112,27.75,70.0274,75.2584,111.216,99.3118,83.8436,0.00943238,0.615534,20.1704,-331.236,1.50282,0.0,0.0
116,28.75,70.5739,75.969,101.675,99.3098,84.9547,0.00922135,0.599523,20.1942,-331.376,1.38579,0.0,0.0
120,29.75,71.3584,76.6771,107.451,99.2784,84.0334,0.00904212,0.585818,20.2133,-331.526,1.47977,0.0,0.0
124,30.75,71.7239,77.3534,108.156,99.2668,84.0141,0.00885969,0.574645,20.2284,-331.656,1.48077,0.0,0.0
128,31.75,71.9893,77.7083,103.521,99.2305,84.3804,0.00867608,0.564745,20.2431,-331.816,1.4389,0.0,0.0
132,32.75,72.4564,78.0537,105.369,99.2149,84.9391,0.00848151,0.555054,20.2589,-331.946,1.37893,0.0,0.0
136,33.75,72.4058,78.1424,107.676,99.1754,85.4656,0.00825925,0.544991,20.2733,-332.076,1.32055,0.0,0.0
140,34.75,73.4535,79.004,104.813,99.169,85.4804,0.00802512,0.5359,20.286,-332.206,1.31844,0.0,0.0
144,35.75,73.0888,79.1746,106.06,99.1412,86.2782,0.00777397,0.527828,20.2999,-332.336,1.23349,0.0,0.0
148,36.75,73.2843,78.8481,107.17,99.1086,86.7241,0.00752444,0.519998,20.3108,-332.457,1.18482,0.0,0.0
152,37.75,73.7177,79.3181,112.206,99.0861,84.8263,0.0073145,0.513518,20.3203,-332.617,1.3792,0.0,0.0
156,38.75,74.0185,79.7364,109.627,99.0547,84.9292,0.00716036,0.507958,20.3275,-332.727,1.36562,0.0,0.0
160,39.75,74.0635,79.9677,107.858,99.0366,86.7796,0.00704474,0.503103,20.3338,-332.847,1.17268,0.0,0.0
164,40.75,74.1091,80.1836,105.171,98.9963,86.9916,0.00695619,0.497382,20.342,-332.987,1.14742,0.0,0.0
168,41.75,74.8745,80.6338,107.008,98.9899,85.634,0.00687935,0.491494,20.3529,-333.107,1.28646,0.0,0.0
172,42.75,75.1029,81.3127,105.052,98.946,86.8155,0.00680676,0.485248,20.3623,-333.237,1.1609,0.0,0.0
176,43.75,75.4216,81.5171,107.087,98.9472,87.6116,0.00672402,0.480573,20.3694,-333.377,1.07998,0.0,0.0
180,44.75,75.3873,81.4623,110.044,98.9456,88.2518,0.00665517,0.477345,20.3739,-333.528,1.01522,0.0,0.0
184,45.75,75.515,81.8351,109.734,98.952,86.3684,0.00661539,0.474974,20.3776,-333.678,1.20727,0.0,0.0
188,46.75,75.7741,82.1046,110.196,98.9537,86.9484,0.0065839,0.472979,20.3802,-333.768,1.148,0.0,0.0
192,47.75,76.1388,82.3228,110.204,98.9569,86.6146,0.00652293,0.470733,20.3828,-333.908,1.18244,0.0,0.0
196,48.75,75.8397,82.0368,110.691,98.9681,85.783,0.00642642,0.468253,20.3868,-334.048,1.26908,0.0,0.0
200,49.75,76.2631,82.5528,107.211,98.9851,86.6623,0.00630495,0.465428,20.3918,-334.158,1.18007,0.0,0.0
204,50.75,76.4884,82.4774,107.891,98.981,86.7858,0.00615176,0.462372,20.3958,-334.318,1.16707,0.0,0.0
208,51.75,76.7354,82.8669,109.032,98.9778,87.5042,0.00600103,0.459244,20.3999,-334.418,1.09362,0.0,0.0
212,52.75,76.6995,83.0615,108.263,98.9875,87.5618,0.00589753,0.45626,20.4055,-334.498,1.08864,0.0,0.0
216,53.75,77.1037,83.0022,108.691,99.0003,86.4363,0.00585745,0.453437,20.4106,-334.669,1.20462,0.0,0.0
220,54.75,76.9496,83.1591,111.526,98.9931,88.36,0.00586885,0.450653,20.4156,-334.799,1.00859,0.0,0.0
224,55.75,77.2025,83.7293,109.189,98.9931,87.2852,0.00589315,0.448034,20.4196,-334.909,1.11723,0.0,0.0
228,56.75,77.0086,83.908,110.237,99.006,87.887,0.00593018,0.445438,20.4222,-335.029,1.05739,0.0,0.0
232,57.75,77.4867,83.6527,107.487,99.0112,87.4544,0.00596357,0.442844,20.4262,-335.109,1.10167,0.0,0.0
236,58.75,77.4976,83.8573,109.335,99.0132,86.3721,0.00596955,0.439827,20.4308,-335.269,1.21237,0.0,0.0
240,59.75,77.5287,84.2466,107.536,99.0217,87.5939,0.00594121,0.437137,20.4354,-335.389,1.08845,0.0,0.0
244,60.75,77.4763,83.9402,106.299,99.0213,87.563,0.00588169,0.434688,20.44,-335.509,1.09154,0.0,0.0
248,61.75,77.2093,84.2308,110.819,99.0277,87.5309,0.00579458,0.432689,20.4436,-335.589,1.09538,0.0,0.0
252,62.75,77.8015,84.3421,108.949,99.0346,87.7689,0.00567675,0.430887,20.447,-335.72,1.07189,0.0,0.0
256,63.75,77.5898,84.4707,106.99,99.0402,87.3025,0.00557805,0.429055,20.4495,-335.81,1.11969,0.0,0.0
260,64.75,77.4992,84.769,108.274,99.043,85.883,0.00549663,0.427346,20.4528,-335.92,1.26545,0.0,0.0
264,65.75,77.6515,84.3475,110.204,99.045,86.9986,0.00544964,0.42517,20.4566,-336.04,1.15107,0.0,0.0
268,66.75,77.9081,84.6968,109.687,99.049,87.216,0.00541187,0.42306,20.4597,-336.15,1.12928,0.0,0.0
272,67.75,77.9919,84.3565,110.009,99.0519,87.8994,0.00536018,0.421676,20.4621,-336.29,1.06026,0.0,0.0
276,68.75,77.5824,84.8758,107.927,99.0587,87.9018,0.00527664,0.420665,20.4646,-336.37,1.06062,0.0,0.0
280,69.75,77.8894,84.5269,110.727,99.0752,88.5552,0.00517119,0.419686,20.4662,-336.5,0.996373,0.0,0.0
284,70.75,77.6255,84.6944,113.07,99.0708,87.9047,0.00509096,0.418733,20.4692,-336.59,1.06141,0.0,0.0
288,71.75,78.1781,84.7792,114.401,99.0792,88.1031,0.00497771,0.417029,20.4724,-336.72,1.04216,0.0,0.0
292,72.75,77.5654,84.4465,110.983,99.0804,88.1587,0.00487819,0.41556,20.4761,-336.82,1.03667,0.0,0.0
296,73.75,77.9622,84.9903,108.533,99.0861,87.4721,0.00480426,0.414355,20.4792,-336.911,1.10658,0.0,0.0
300,74.75,77.9753,85.0944,109.54,99.0881,88.5288,0.0047432,0.412974,20.4819,-337.031,1.00017,0.0,0.0
304,75.75,77.5722,84.8703,108.366,99.0998,88.2048,0.00469083,0.410962,20.4859,-337.151,1.03376,0.0,0.0
308,76.75,77.6476,84.853,112.095,99.1038,88.1785,0.0046455,0.408812,20.4896,-337.251,1.03677,0.0,0.0
312,77.75,78.0019,84.5764,108.359,99.1042,87.7915,0.00460134,0.406667,20.4929,-337.371,1.07584,0.0,0.0
316,78.75,78.1317,84.423,116.216,99.1134,87.9521,0.00454567,0.404464,20.4959,-337.501,1.06045,0.0,0.0
320,79.75,77.7092,84.5493,110.11,99.1146,88.379,0.00449129,0.401987,20.5,-337.561,1.01758,0.0,0.0
324,80.75,77.6357,84.9688,110.147,99.1074,88.9261,0.00444651,0.399699,20.5042,-337.681,0.962158,0.0,0.0
328,81.75,77.7865,84.3359,112.131,99.115,88.4778,0.00440834,0.396817,20.5088,-337.741,1.0077,0.0,0.0
332,82.75,77.7824,84.9688,111.52,99.1235,89.0076,0.00436655,0.394195,20.5138,-337.851,0.955468,0.0,0.0
336,83.75,77.6974,84.4817,112.489,99.1307,88.9948,0.00431557,0.391867,20.5176,-337.911,0.957388,0.0,0.0
340,84.75,77.5127,84.3891,112.622,99.134,89.8021,0.00425173,0.390128,20.5209,-338.022,0.877524,0.0,0.0
344,85.75,77.816,84.6913,113.231,99.1376,88.9104,0.00416722,0.388749,20.5237,-338.142,0.966423,0.0,0.0
348,86.75,77.293,85.006,110.859,99.1488,89.094,0.00410209,0.387064,20.5266,-338.282,0.94912,0.0,0.0
352,87.75,77.7234,84.5795,110.528,99.1557,88.8828,0.00408647,0.384933,20.5301,-338.322,0.970798,0.0,0.0
356,88.75,77.5154,84.6663,112.987,99.1569,89.3896,0.00410826,0.382396,20.5349,-338.422,0.920442,0.0,0.0
360,89.75,77.4898,84.4293,114.566,99.1641,88.4189,0.00413279,0.379417,20.5404,-338.532,1.01801,0.0,0.0
364,90.75,77.4465,84.5915,112.001,99.1649,89.6811,0.00413741,0.377016,20.5448,-338.632,0.892269,0.0,0.0
368,91.75,77.2474,84.3438,108.72,99.1774,88.9705,0.00414168,0.375231,20.5476,-338.732,0.96399,0.0,0.0
372,92.75,77.2141,84.4029,110.581,99.1863,89.3937,0.00415568,0.373819,20.5494,-338.792,0.922663,0.0,0.0
376,93.75,77.1369,84.0217,109.989,99.1911,89.1603,0.00419193,0.372534,20.5509,-338.902,0.946302,0.0,0.0
380,94.75,76.6983,84.371,111.599,99.1959,88.9956,0.00421198,0.371242,20.5524,-339.022,0.963142,0.0,0.0
384,95.75,76.8548,83.8788,112.361,99.2032,89.4304,0.00419594,0.369994,20.5537,-339.072,0.920539,0.0,0.0
388,96.75,77.1879,84.174,111.652,99.2108,88.9257,0.00413186,0.368947,20.5553,-339.153,0.971456,0.0,0.0
392,97.75,76.637,84.3918,109.707,99.2229,89.1978,0.00404396,0.368119,20.5569,-339.233,0.945418,0.0,0.0
396,98.75,76.8238,83.7143,111.213,99.2261,89.6428,0.00393839,0.36706,20.5588,-339.333,0.901533,0.0,0.0
400,99.75,76.6678,83.7049,111.469,99.2346,89.129,0.003839,0.36553,20.5613,-339.413,0.953306,0.0,0.0
404,100.75,76.7687,83.8748,109.614,99.2438,89.1335,0.003771,0.363603,20.565,-339.513,0.953682,0.0,0.0
408,101.75,76.8068,83.6003,116.546,99.2583,89.3719,0.00373527,0.361617,20.5684,-339.613,0.931274,0.0,0.0
412,102.75,76.8375,83.6926,112.667,99.2599,89.1545,0.00371662,0.35978,20.5711,-339.683,0.953032,0.0,0.0
416,103.75,76.5269,83.4317,109.947,99.2772,89.8997,0.00369344,0.358702,20.5732,-339.803,0.880704,0.0,0.0
420,104.75,76.2175,83.3892,112.279,99.2913,89.1537,0.00365279,0.358291,20.5753,-339.923,0.95592,0.0,0.0
424,105.75,76.5472,83.5239,113.834,99.2994,89.637,0.00359119,0.357636,20.5773,-339.993,0.908653,0.0,0.0
428,106.75,76.6454,83.6926,111.819,99.3082,89.4896,0.00354035,0.356375,20.5799,-340.083,0.92405,0.0,0.0
432,107.75,76.2747,83.0516,110.269,99.3167,88.8157,0.00347386,0.355035,20.5828,-340.153,0.9919,0.0,0.0
436,108.75,76.2967,83.3803,110.46,99.3155,89.1101,0.00342003,0.353871,20.5854,-340.224,0.962424,0.0,0.0
440,109.75,76.002,83.508,116.746,99.3376,89.092,0.00338442,0.352868,20.5872,-340.354,0.966207,0.0,0.0
444,110.75,76.1713,83.111,110.384,99.3469,89.716,0.00336779,0.351718,20.5888,-340.404,0.905073,0.0,0.0
448,111.75,75.5654,83.0038,112.332,99.3456,89.2743,0.00335467,0.350483,20.591,-340.504,0.948775,0.0,0.0
452,112.75,75.8945,82.8986,112.203,99.3537,89.2966,0.00333332,0.349082,20.5932,-340.564,0.947284,0.0,0.0
456,113.75,75.8054,82.9635,113.428,99.3682,89.2735,0.0033034,0.348001,20.5951,-340.684,0.950871,0.0,0.0
460,114.75,75.1961,83.0097,114.164,99.373,89.2183,0.00329009,0.347085,20.5967,-340.774,0.956788,0.0,0.0
464,115.75,75.0764,83.6238,115.375,99.3911,89.3443,0.00330722,0.346522,20.5978,-340.834,0.945882,0.0,0.0
468,116.75,76.1932,81.9443,114.918,99.3976,89.0047,0.00335834,0.346192,20.5985,-340.904,0.980262,0.0,0.0
472,117.75,76.3195,81.61,116.765,99.4056,89.0014,0.00341083,0.345794,20.599,-340.974,0.98131,0.0,0.0
476,118.75,75.6256,82.4695,114.214,99.41,89.0957,0.00349151,0.345095,20.6006,-341.054,0.972309,0.0,0.0
480,119.75,75.7232,82.1241,113.827,99.4173,89.1154,0.00358733,0.344281,20.6024,-341.144,0.970987,0.0,0.0
484,120.75,75.9124,82.1813,114.234,99.4314,89.0183,0.00367383,0.343446,20.6035,-341.234,0.981925,0.0,0.0
488,121.75,75.1217,81.9242,113.95,99.431,88.5008,0.00375594,0.342748,20.6042,-341.274,1.03364,0.0,0.0
492,122.75,75.2607,81.9972,111.433,99.4394,89.1936,0.00381944,0.342365,20.6046,-341.375,0.965175,0.0,0.0
496,123.75,75.0213,81.8795,111.429,99.4479,88.6091,0.00387752,0.342339,20.6056,-341.435,1.02429,0.0,0.0
500,124.75,75.0381,81.3328,110.269,99.4535,88.6626,0.00393038,0.341912,20.6071,-341.535,1.01944,0.0,0.0
504,125.75,75.0488,81.8938,110.89,99.476,88.556,0.00396788,0.34096,20.6089,-341.605,1.03213,0.0,0.0
508,126.75,75.0716,81.3957,112.284,99.4688,88.7672,0.0039877,0.339971,20.6109,-341.675,1.01034,0.0,0.0
512,127.75,74.8636,81.3167,110.308,99.4736,88.4284,0.00396697,0.339111,20.6122,-341.785,1.04471,0.0,0.0
516,128.75,74.7009,81.4797,110.553,99.4849,87.5589,0.00389996,0.338134,20.6131,-341.835,1.13342,0.0,0.0
520,129.75,74.0819,81.5763,112.622,99.4853,88.8989,0.00380919,0.337312,20.6136,-341.875,0.99865,0.0,0.0
524,130.75,74.5439,81.2903,114.693,99.501,88.1653,0.00369904,0.33681,20.6141,-341.985,1.0736,0.0,0.0
528,131.75,74.4104,81.2859,117.186,99.5163,89.157,0.00360371,0.336789,20.6148,-342.055,0.975681,0.0,0.0
532,132.75,74.3172,80.8449,110.818,99.5082,87.4609,0.00354433,0.336921,20.6159,-342.125,1.14544,0.0,0.0
536,133.75,74.1327,80.7557,110.819,99.5094,88.3732,0.00352289,0.336572,20.6166,-342.175,1.05345,0.0,0.0
540,134.75,74.1629,80.7008,115.34,99.5155,89.0339,0.003523,0.33567,20.6179,-342.255,0.987871,0.0,0.0
544,135.75,74.0197,80.6441,117.439,99.5207,88.4753,0.00353226,0.334699,20.6192,-342.345,1.04421,0.0,0.0
548,136.75,73.5298,80.6527,112.125,99.5219,88.0566,0.00355041,0.334159,20.6204,-342.415,1.08641,0.0,0.0
552,137.75,73.4622,80.1085,114.528,99.5235,88.1451,0.00357266,0.333967,20.6211,-342.496,1.07764,0.0,0.0
556,138.75,73.8103,80.2732,115.862,99.5465,87.8154,0.00357982,0.334032,20.6216,-342.566,1.11295,0.0,0.0
560,139.75,73.5958,80.0543,111.764,99.538,87.533,0.00356797,0.33415,20.622,-342.646,1.14079,0.0,0.0
564,140.75,73.7851,79.6833,112.819,99.5392,87.6721,0.00355639,0.334252,20.6222,-342.686,1.1268,0.0,0.0
568,141.75,73.4199,79.7287,112.223,99.5803,88.4189,0.00357713,0.334134,20.6228,-342.786,1.05518,0.0,0.0
572,142.75,73.5125,79.8067,112.458,99.5481,88.1221,0.00361701,0.333808,20.6235,-342.846,1.08215,0.0,0.0
576,143.75,73.2503,79.7893,111.478,99.5501,88.6931,0.00367267,0.333441,20.6242,-342.916,1.025,0.0,0.0
580,144.75,73.2609,79.7868,114.895,99.5598,86.9583,0.00374758,0.332717,20.6253,-343.026,1.2012,0.0,0.0
584,145.75,72.8532,79.7339,113.14,99.5533,88.0006,0.00380275,0.331974,20.6276,-343.066,1.09486,0.0,0.0
588,146.75,73.3563,79.3982,116.496,99.5549,88.3246,0.00383023,0.331136,20.6291,-343.146,1.06239,0.0,0.0
592,147.75,73.1712,79.4638,116.299,99.5581,87.9862,0.00383868,0.330425,20.6301,-343.206,1.09674,0.0,0.0
596,148.75,72.9638,79.4485,115.808,99.5614,88.05,0.00382648,0.329733,20.6312,-343.256,1.0906,0.0,0.0
600,149.75,73.0709,79.3488,115.13,99.563,88.3818,0.00379066,0.328999,20.6322,-343.376,1.05735,0.0,0.0
604,150.75,72.5188,79.5006,112.315,99.569,87.673,0.0037323,0.32833,20.6332,-343.426,1.12937,0.0,0.0
608,151.75,72.8717,79.2126,117.684,99.561,88.1591,0.00365713,0.327403,20.6349,-343.536,1.07957,0.0,0.0
612,152.75,72.7761,79.1376,114.959,99.5602,88.155,0.00359303,0.326135,20.6374,-343.587,1.07991,0.0,0.0
616,153.75,72.8241,78.7778,116.206,99.563,89.057,0.00354795,0.324747,20.6399,-343.637,0.989809,0.0,0.0
620,154.75,72.6173,78.8365,115.385,99.5557,87.3539,0.00352512,0.323,20.6427,-343.717,1.16055,0.0,0.0
624,155.75,72.5158,77.2405,113.354,99.5602,88.4819,0.00350518,0.321421,20.6454,-343.777,1.04706,0.0,0.0
628,156.75,72.5649,79.186,113.276,99.5626,88.1764,0.00349179,0.319744,20.6483,-343.847,1.07797,0.0,0.0
632,157.75,73.6063,78.7315,115.094,99.5521,87.7755,0.00349969,0.318243,20.6507,-343.927,1.11749,0.0,0.0
636,158.75,72.074,78.6803,114.645,99.5529,88.5053,0.00353332,0.316624,20.6534,-344.007,1.04406,0.0,0.0
640,159.75,72.3432,78.4318,114.642,99.5493,88.1031,0.0035645,0.315303,20.6552,-344.037,1.08417,0.0,0.0
644,160.75,72.2755,78.3084,114.537,99.5461,88.2699,0.0035666,0.314464,20.6563,-344.087,1.0671,0.0,0.0
648,161.75,72.2863,78.655,112.702,99.5457,88.5272,0.00353301,0.313943,20.6579,-344.177,1.04123,0.0,0.0
652,162.75,73.3305,78.3691,110.696,99.5473,88.5807,0.00345965,0.313397,20.6588,-344.247,1.03601,0.0,0.0
656,163.75,72.1853,77.9337,114.216,99.5376,88.162,0.00339064,0.312779,20.6592,-344.287,1.0772,0.0,0.0
660,164.75,72.0746,77.7408,113.488,99.5364,88.0052,0.00334345,0.312063,20.6603,-344.357,1.09289,0.0,0.0
664,165.75,71.9734,78.4815,113.881,99.5336,88.3678,0.00330127,0.311185,20.6617,-344.427,1.05614,0.0,0.0
668,166.75,73.003,77.9756,115.118,99.5416,88.7194,0.00325948,0.310119,20.6634,-344.487,1.02161,0.0,0.0
672,167.75,71.892,77.6418,117.485,99.5239,88.6647,0.00323765,0.308832,20.6654,-344.547,1.02552,0.0,0.0
676,168.75,71.6785,78.2863,113.817,99.5251,88.3621,0.00324084,0.30764,20.6684,-344.607,1.05597,0.0,0.0
680,169.75,71.6258,77.0222,108.002,99.5171,88.577,0.00331017,0.306482,20.6704,-344.677,1.03369,0.0,0.0
684,170.75,71.3216,77.6756,116.356,99.5167,88.6939,0.00342514,0.305384,20.6721,-344.718,1.02194,0.0,0.0
688,171.75,71.4374,77.5539,118.3,99.5074,88.8293,0.0035293,0.304469,20.6736,-344.768,1.00757,0.0,0.0
692,172.75,71.2277,77.4189,117.285,99.5195,88.9639,0.00359732,0.30354,20.675,-344.818,0.99521,0.0,0.0
696,173.75,71.2993,78.2795,116.301,99.5074,88.6754,0.00361379,0.302384,20.6763,-344.868,1.02297,0.0,0.0
700,174.75,70.5872,76.9955,111.447,99.497,87.9747,0.00360906,0.301281,20.6781,-344.938,1.09245,0.0,0.0
704,175.75,71.1636,76.7155,113.486,99.4986,89.0636,0.00360357,0.299987,20.6799,-345.008,0.98341,0.0,0.0
708,176.75,71.0387,76.9894,113.139,99.4921,89.0187,0.00358873,0.298425,20.6818,-345.018,0.987308,0.0,0.0
712,177.75,70.7762,76.6757,115.967,99.4825,88.6922,0.00355427,0.296803,20.6838,-345.098,1.01906,0.0,0.0
716,178.75,69.5468,77.526,116.475,99.4712,88.9289,0.00350264,0.295425,20.6862,-345.148,0.994393,0.0,0.0
720,179.75,70.9956,76.8862,115.949,99.4728,88.8725,0.00346872,0.293847,20.6887,-345.218,1.00017,0.0,0.0
724,180.75,70.6177,76.5318,115.941,99.4595,89.1253,0.00343557,0.291919,20.6922,-345.278,0.973775,0.0,0.0
728,181.75,69.9861,76.396,116.971,99.4539,89.5452,0.00341335,0.288893,20.6953,-345.318,0.931551,0.0,0.0
732,182.75,70.5973,76.5907,116.075,99.4616,89.7778,0.00338701,0.287029,20.6985,-345.398,0.909208,0.0,0.0
736,183.75,70.4732,76.3537,115.006,99.4563,89.7391,0.00334108,0.284681,20.7022,-345.418,0.912568,0.0,0.0
740,184.75,70.2601,76.2096,116.031,99.4467,89.5728,0.00326395,0.28207,20.7059,-345.438,0.928171,0.0,0.0
744,185.75,70.0336,76.0065,117.925,99.4338,89.56,0.0031863,0.279582,20.7099,-345.498,0.928287,0.0,0.0
748,186.75,70.2382,75.431,117.059,99.4197,89.5781,0.00311417,0.277307,20.7131,-345.558,0.925234,0.0,0.0
752,187.75,69.4205,76.2148,113.886,99.4177,89.4242,0.00306309,0.27506,20.7158,-345.598,0.940323,0.0,0.0
756,188.75,69.9605,75.5595,115.299,99.4068,89.6168,0.00303956,0.272997,20.7185,-345.638,0.920251,0.0,0.0
760,189.75,69.5401,75.4267,116.661,99.3992,89.4711,0.00303684,0.27143,20.7211,-345.678,0.934013,0.0,0.0
764,190.75,69.7464,75.4731,113.886,99.3968,89.1249,0.00306156,0.27027,20.7228,-345.708,0.968211,0.0,0.0
768,191.75,69.4932,75.525,114.424,99.3774,89.0878,0.00309022,0.269319,20.7239,-345.819,0.970177,0.0,0.0
772,192.75,69.6165,75.2699,111.875,99.3694,89.4192,0.00308938,0.268475,20.7251,-345.839,0.936501,0.0,0.0
776,193.75,69.5507,75.1293,117.161,99.365,89.9655,0.00304206,0.267315,20.7271,-345.869,0.882044,0.0,0.0
780,194.75,69.457,75.1559,112.412,99.3448,89.9836,0.00297085,0.265976,20.7296,-345.899,0.878459,0.0,0.0
784,195.75,69.4134,74.9803,116.369,99.34,89.7346,0.00291604,0.264702,20.732,-345.959,0.90263,0.0,0.0
788,196.75,68.7443,74.8658,118.903,99.3308,89.8943,0.0028841,0.263309,20.734,-345.979,0.886017,0.0,0.0
792,197.75,69.3342,74.4745,115.714,99.3231,89.4131,0.00294157,0.262339,20.7353,-346.039,0.932979,0.0,0.0
796,198.75,68.7758,74.5072,115.016,99.3062,89.7881,0.00301965,0.261676,20.7361,-346.089,0.894316,0.0,0.0
800,199.75,68.6833,74.5908,115.459,99.2917,89.6325,0.00309331,0.260977,20.7373,-346.159,0.908417,0.0,0.0
804,200.75,68.9667,74.0852,116.003,99.2837,89.4975,0.00313491,0.259972,20.7395,-346.179,0.92108,0.0,0.0
808,201.75,68.982,74.1093,118.671,99.2668,89.6321,0.0031308,0.258727,20.7413,-346.229,0.906228,0.0,0.0
812,202.75,68.7815,74.1141,116.809,99.2535,90.2179,0.00308101,0.257741,20.7425,-346.269,0.847218,0.0,0.0
816,203.75,68.4455,73.7475,114.06,99.2543,89.3102,0.00302685,0.257075,20.7433,-346.309,0.937048,0.0,0.0
820,204.75,68.6529,73.5339,115.22,99.2301,89.2999,0.00293432,0.256622,20.7442,-346.349,0.935911,0.0,0.0
824,205.75,68.1445,73.7047,119.828,99.2193,89.8116,0.00286185,0.256312,20.7452,-346.399,0.884224,0.0,0.0
828,206.75,68.1057,73.9138,116.075,99.2225,89.579,0.00281402,0.255998,20.7463,-346.489,0.907529,0.0,0.0
832,207.75,67.9987,73.4901,121.015,99.1955,89.9919,0.00278581,0.255639,20.7474,-346.499,0.864297,0.0,0.0
836,208.75,68.031,73.6251,118.786,99.1975,90.2739,0.00276731,0.255101,20.7481,-346.569,0.836708,0.0,0.0
840,209.75,67.9834,73.2665,116.86,99.1762,89.9705,0.00275191,0.254284,20.749,-346.589,0.86468,0.0,0.0
844,210.75,67.5864,73.1556,116.537,99.1637,89.9873,0.00273387,0.253092,20.7502,-346.639,0.861899,0.0,0.0
848,211.75,67.6809,73.1475,117.344,99.1493,91.0424,0.00272203,0.251437,20.7515,-346.689,0.757136,0.0,0.0
852,212.75,67.2676,72.9734,116.124,99.1384,89.8395,0.00272485,0.250005,20.754,-346.739,0.874219,0.0,0.0
856,213.75,67.6802,72.5412,115.676,99.1303,90.1075,0.0027345,0.248852,20.7563,-346.759,0.84706,0.0,0.0
860,214.75,67.419,72.5559,115.624,99.1263,90.6147,0.00274483,0.247763,20.7579,-346.799,0.79688,0.0,0.0
864,215.75,67.1484,72.784,116.822,99.115,90.0779,0.00274543,0.246353,20.7603,-346.869,0.84861,0.0,0.0
868,216.75,66.9352,71.9784,117.449,99.109,90.4776,0.00273833,0.244686,20.7635,-346.889,0.808769,0.0,0.0
872,217.75,67.1679,72.1245,114.592,99.0893,90.2932,0.00273168,0.242631,20.7665,-346.919,0.825113,0.0,0.0
876,218.75,66.8745,72.2185,117.837,99.0748,91.0428,0.0027326,0.240734,20.7696,-346.95,0.750428,0.0,0.0
880,219.75,66.9918,72.1876,120.212,99.0607,90.59,0.0027364,0.239024,20.7717,-347,0.793424,0.0,0.0
884,220.75,66.6351,72.0247,116.166,99.0615,90.3051,0.00275991,0.237449,20.7746,-347.08,0.821452,0.0,0.0
888,221.75,66.626,72.0641,120.002,99.0341,90.6905,0.00281343,0.235824,20.7772,-347.07,0.781207,0.0,0.0
892,222.75,66.5619,71.7493,120.383,99.0305,91.231,0.00288713,0.234084,20.7803,-347.09,0.728138,0.0,0.0
896,223.75,66.5748,71.4689,115.099,99.0269,90.704,0.00295769,0.231519,20.7842,-347.13,0.779228,0.0,0.0
900,224.75,66.401,71.5254,119.245,98.9995,91.0671,0.00300845,0.228525,20.7875,-347.16,0.741315,0.0,0.0
904,225.75,66.559,71.1979,119.137,98.9895,90.9358,0.00305378,0.225429,20.7913,-347.18,0.753222,0.0,0.0
908,226.75,66.0736,70.9225,116.785,98.9738,91.1968,0.00310897,0.222609,20.7954,-347.21,0.726375,0.0,0.0
912,227.75,66.0806,71.2287,119.098,98.9589,91.2454,0.0032103,0.219693,20.7994,-347.25,0.720313,0.0,0.0
916,228.75,66.2799,70.8192,113.383,98.9372,91.4516,0.00334762,0.217046,20.8028,-347.26,0.698323,0.0,0.0
920,229.75,65.672,70.5682,115.701,98.9247,91.6538,0.00353482,0.214575,20.8066,-347.28,0.677608,0.0,0.0
924,230.75,65.4703,70.8845,117.583,98.9126,90.9675,0.00370852,0.212161,20.8099,-347.32,0.743233,0.0,0.0
928,231.75,65.2436,70.1093,117.306,98.9086,91.7283,0.00385455,0.21018,20.8125,-347.34,0.66895,0.0,0.0
932,232.75,65.482,70.2654,117.14,98.903,91.7192,0.00396955,0.207617,20.8155,-347.35,0.669321,0.0,0.0
936,233.75,65.5242,69.9908,118.384,98.8816,92.1383,0.00406277,0.204944,20.8187,-347.38,0.626943,0.0,0.0
940,234.75,65.2067,69.92,115.381,98.8933,92.2387,0.00411999,0.202093,20.8205,-347.45,0.618319,0.0,0.0
944,235.75,65.004,69.7145,117.35,98.8772,92.2334,0.00417971,0.199928,20.8238,-347.46,0.617389,0.0,0.0
948,236.75,64.984,69.2677,122.368,98.8675,92.3713,0.00419327,0.196853,20.8284,-347.48,0.60326,0.0,0.0
952,237.75,64.7707,68.9431,119.022,98.8587,92.1935,0.00415322,0.194634,20.833,-347.49,0.61957,0.0,0.0
956,238.75,64.5392,69.2649,119.856,98.8462,92.4083,0.00409338,0.1917,20.8376,-347.52,0.597785,0.0,0.0
960,239.75,64.5511,68.9115,119.609,98.8249,92.6401,0.00402924,0.188766,20.8411,-347.51,0.573636,0.0,0.0
964,240.75,64.1102,69.1796,120.618,98.8196,92.9801,0.00395829,0.18612,20.8442,-347.56,0.540647,0.0,0.0
968,241.75,64.1104,68.571,121.579,98.8196,92.6595,0.00391215,0.183369,20.8476,-347.57,0.571312,0.0,0.0
972,242.75,65.1669,68.5394,119.031,98.812,92.5318,0.00390907,0.18108,20.8511,-347.58,0.582858,0.0,0.0
976,243.75,63.7394,67.9905,121.853,98.7963,92.7257,0.00396278,0.17831,20.8554,-347.61,0.562869,0.0,0.0
980,244.75,63.4985,68.3647,119.348,98.7862,92.7949,0.00406917,0.175887,20.8587,-347.6,0.555348,0.0,0.0
984,245.75,63.1469,67.8888,121.727,98.7879,93.0575,0.00417128,0.174034,20.8609,-347.64,0.530405,0.0,0.0
988,246.75,63.1732,67.601,123.165,98.777,93.0139,0.00431731,0.172581,20.863,-347.64,0.533591,0.0,0.0
992,247.75,63.1368,66.4536,117.51,98.7778,92.4347,0.00444477,0.171255,20.8646,-347.67,0.58911,0.0,0.0
996,248.75,62.8852,66.8936,120.618,98.7557,92.5508,0.00455512,0.169747,20.866,-347.68,0.57598,0.0,0.0
1000,249.75,62.7642,67.0824,121.692,98.7476,92.9266,0.00465433,0.168109,20.868,-347.7,0.539284,0.0,0.0
1004,250.75,62.3729,66.9131,116.193,98.7371,92.8447,0.00474345,0.166361,20.8711,-347.71,0.546171,0.0,0.0
1008,251.75,62.4261,66.7608,117.126,98.7343,93.1959,0.00482336,0.164842,20.8733,-347.74,0.512411,0.0,0.0
1012,252.75,61.9883,66.3411,118.685,98.7013,92.839,0.00487757,0.1634,20.8753,-347.76,0.543502,0.0,0.0
1016,253.75,62.7664,66.2936,119.191,98.709,92.9633,0.00490511,0.161931,20.8775,-347.77,0.532312,0.0,0.0
1020,254.75,62.7936,66.1798,126.406,98.7045,92.3972,0.00492091,0.160444,20.8797,-347.81,0.586124,0.0,0.0
1024,255.75,61.2061,65.3251,121.354,98.6844,92.4997,0.00494713,0.158912,20.8811,-347.82,0.574473,0.0,0.0
1028,256.75,61.4671,66.2595,123.305,98.6728,92.6821,0.0049768,0.157527,20.8821,-347.84,0.55594,0.0,0.0
1032,257.75,61.4757,65.5606,119.295,98.7194,92.811,0.00502669,0.156403,20.8836,-347.84,0.547807,0.0,0.0
1036,258.75,61.1796,64.1123,116.795,98.6506,93.0267,0.00504441,0.155642,20.885,-347.87,0.521012,0.0,0.0
1040,259.75,60.8951,65.1232,118.245,98.6389,92.7558,0.00504386,0.155041,20.8865,-347.89,0.545844,0.0,0.0
1044,260.75,60.7739,64.1476,119.747,98.6112,93.2148,0.00500275,0.154291,20.8875,-347.88,0.499529,0.0,0.0
1048,261.75,60.7823,64.8461,122.511,98.6233,92.5162,0.00496899,0.1533,20.8886,-347.88,0.567388,0.0,0.0
1052,262.75,60.6566,63.7044,119.476,98.6003,92.7154,0.00495219,0.152324,20.8897,-347.94,0.546228,0.0,0.0
1056,263.75,59.4407,64.9984,120.605,98.6092,92.9291,0.0049494,0.151448,20.8909,-347.96,0.526596,0.0,0.0
1060,264.75,60.4321,64.6373,121.761,98.5939,92.2791,0.00494935,0.150718,20.892,-347.95,0.587522,0.0,0.0
1064,265.75,60.4122,64.0947,120.683,98.5894,92.6574,0.00495337,0.150251,20.8927,-347.97,0.550809,0.0,0.0
1068,266.75,59.9786,63.9289,120.278,98.579,92.5821,0.0049562,0.150041,20.8931,-347.98,0.557086,0.0,0.0
1072,267.75,59.7636,63.6334,119.391,98.5677,93.3663,0.00494764,0.150019,20.8934,-348.01,0.481203,0.0,0.0
1076,268.75,59.7991,63.6322,121.488,98.5657,92.4343,0.00493071,0.150152,20.8928,-348.02,0.570071,0.0,0.0
1080,269.75,59.6225,63.4177,120.455,98.5625,92.4952,0.00492865,0.15063,20.8922,-348.02,0.563933,0.0,0.0
1084,270.75,59.2573,62.5019,121.616,98.5476,92.8813,0.00495221,0.151101,20.8917,-348,0.525613,0.0,0.0
1088,271.75,59.1879,63.1378,117.483,98.5395,92.6459,0.00499979,0.151433,20.8914,-348.02,0.547419,0.0,0.0
1092,272.75,58.609,62.4408,122.239,98.5331,92.4528,0.00506643,0.151606,20.8917,-348.02,0.565356,0.0,0.0
1096,273.75,58.9663,62.5272,118.468,98.5275,92.2404,0.00512238,0.151502,20.8922,-348.071,0.585265,0.0,0.0
1100,274.75,58.8275,62.19,120.909,98.521,92.4232,0.00515457,0.151115,20.8926,-348.091,0.567115,0.0,0.0
1104,275.75,58.7104,62.5318,121.686,98.5122,92.4672,0.00514096,0.150713,20.8928,-348.101,0.562088,0.0,0.0
1108,276.75,58.8159,61.6746,124.113,98.5009,92.4899,0.0050983,0.150293,20.893,-348.121,0.558899,0.0,0.0
1112,277.75,58.629,62.4388,120.016,98.4969,92.5409,0.00498823,0.149854,20.8939,-348.111,0.553638,0.0,0.0
1116,278.75,57.929,61.9379,119.186,98.4997,92.8064,0.00487591,0.149357,20.8947,-348.091,0.528461,0.0,0.0
1120,279.75,58.3081,61.9008,122.717,98.4764,92.1918,0.00477726,0.148844,20.8959,-348.121,0.585335,0.0,0.0
1124,280.75,58.1465,61.763,122.072,98.476,92.3124,0.00469756,0.14829,20.8968,-348.141,0.573693,0.0,0.0
1128,281.75,57.9391,61.6,123.01,98.4659,92.7821,0.00465809,0.147846,20.8974,-348.171,0.527737,0.0,0.0
1132,282.75,57.7569,61.409,120.243,98.4546,92.6632,0.00466835,0.14732,20.8978,-348.181,0.53811,0.0,0.0
1136,283.75,57.6203,61.4184,121.699,98.4442,92.5528,0.00470716,0.14673,20.8987,-348.191,0.547741,0.0,0.0
1140,284.75,57.6496,61.1904,120.002,98.4341,92.4437,0.00477519,0.146176,20.8995,-348.201,0.557302,0.0,0.0
1144,285.75,57.653,60.5937,120.036,98.4405,92.3487,0.00483945,0.145701,20.9,-348.221,0.567018,0.0,0.0
1148,286.75,57.4873,60.9548,121.631,98.4305,92.5339,0.00490652,0.145278,20.9003,-348.231,0.548324,0.0,0.0
1152,287.75,57.4731,61.3993,119.412,98.4128,92.797,0.0049558,0.144825,20.9012,-348.241,0.52153,0.0,0.0
1156,288.75,57.5098,60.6803,127.073,98.416,92.3355,0.00501319,0.144198,20.9022,-348.241,0.566071,0.0,0.0
1160,289.75,57.2517,60.7254,120.985,98.4047,92.8995,0.00506444,0.143474,20.9031,-348.281,0.511004,0.0,0.0
1164,290.75,56.9213,60.4631,125.523,98.4051,92.5578,0.00513434,0.14248,20.9041,-348.261,0.543748,0.0,0.0
1168,291.75,56.9056,60.4358,122.918,98.4003,92.4409,0.00522328,0.141746,20.9051,-348.291,0.554531,0.0,0.0
1172,292.75,57.0324,60.1344,119.528,98.3971,92.9357,0.00532476,0.141078,20.9058,-348.301,0.506855,0.0,0.0
1176,293.75,56.9912,59.98,121.449,98.389,92.1651,0.00541404,0.140473,20.9062,-348.301,0.580037,0.0,0.0
1180,294.75,56.8833,59.8546,119.817,98.3834,92.4273,0.00547764,0.140003,20.9065,-348.301,0.554309,0.0,0.0
1184,295.75,56.5415,60.0428,119.058,98.3733,92.3482,0.00552145,0.139669,20.9067,-348.341,0.560996,0.0,0.0
1188,296.75,56.8052,59.7707,120.586,98.3721,92.7648,0.00553744,0.139401,20.9069,-348.361,0.520935,0.0,0.0
1192,297.75,56.6163,59.5983,119.991,98.3625,92.5335,0.00552861,0.139134,20.9069,-348.371,0.542228,0.0,0.0
1196,298.75,56.4736,59.4602,124.023,98.3737,92.7776,0.00547502,0.13888,20.9073,-348.381,0.519859,0.0,0.0
1200,299.75,56.1975,59.6508,119.844,98.354,92.2869,0.00542172,0.138531,20.9086,-348.401,0.56515,0.0,0.0
1204,300.75,56.1441,59.2253,121.279,98.3532,92.3001,0.00541169,0.138067,20.91,-348.381,0.563811,0.0,0.0
1208,301.75,55.826,58.9321,121.898,98.3512,92.4211,0.00540512,0.137471,20.9109,-348.401,0.551998,0.0,0.0
1212,302.75,55.9603,58.903,120.139,98.3472,92.2713,0.00553479,0.136836,20.9114,-348.411,0.566037,0.0,0.0
1216,303.75,55.5994,58.8927,122.533,98.3351,92.5932,0.00568797,0.136315,20.9116,-348.441,0.534034,0.0,0.0
1220,304.75,55.5511,58.5826,121.287,98.3355,92.1309,0.00585524,0.135973,20.9117,-348.451,0.578499,0.0,0.0
1224,305.75,55.2304,58.5919,118.343,98.3262,92.3186,0.00602471,0.135787,20.9118,-348.441,0.559596,0.0,0.0
1228,306.75,55.4789,58.6502,118.563,98.3198,92.5331,0.00619879,0.135703,20.9127,-348.481,0.538417,0.0,0.0
1232,307.75,54.8009,58.6031,122.722,98.3242,92.4298,0.00637511,0.135468,20.9132,-348.481,0.548734,0.0,0.0
1236,308.75,55.2278,57.9022,119.977,98.3198,92.3993,0.00650387,0.135125,20.9136,-348.501,0.55126,0.0,0.0
1240,309.75,54.9479,57.8257,123.621,98.313,92.4392,0.00660433,0.134716,20.9143,-348.501,0.546807,0.0,0.0
1244,310.75,54.2828,57.3803,118.788,98.3226,92.3939,0.00663599,0.134357,20.9151,-348.531,0.552029,0.0,0.0
1248,311.75,55.4505,58.3069,119.262,98.3061,92.543,0.00660198,0.133992,20.9156,-348.531,0.536234,0.0,0.0
1252,312.75,54.9291,57.8496,121.532,98.2961,92.0877,0.00650213,0.133589,20.9164,-348.551,0.579102,0.0,0.0
1256,313.75,54.9482,57.9319,120.173,98.2969,92.1889,0.00636146,0.13318,20.9173,-348.561,0.56942,0.0,0.0
1260,314.75,54.03,57.4239,120.325,98.2941,92.452,0.00623274,0.132885,20.9179,-348.571,0.543875,0.0,0.0
1264,315.75,55.1233,57.5563,122.58,98.3037,92.5051,0.00616841,0.132648,20.9183,-348.591,0.53965,0.0,0.0
1268,316.75,55.2181,57.3272,121.731,98.2864,91.8563,0.00615773,0.132372,20.9185,-348.611,0.600558,0.0,0.0
1272,317.75,54.7236,57.5281,119.407,98.2848,92.2663,0.00619914,0.132055,20.9187,-348.641,0.560881,0.0,0.0
1276,318.75,54.1263,57.1976,120.876,98.28,92.3919,0.00625379,0.131682,20.9196,-348.661,0.548374,0.0,0.0
1280,319.75,54.4195,57.4688,117.017,98.278,92.0881,0.0062942,0.131214,20.9202,-348.631,0.577428,0.0,0.0
1284,320.75,54.5922,57.1334,125.67,98.2751,92.2626,0.00629336,0.130705,20.9206,-348.621,0.560365,0.0,0.0
1288,321.75,54.2719,57.2757,120.79,98.2928,92.1395,0.00626547,0.130303,20.9209,-348.651,0.573814,0.0,0.0
1292,322.75,54.0793,57.211,121.164,98.2771,92.1585,0.00623585,0.129952,20.921,-348.651,0.570572,0.0,0.0
1296,323.75,54.0216,57.2173,121.041,98.2808,92.338,0.00620472,0.129639,20.9211,-348.681,0.55363,0.0,0.0
1300,324.75,54.4007,57.2719,123.652,98.2767,92.4709,0.00618226,0.129361,20.9212,-348.691,0.540493,0.0,0.0
1304,325.75,54.0316,57.2493,121.918,98.278,92.517,0.00615856,0.129142,20.9211,-348.701,0.536178,0.0,0.0
1308,326.75,53.8466,56.617,119.467,98.2691,92.4734,0.00614418,0.129019,20.921,-348.711,0.539565,0.0,0.0
1312,327.75,53.7697,56.7965,122.746,98.2711,92.0831,0.00614289,0.128944,20.9209,-348.721,0.577286,0.0,0.0
1316,328.75,53.6731,56.4202,120.734,98.2715,92.3256,0.00614397,0.128894,20.9208,-348.711,0.553981,0.0,0.0
1320,329.75,53.9584,56.5888,125.802,98.2775,92.3664,0.00614468,0.128965,20.9208,-348.741,0.550609,0.0,0.0
1324,330.75,53.8564,56.5031,123.484,98.2751,92.4083,0.00611327,0.12914,20.9207,-348.761,0.546355,0.0,0.0
1328,331.75,53.6608,56.4271,122.15,98.2703,91.9654,0.00607674,0.129254,20.9207,-348.741,0.588569,0.0,0.0
1332,332.75,53.9445,56.4291,117.268,98.2844,92.3659,0.00604594,0.129269,20.9207,-348.771,0.551266,0.0,0.0
1336,333.75,53.7,56.2704,124.768,98.2763,92.2243,0.00604394,0.129276,20.9207,-348.791,0.564158,0.0,0.0
1340,334.75,53.5321,56.6005,124.22,98.2695,92.2976,0.00607677,0.129335,20.9207,-348.781,0.556491,0.0,0.0
1344,335.75,53.5899,55.857,123.062,98.2784,92.0852,0.00611267,0.129408,20.9207,-348.761,0.577741,0.0,0.0
1348,336.75,54.1207,56.0174,114.88,98.2828,92.2449,0.00614207,0.129414,20.9207,-348.781,0.56276,0.0,0.0
1352,337.75,53.6349,55.6544,121.968,98.2828,92.4919,0.0061682,0.12933,20.9207,-348.811,0.539024,0.0,0.0
1356,338.75,53.3721,56.264,117.273,98.2856,92.7471,0.00619019,0.129148,20.9207,-348.821,0.514818,0.0,0.0
1360,339.75,53.5319,55.6664,121.043,98.292,92.6393,0.00621373,0.128771,20.9207,-348.851,0.525728,0.0,0.0
1364,340.75,53.195,55.6055,121.031,98.2957,92.156,0.00623456,0.128422,20.9207,-348.841,0.572482,0.0,0.0
1368,341.75,53.5434,55.8533,118.388,98.2993,92.1967,0.00626224,0.128166,20.9207,-348.841,0.568885,0.0,0.0
1372,342.75,53.4687,55.8862,121.108,98.2932,92.8727,0.00627923,0.128043,20.9207,-348.861,0.5035,0.0,0.0
1376,343.75,53.347,55.635,120.318,98.3009,92.2392,0.00628283,0.128072,20.9207,-348.871,0.564948,0.0,0.0
1380,344.75,53.2277,55.3154,121.942,98.3049,92.2886,0.00627906,0.128038,20.9207,-348.881,0.56056,0.0,0.0
1384,345.75,53.174,55.7377,118.891,98.3089,92.4643,0.00629171,0.127866,20.9207,-348.891,0.544033,0.0,0.0
1388,346.75,52.9499,55.3445,123.359,98.3114,92.4763,0.00631916,0.127698,20.9207,-348.911,0.543105,0.0,0.0
1392,347.75,53.2455,55.6294,123.861,98.311,92.8805,0.00636901,0.127845,20.9207,-348.911,0.504352,0.0,0.0
1396,348.75,52.7405,55.4728,120.232,98.3178,92.9052,0.00643408,0.128125,20.9209,-348.901,0.502609,0.0,0.0
1400,349.75,52.8831,55.1138,120.036,98.3226,92.5113,0.00648044,0.128322,20.9211,-348.931,0.540765,0.0,0.0
1404,350.75,52.9701,55.9112,120.848,98.3279,92.2886,0.00650676,0.128497,20.9206,-348.941,0.562631,0.0,0.0
1408,351.75,52.8853,55.6218,122.092,98.3391,92.3412,0.00646702,0.128575,20.9203,-348.941,0.558582,0.0,0.0
1412,352.75,52.6933,55.5008,118.142,98.3371,92.5973,0.00640675,0.128575,20.9201,-348.961,0.533821,0.0,0.0
1416,353.75,53.0724,54.5484,124.094,98.3403,92.7303,0.00635353,0.128476,20.9206,-348.981,0.521375,0.0,0.0
1420,354.75,53.0621,55.0424,123.863,98.3556,92.4717,0.00631406,0.128248,20.9211,-348.981,0.547535,0.0,0.0
1424,355.75,53.2145,55.1637,120.471,98.3576,92.4475,0.00628361,0.127807,20.9218,-349.001,0.550049,0.0,0.0
1428,356.75,52.8695,55.0299,118.853,98.3621,92.7772,0.00624927,0.127255,20.9227,-349.001,0.518845,0.0,0.0
1432,357.75,52.3782,54.6891,122.005,98.3653,92.2836,0.00621228,0.126806,20.9233,-349.011,0.566484,0.0,0.0
1436,358.75,52.5021,54.3916,122.377,98.3894,92.2499,0.00615689,0.126566,20.9236,-349.021,0.57191,0.0,0.0
1440,359.75,52.7731,55.2578,121.274,98.3794,92.3655,0.00611226,0.126511,20.9239,-349.031,0.559879,0.0,0.0
1444,360.75,52.6831,55.0485,122.14,98.3858,92.5874,0.00609428,0.126424,20.924,-349.031,0.539163,0.0,0.0
1448,361.75,52.5862,54.5818,122.385,98.3943,92.5409,0.00611436,0.126352,20.9235,-349.021,0.544385,0.0,0.0
1452,362.75,53.0813,54.4249,123.991,98.3935,92.685,0.00613892,0.126294,20.923,-349.061,0.530505,0.0,0.0
1456,363.75,52.1094,54.8013,120.26,98.4015,92.5026,0.00615503,0.126355,20.9226,-349.081,0.548712,0.0,0.0
1460,364.75,52.462,55.1004,120.65,98.4208,92.2725,0.00616434,0.126475,20.9224,-349.091,0.572563,0.0,0.0
1464,365.75,52.8425,55.4067,122.65,98.42,92.6846,0.00616692,0.126554,20.9223,-349.051,0.532939,0.0,0.0
1468,366.75,52.1456,54.724,121.542,98.4277,92.3787,0.00617253,0.126606,20.9222,-349.091,0.562968,0.0,0.0
1472,367.75,52.7374,54.3805,121.84,98.4389,92.9213,0.00620201,0.12664,20.9221,-349.121,0.512005,0.0,0.0
1476,368.75,52.6639,54.8878,117.756,98.447,92.4594,0.00626395,0.126643,20.9221,-349.121,0.556961,0.0,0.0
1480,369.75,52.2776,54.3679,122.43,98.4574,92.24,0.00631948,0.126598,20.9221,-349.121,0.578994,0.0,0.0
1484,370.75,52.5961,54.7008,122.127,98.4619,92.6558,0.00636238,0.126598,20.922,-349.131,0.539474,0.0,0.0
1488,371.75,52.1788,54.6761,121.721,98.4671,92.2066,0.00639053,0.12665,20.922,-349.141,0.583075,0.0,0.0
1492,372.75,52.5123,54.6127,120.654,98.4764,92.4754,0.00640672,0.126614,20.9212,-349.161,0.558069,0.0,0.0
1496,373.75,52.1675,54.8314,124.036,98.4832,92.524,0.00644243,0.126568,20.9204,-349.161,0.554024,0.0,0.0
1500,374.75,52.4211,54.3417,122.417,98.4884,92.8381,0.00647498,0.126477,20.9206,-349.171,0.524415,0.0,0.0
1504,375.75,52.4621,54.4785,123.574,98.4973,92.9686,0.00647657,0.12643,20.9208,-349.181,0.512744,0.0,0.0
1508,376.75,52.144,54.4659,123.13,98.513,92.2955,0.00643635,0.126437,20.921,-349.191,0.578653,0.0,0.0
1512,377.75,52.5064,54.163,121.807,98.5226,92.6389,0.00638016,0.126455,20.9211,-349.191,0.546566,0.0,0.0
1516,378.75,52.2825,54.3094,123.017,98.5271,92.3684,0.00632234,0.126375,20.9212,-349.171,0.572918,0.0,0.0
1520,379.75,51.9188,54.3236,122.518,98.5279,92.7023,0.0062678,0.126232,20.9212,-349.202,0.540965,0.0,0.0
1524,380.75,52.2272,54.2217,120.306,98.5371,92.4075,0.00621909,0.126086,20.9213,-349.232,0.570066,0.0,0.0
1528,381.75,52.4633,54.058,123.322,98.5452,92.4018,0.0061621,0.126011,20.9213,-349.212,0.571345,0.0,0.0
1532,382.75,52.195,54.0141,119.435,98.548,93.1152,0.0061156,0.125995,20.9213,-349.212,0.503332,0.0,0.0
1536,383.75,52.5853,54.3848,122.598,98.556,92.925,0.00610482,0.126037,20.9213,-349.232,0.522205,0.0,0.0
1540,384.75,51.8863,54.0685,116.933,98.5657,92.552,0.00613177,0.12603,20.9213,-349.242,0.558773,0.0,0.0
1544,385.75,51.8414,53.9038,118.957,98.5685,92.825,0.00616645,0.12589,20.9213,-349.262,0.532889,0.0,0.0
1548,386.75,51.7851,54.4849,124.712,98.5705,92.5388,0.00622568,0.125587,20.9213,-349.262,0.56047,0.0,0.0
1552,387.75,51.7536,53.8062,117.425,98.5782,92.7471,0.00628371,0.125406,20.9213,-349.272,0.541201,0.0,0.0
1556,388.75,51.8669,54.1966,121.947,98.5842,92.9892,0.00634053,0.12557,20.9213,-349.272,0.51861,0.0,0.0
1560,389.75,51.9023,54.6742,122.461,98.5935,92.6372,0.00636824,0.125779,20.9213,-349.282,0.553104,0.0,0.0
1564,390.75,52.4544,54.2113,121.233,98.587,92.7513,0.00635309,0.125901,20.9213,-349.282,0.541604,0.0,0.0
1568,391.75,51.8889,54.0903,120.919,98.585,92.7509,0.00630922,0.125975,20.9213,-349.342,0.541463,0.0,0.0
1572,392.75,51.8582,54.095,122.263,98.6011,93.0011,0.00624275,0.126003,20.9213,-349.332,0.518992,0.0,0.0
1576,393.75,52.0354,53.9063,125.323,98.5991,92.7043,0.00619617,0.125907,20.9213,-349.352,0.547184,0.0,0.0
1580,394.75,52.0192,53.9815,120.945,98.6027,93.1724,0.00617361,0.125736,20.9213,-349.352,0.502807,0.0,0.0
1584,395.75,51.9155,54.108,120.466,98.6241,92.6331,0.00618007,0.125556,20.9213,-349.382,0.556251,0.0,0.0
1588,396.75,51.8321,54.3564,123.123,98.6152,92.6401,0.00619114,0.125411,20.9213,-349.382,0.554784,0.0,0.0
1592,397.75,51.5189,54.001,122.23,98.6076,92.939,0.00621816,0.125344,20.9213,-349.392,0.525507,0.0,0.0
1596,398.75,51.7321,53.9411,121.369,98.6148,92.5491,0.00624749,0.125306,20.9213,-349.412,0.563469,0.0,0.0
1600,399.75,51.6056,53.8428,121.111,98.6233,93.0765,0.0062599,0.125321,20.9213,-349.432,0.513798,0.0,0.0
1604,400.75,51.9677,53.8062,121.515,98.6224,92.7661,0.00622837,0.125386,20.9213,-349.412,0.543374,0.0,0.0
1608,401.75,52.1852,53.8126,124.533,98.6337,92.5862,0.00618184,0.1253,20.9213,-349.412,0.561618,0.0,0.0
1612,402.75,51.8457,54.1194,122.08,98.6261,93.0847,0.00611416,0.125284,20.9213,-349.402,0.513265,0.0,0.0
1616,403.75,51.8885,54.2565,119.867,98.6345,93.1996,0.00605684,0.125285,20.9213,-349.402,0.50308,0.0,0.0
1620,404.75,51.6243,54.2876,120.692,98.6389,93.1012,0.00600558,0.1252,20.922,-349.412,0.512854,0.0,0.0
1624,405.75,51.7396,53.8291,122.84,98.6325,93.3593,0.00596286,0.124905,20.9226,-349.462,0.487701,0.0,0.0
1628,406.75,51.4212,53.865,120.805,98.6458,92.1638,0.00593303,0.124488,20.9234,-349.472,0.603289,0.0,0.0
1632,407.75,51.2132,53.8756,121.238,98.6466,92.9312,0.00592374,0.124231,20.9243,-349.472,0.529766,0.0,0.0
1636,408.75,51.3832,53.4982,121.784,98.643,92.7937,0.00592385,0.124214,20.9248,-349.512,0.542584,0.0,0.0
1640,409.75,51.7583,54.0232,122.918,98.6559,93.1386,,0.124403,,-349.502,0.510805,0.0,0.0
1644,410.75,50.9705,53.7719,122.54,98.649,92.8636,,0.124681,,-349.522,0.536434,0.0,0.0
1648,411.75,51.5236,52.7899,123.619,98.6559,92.8546,,0.124995,,-349.532,0.537916,0.0,0.0
1652,412.75,51.6285,53.7092,121.207,98.6651,92.6002,,,,-349.552,0.563101,0.0,0.0
1656,413.75,51.6453,53.785,125.406,98.6671,92.3034,,,,-349.562,0.591779,0.0,0.0
1660,414.75,51.2195,53.463,119.996,98.6723,92.7402,,,,-349.532,0.550346,0.0,0.0
1664,415.75,51.3035,53.4624,119.451,98.6844,92.9839,,,,-349.542,0.528138,0.0,0.0
1668,416.75,51.5375,53.7142,120.222,98.6941,92.6862,,,,-349.552,0.557465,0.0,0.0
1672,417.75,51.4679,53.248,118.627,98.6893,92.8517,,,,-349.572,0.541196,0.0,0.0
1676,418.75,51.186,53.8514,120.932,98.6917,92.8085,,,,-349.582,0.545546,0.0,0.0
1680,419.75,50.8282,53.563,122.827,98.7005,93.1967,,,,-349.602,0.509293,0.0,0.0
1683,420.5,51.8382,53.5795,123.275,98.7066,93.463,,,,-349.602,0.484505,0.0,0.0