File: 01_Data/Wool_Rug/Cone/Wool_Rug_Cone_HF50Scan_220324_R3.csv
Names,Time,Stack TC,Smoke TC,Exh Press,Smoke Comp,Smoke Meas,CO Meter,CO2 Meter,O2 Meter,Sample Mass,Ext Coeff,Start Test,Flame Verif
Chan Gain,,500,500,1,1,1,1,1,1,1,1,1.0,1.0
Offset,,0,0,0.130261,0,0,0,0,0,0,0,0.0,0.0
Gain,,1,1,25.011,13.1874,13.4895,1,1,1,1.00089,1.01187,1.0,1.0
Units,sec,C,C,Pa,%,%,%,%,%,g,/m,,
Baseline,,32.7084,33.6663,151.427,99.6416,93.0853,0.000741348,0.0457962,21.0887,-836.219,0.604164,,
5,1,30.7132,31.3263,148.561,99.7698,93.1633,0.000782392,0.0586841,21.0713,-299.397,0.608114,0.0,0.0
10,2.25,30.798,31.8406,150.898,99.7489,93.0044,0.00110771,0.0585168,21.0691,-299.347,0.621404,0.0,0.0
15,3.5,30.7523,31.5081,150.498,99.705,87.7215,0.00142765,0.0595417,21.0672,-299.457,1.13657,0.0,0.0
20,4.75,31.1524,31.7127,153.258,99.6829,83.3784,0.00205749,0.0692625,21.0664,-299.537,1.58531,0.0,0.0
25,6,30.9908,31.8125,133.88,99.6624,90.2916,0.00303561,0.0950784,21.0418,-299.737,0.876463,0.0,1.0
30,7.25,31.5632,32.5465,124.663,99.6394,90.5744,0.00420085,0.189275,20.9424,-299.958,0.846661,0.0,1.0
35,8.5,33.2328,33.7815,119.439,99.5952,87.9924,0.00508102,0.307606,20.7822,-300.188,1.09942,0.0,1.0
40,9.75,33.8235,34.6096,121.995,99.569,87.0517,0.00607974,0.415812,20.6013,-300.418,1.19249,0.0,1.0
45,11,35.8704,36.2606,127.573,99.5404,87.6705,0.00683346,0.481732,20.4775,-300.608,1.12707,0.0,0.0
50,12.25,38.0807,38.9563,121.501,99.4994,86.8369,0.00746368,0.536123,20.3919,-300.828,1.20822,0.0,0.0
55,13.5,39.1918,40.1975,128.353,99.4567,86.5417,0.00790904,0.56712,20.3413,-301.029,1.23463,0.0,0.0
60,14.75,40.766,42.1424,127.322,99.4354,86.2881,0.00817394,0.579914,20.314,-301.269,1.25877,0.0,0.0
65,16,41.9048,43.6866,130.969,99.4455,86.1687,0.00827563,0.577659,20.3088,-301.439,1.27196,0.0,0.0
70,17.25,42.7932,44.5266,127.724,99.4591,87.5038,0.00823814,0.56333,20.319,-301.639,1.13672,0.0,0.0
75,18.5,44.2062,45.7894,130.221,99.4386,85.8242,0.00811429,0.546633,20.3344,-301.779,1.30692,0.0,0.0
80,19.75,44.8365,47.1138,129.78,99.4616,86.4849,0.00799213,0.5322,20.3513,-301.929,1.24089,0.0,0.0
85,21,45.5267,47.8666,129.892,99.4752,85.7587,0.00791659,0.520353,20.3671,-302.109,1.31696,0.0,0.0
90,22.25,46.3498,49.5092,129.484,99.476,86.1,0.00785977,0.509788,20.3867,-302.22,1.28178,0.0,0.0
95,23.5,47.2259,49.5718,127.828,99.4664,86.1424,0.00777835,0.498429,20.4082,-302.41,1.27654,0.0,0.0
100,24.75,48.3043,50.6011,130.917,99.4845,86.9352,0.00764721,0.484246,20.4292,-302.57,1.19684,0.0,0.0
105,26,48.7524,51.2658,131.098,99.4813,88.0826,0.00743119,0.469226,20.443,-302.75,1.08017,0.0,0.0
110,27.25,49.4903,52.1855,131.645,99.4728,86.9715,0.00723413,0.457749,20.458,-302.91,1.1921,0.0,0.0
115,28.5,50.1322,52.8469,125.053,99.4785,87.1905,0.00683714,0.450161,20.4709,-303.03,1.17028,0.0,0.0
120,29.75,50.5985,53.2757,136.961,99.4978,87.7643,0.00643742,0.442997,20.4868,-303.14,1.11377,0.0,0.0
125,31,51.0178,53.7931,131.545,99.4909,87.3226,0.00603938,0.433719,20.5024,-303.331,1.15795,0.0,0.0
130,32.25,51.8514,54.6165,139.476,99.4785,88.7309,0.00571229,0.425718,20.5144,-303.431,1.01483,0.0,0.0
135,33.5,51.8193,54.8513,131.868,99.4857,87.9401,0.00543349,0.419105,20.5255,-303.621,1.09493,0.0,0.0
140,34.75,52.806,55.63,135.409,99.4885,88.9746,0.00522754,0.412038,20.5367,-303.721,0.991378,0.0,0.0
145,36,52.8774,56.0166,134.529,99.4909,88.2106,0.00504827,0.404968,20.5478,-303.881,1.06814,0.0,0.0
150,37.25,53.1198,56.509,133.96,99.4636,89.0158,0.00488801,0.398287,20.5583,-304.001,0.985045,0.0,0.0
155,38.5,53.8079,56.9765,131.774,99.4752,89.1776,0.00473288,0.391657,20.569,-304.111,0.96997,0.0,0.0
160,39.75,54.0653,56.8933,135.999,99.476,88.6601,0.00459596,0.382231,20.5817,-304.241,1.0217,0.0,0.0
165,41,54.4078,57.6059,135.476,99.462,88.9681,0.00450627,0.371843,20.597,-304.412,0.989664,0.0,0.0
170,42.25,54.4314,57.9375,132.737,99.4511,88.9672,0.00445653,0.362281,20.6112,-304.522,0.988777,0.0,0.0
175,43.5,55.0337,58.3327,136.427,99.4599,89.1097,0.00441678,0.35398,20.6241,-304.622,0.975369,0.0,0.0
180,44.75,54.5089,57.8526,131.691,99.4479,89.0323,0.00439116,0.347354,20.6351,-304.772,0.982003,0.0,0.0
185,46,55.2581,58.5788,136.969,99.435,89.3822,0.00438556,0.34142,20.6419,-304.882,0.946037,0.0,0.0
190,47.25,55.6195,59.1338,135.644,99.4326,89.2509,0.0043767,0.336667,20.6485,-305.042,0.958872,0.0,0.0
195,48.5,54.9909,58.4249,131.132,99.4507,89.9655,0.00433859,0.333595,20.6542,-305.122,0.889698,0.0,0.0
200,49.75,56.0094,59.2113,133.887,99.4451,90.2673,0.00427783,0.329783,20.6595,-305.272,0.859474,0.0,0.0
205,51,55.8181,59.3394,135.399,99.4261,90.0586,0.00416082,0.324788,20.6655,-305.443,0.878333,0.0,0.0
210,52.25,55.8382,59.3739,137.481,99.429,89.9211,0.00396597,0.320301,20.671,-305.563,0.892146,0.0,0.0
215,53.5,55.4345,59.0359,134.592,99.4414,90.7658,0.00378589,0.317623,20.6743,-305.663,0.810265,0.0,0.0
220,54.75,56.3503,59.8355,136.389,99.4362,90.5237,0.00356229,0.315831,20.6769,-305.753,0.833501,0.0,0.0
225,56,56.3704,59.7645,132.863,99.429,90.0977,0.00346396,0.313719,20.6797,-305.883,0.874731,0.0,0.0
230,57.25,58.0432,61.7934,136.354,99.435,90.1121,0.00348941,0.311817,20.6829,-306.033,0.87385,0.0,0.0
235,58.5,56.4904,60.3063,137.388,99.4644,90.6151,0.00361131,0.30916,20.6882,-306.203,0.827059,0.0,0.0
240,59.75,56.7119,60.3274,136.286,99.4696,90.5427,0.00372495,0.305404,20.6928,-306.313,0.834626,0.0,0.0
245,61,56.8873,60.8275,140.706,99.464,90.7168,0.0037734,0.30134,20.6989,-306.383,0.817068,0.0,0.0
250,62.25,57.0856,60.8344,133.812,99.4781,90.7707,0.0037469,0.297371,20.7042,-306.513,0.81305,0.0,0.0
255,63.5,57.4001,61.2601,140.283,99.4917,90.3327,0.00366237,0.294359,20.7088,-306.604,0.857206,0.0,0.0
260,64.75,56.8082,61.0308,134.943,99.4849,90.5534,0.00358113,0.291854,20.7137,-306.684,0.834942,0.0,0.0
265,66,56.5941,60.4979,138.03,99.4805,90.6398,0.0035048,0.290079,20.7172,-306.854,0.826076,0.0,0.0
270,67.25,57.0471,60.9194,137.515,99.5018,91.3026,0.00340873,0.288114,20.7209,-306.954,0.763312,0.0,0.0
275,68.5,56.6163,60.457,137.147,99.5416,90.7526,0.00331361,0.284991,20.7251,-307.064,0.820494,0.0,0.0
280,69.75,56.9313,61.3198,139.253,99.5123,91.3537,0.00326195,0.281275,20.7306,-307.164,0.759283,0.0,0.0
285,71,57.1854,60.9678,139.187,99.5219,91.2479,0.0032797,0.277966,20.7365,-307.264,0.77043,0.0,0.0
290,72.25,57.1084,61.1217,139.562,99.5344,91.5776,0.00335131,0.274468,20.7407,-307.394,0.739524,0.0,0.0
295,73.5,57.0519,61.3064,140.968,99.5473,90.8938,0.00342945,0.271544,20.7457,-307.444,0.807196,0.0,0.0
300,74.75,56.6532,60.9805,137.595,99.5549,90.8251,0.00349357,0.26911,20.7509,-307.604,0.814595,0.0,0.0
305,76,57.1361,61.22,137.898,99.5533,91.0606,0.00348367,0.267495,20.7543,-307.664,0.791468,0.0,0.0
310,77.25,56.8286,60.9846,137.769,99.5481,91.4002,0.00340313,0.265378,20.7583,-307.795,0.757959,0.0,0.0
315,78.5,57.0015,60.8519,140.512,99.5332,91.6719,0.00328982,0.263366,20.7626,-307.905,0.730284,0.0,0.0
320,79.75,57.116,61.413,140.829,99.5449,91.8868,0.00317408,0.261467,20.7651,-308.015,0.710544,0.0,0.0
325,81,57.1827,61.3326,138.053,99.5533,91.5755,0.00311,0.260333,20.7668,-308.135,0.741412,0.0,0.0
330,82.25,57.2542,61.379,140.844,99.5553,91.6748,0.00310883,0.259977,20.7683,-308.235,0.731979,0.0,0.0
335,83.5,57.0978,61.2066,138.501,99.5529,91.5484,0.00315413,0.259914,20.7695,-308.335,0.744009,0.0,0.0
340,84.75,56.3909,60.389,137.174,99.5493,91.0951,0.00320948,0.2596,20.7701,-308.465,0.787739,0.0,0.0
345,86,57.0434,61.3802,138.887,99.5517,91.5389,0.00324953,0.259295,20.7705,-308.545,0.744819,0.0,0.0
350,87.25,57.2461,61.3151,143.053,99.5622,91.4286,0.00325701,0.259187,20.7708,-308.645,0.756456,0.0,0.0
355,88.5,56.526,61.0016,138.036,99.5235,91.287,0.00316897,0.259992,20.7709,-308.795,0.76677,0.0,0.0
360,89.75,57.1253,61.3812,139.803,99.5416,91.881,0.003051,0.261645,20.7691,-308.855,0.710813,0.0,0.0
365,91,57.1286,61.2595,137.84,99.5433,91.1614,0.00288118,0.263952,20.7666,-308.956,0.780746,0.0,0.0
370,92.25,57.2848,61.8387,136.747,99.5441,91.0968,0.00273512,0.266692,20.7639,-309.076,0.787113,0.0,0.0
375,93.5,56.7584,60.9929,135.62,99.5356,91.5932,0.00260702,0.269115,20.7614,-309.216,0.738117,0.0,0.0
380,94.75,57.3746,61.561,141.219,99.5509,91.3907,0.00255372,0.270834,20.7599,-309.316,0.75913,0.0,0.0
385,96,57.2378,61.492,137.352,99.5565,91.9156,0.00257532,0.271797,20.7581,-309.406,0.708801,0.0,0.0
390,97.25,57.8694,61.9755,136.608,99.5618,91.7196,0.0026052,0.272709,20.757,-309.466,0.72821,0.0,0.0
395,98.5,57.049,61.6916,141.451,99.5437,91.9143,0.00256475,0.273391,20.755,-309.566,0.707772,0.0,0.0
400,99.75,57.1493,61.5492,138.61,99.5698,92.1066,0.00248909,0.273794,20.7536,-309.736,0.691558,0.0,0.0
405,101,57.2526,61.6331,135.489,99.575,92.056,0.00244074,0.273189,20.7527,-309.836,0.696905,0.0,0.0
410,102.25,57.5661,61.877,141.432,99.5734,91.6389,0.00246012,0.272807,20.7522,-309.967,0.737063,0.0,0.0
415,103.5,57.266,61.623,137.496,99.5871,91.932,0.00256453,0.273143,20.7516,-310.047,0.709938,0.0,0.0
420,104.75,57.1905,61.7358,137.082,99.6093,91.55,0.00268815,0.273532,20.7512,-310.167,0.748872,0.0,0.0
425,106,57.3594,61.7897,141.095,99.6193,92.093,0.00275751,0.273159,20.7516,-310.307,0.697279,0.0,0.0
430,107.25,57.7957,62.0166,139.523,99.6153,91.4891,0.00277492,0.271669,20.7542,-310.357,0.755318,0.0,0.0
435,108.5,57.0754,61.6871,140.851,99.6302,92.275,0.0027996,0.269487,20.7576,-310.417,0.680727,0.0,0.0
440,109.75,57.0616,61.4485,137.381,99.6507,91.9716,0.00287476,0.267952,20.7596,-310.517,0.711788,0.0,0.0
445,111,57.4035,61.8572,135.63,99.6769,91.6509,0.00296348,0.266552,20.762,-310.607,0.745121,0.0,0.0
450,112.25,56.8693,61.474,137.481,99.6684,91.4702,0.00304971,0.264797,20.7646,-310.747,0.761888,0.0,0.0
455,113.5,57.1514,61.3838,134.928,99.6889,91.8707,0.0031092,0.263532,20.7673,-310.867,0.724932,0.0,0.0
460,114.75,57.2353,61.4704,138.989,99.6954,91.732,0.00311111,0.261931,20.7708,-310.927,0.738919,0.0,0.0
465,116,57.5412,62.0638,138.129,99.6837,92.0506,0.00303409,0.258928,20.7745,-311.047,0.707102,0.0,0.0
470,117.25,56.7825,61.2389,139.993,99.6869,92.016,0.00294133,0.256219,20.7773,-311.118,0.710723,0.0,0.0
475,118.5,57.1386,61.3445,138.156,99.6998,92.1021,0.00287085,0.25452,20.779,-311.228,0.703575,0.0,0.0
480,119.75,56.825,61.2034,133.964,99.699,92.0362,0.0028252,0.253932,20.78,-311.328,0.709853,0.0,0.0
485,121,57.5362,61.5533,137.25,99.6982,91.804,0.00277159,0.253676,20.7816,-311.398,0.732201,0.0,0.0
490,122.25,57.0008,61.201,142.686,99.6893,92.1807,0.00270264,0.25315,20.7843,-311.488,0.695069,0.0,0.0
495,123.5,56.42,60.9061,140.2,99.6881,92.0424,0.00264402,0.252176,20.7862,-311.588,0.70829,0.0,0.0
500,124.75,57.0146,61.2413,137.101,99.6938,92.5323,0.00261133,0.251902,20.7874,-311.648,0.661675,0.0,0.0
505,126,56.7152,61.2365,137.483,99.6841,91.6167,0.00259663,0.252532,20.7871,-311.788,0.749075,0.0,0.0
510,127.25,56.644,60.8284,139.575,99.6829,91.6546,0.00260388,0.253266,20.7869,-311.828,0.745299,0.0,0.0
515,128.5,56.6218,61.1094,137.345,99.6962,92.4289,0.00264251,0.253348,20.7868,-311.938,0.671808,0.0,0.0
520,129.75,56.6644,60.9241,136.844,99.6865,91.8501,0.00267411,0.252942,20.787,-312.068,0.726706,0.0,0.0
525,131,57.0421,61.3731,141.335,99.6853,92.1873,0.00269578,0.252224,20.7881,-312.108,0.694077,0.0,0.0
530,132.25,56.5211,60.7677,137.81,99.6897,91.9032,0.00269952,0.251317,20.7899,-312.208,0.721862,0.0,0.0
535,133.5,57.0694,61.293,135.804,99.6914,91.9267,0.00270881,0.250652,20.7917,-312.309,0.719739,0.0,0.0
540,134.75,56.675,61.0287,138.124,99.693,91.8789,0.00271825,0.249908,20.7931,-312.399,0.724495,0.0,0.0
545,136,56.5212,60.8723,141.671,99.7095,92.1185,0.00272244,0.249746,20.7937,-312.549,0.702848,0.0,0.0
550,137.25,56.4737,61.0954,141.062,99.7103,91.8246,0.0027485,0.249962,20.794,-312.599,0.731287,0.0,0.0
555,138.5,56.364,60.9036,140.317,99.726,91.3438,0.00279917,0.250302,20.7943,-312.679,0.779283,0.0,0.0
560,139.75,56.5607,61.0617,141.673,99.7231,91.5146,0.00283941,0.249811,20.7944,-312.739,0.762447,0.0,0.0
565,141,56.4682,60.7606,140.604,99.7308,92.2009,0.00285712,0.248585,20.7974,-312.819,0.696816,0.0,0.0
570,142.25,56.1797,60.6752,138.073,99.7417,91.8715,0.00286519,0.24686,20.7992,-312.929,0.729545,0.0,0.0
575,143.5,56.8831,61.2571,138.635,99.7384,91.9378,0.00286719,0.245621,20.801,-313.029,0.722857,0.0,0.0
580,144.75,56.3193,60.4899,141.151,99.73,92.1688,0.0028415,0.244315,20.8021,-313.079,0.699837,0.0,0.0
585,146,56.2901,60.5971,144.053,99.7509,91.5574,0.0028052,0.243322,20.8034,-313.179,0.760767,0.0,0.0
590,147.25,56.2975,60.7078,142.682,99.769,91.7229,0.00277311,0.241442,20.8052,-313.249,0.74635,0.0,0.0
595,148.5,56.204,60.5704,143.089,99.7682,91.4191,0.00275546,0.239497,20.8077,-313.37,0.775727,0.0,0.0
600,149.75,55.9791,60.0475,138.448,99.7626,91.2635,0.00273496,0.238359,20.8099,-313.45,0.790346,0.0,0.0
605,151,55.9769,60.3173,141.281,99.7831,91.7826,0.00269092,0.237344,20.8114,-313.52,0.741828,0.0,0.0
610,152.25,55.7659,59.9523,139.17,99.7952,91.9946,0.00262226,0.236613,20.8131,-313.64,0.722423,0.0,0.0
615,153.5,55.4736,59.4689,143.937,99.7952,91.7237,0.00257327,0.236373,20.814,-313.68,0.748597,0.0,0.0
620,154.75,56.0898,60.2197,141.849,99.7964,91.5797,0.0025541,0.236254,20.8146,-313.75,0.762658,0.0,0.0
625,156,55.766,60.0744,140.823,99.8169,91.7419,0.00256888,0.236309,20.8149,-313.81,0.748778,0.0,0.0
630,157.25,55.6404,60.002,144.663,99.829,91.3961,0.00258826,0.23624,20.8151,-313.91,0.78337,0.0,0.0
635,158.5,55.6123,59.3238,139.862,99.835,91.9654,0.00255945,0.235601,20.8159,-314,0.728786,0.0,0.0
640,159.75,55.3073,59.6372,138.942,99.8475,92.0638,0.00251846,0.234874,20.8167,-314.06,0.720405,0.0,0.0
645,161,55.4903,59.8581,143.242,99.8801,91.4739,0.00248926,0.234347,20.8174,-314.15,0.780361,0.0,0.0
650,162.25,55.4421,59.5688,142.073,99.8837,91.2343,0.00247202,0.233817,20.8185,-314.25,0.803961,0.0,0.0
655,163.5,55.4588,59.5796,140.948,99.8668,91.5319,0.00246184,0.233274,20.8192,-314.36,0.77355,0.0,0.0
660,164.75,54.9453,59.1171,139.392,99.8753,91.2944,0.00244348,0.233492,20.8196,-314.421,0.797364,0.0,0.0
665,166,55.1629,59.3534,140.861,99.893,91.1754,0.00241133,0.234289,20.8198,-314.521,0.810512,0.0,0.0
670,167.25,55.3564,59.3392,141.157,99.8861,91.9143,0.00239589,0.234246,20.82,-314.601,0.738258,0.0,0.0
675,168.5,55.0269,59.0971,143.735,99.8801,91.7596,0.0024126,0.232974,20.8205,-314.651,0.752681,0.0,0.0
680,169.75,54.5786,58.8026,137.053,99.891,91.2882,0.00241971,0.23169,20.8216,-314.681,0.79936,0.0,0.0
685,171,54.5275,58.6163,141.314,99.9018,90.9222,0.0024136,0.231193,20.8223,-314.751,0.835981,0.0,0.0
690,172.25,54.8188,58.7541,136.87,99.8946,91.0214,0.00241399,0.231673,20.8226,-314.851,0.825656,0.0,0.0
695,173.5,54.9169,58.7974,140.343,99.8922,91.2232,0.00244151,0.232066,20.8229,-314.901,0.805794,0.0,0.0
700,174.75,54.574,58.4228,138.317,99.9071,91.5755,0.00248482,0.232107,20.8236,-314.981,0.772895,0.0,0.0
705,176,54.6945,58.6667,139.061,99.9018,91.2483,0.00253063,0.231412,20.8244,-315.051,0.804209,0.0,0.0
710,177.25,54.5423,58.5471,138.987,99.8938,91.1058,0.00255574,0.230762,20.8249,-315.141,0.81736,0.0,0.0
715,178.5,54.1444,58.085,140.756,99.8994,90.8387,0.00256452,0.230549,20.8252,-315.231,0.843928,0.0,0.0
720,179.75,54.0699,58.3686,137.193,99.9171,90.7469,0.00256243,0.230056,20.8261,-315.291,0.854475,0.0,0.0
725,181,54.1941,58.5334,140.799,99.9079,91.0466,0.00254774,0.229324,20.8278,-315.381,0.824388,0.0,0.0
730,182.25,54.4522,58.2895,140.748,99.9042,90.511,0.00252875,0.228696,20.8288,-315.441,0.876434,0.0,0.0
735,183.5,54.1788,58.2712,140.409,99.9059,91.1487,0.00252598,0.228568,20.8293,-315.531,0.814262,0.0,0.0
740,184.75,54.3507,58.4324,142.212,99.9312,90.8461,0.00256094,0.229092,20.8297,-315.592,0.846029,0.0,0.0
745,186,54.205,58.1678,138.885,99.9236,90.5344,0.00264087,0.230527,20.8292,-315.662,0.87585,0.0,0.0
750,187.25,54.0472,58.0295,142.01,99.9139,90.8621,0.00271951,0.231476,20.8281,-315.702,0.842922,0.0,0.0
755,188.5,54.2259,58.1873,140.135,99.9195,90.6621,0.00274302,0.231911,20.8274,-315.822,0.86299,0.0,0.0
760,189.75,54.1524,58.1149,142.128,99.936,91.0449,0.00270689,0.231563,20.8279,-315.852,0.827052,0.0,0.0
765,191,54.0445,57.9915,135.325,99.9163,91.0198,0.00267322,0.23058,20.8292,-315.932,0.827748,0.0,0.0
770,192.25,54.07,58.0758,140.17,99.9127,90.4484,0.00264479,0.229732,20.8299,-316.002,0.883324,0.0,0.0
775,193.5,53.815,57.8361,141.996,99.9288,90.4929,0.00262581,0.22963,20.8297,-316.072,0.880391,0.0,0.0
780,194.75,54.0726,58.0785,142.189,99.9509,90.3817,0.00262937,0.230172,20.8292,-316.132,0.893267,0.0,0.0
785,196,54.1296,58.0161,140.729,99.9232,90.1594,0.00264803,0.23092,20.829,-316.212,0.912658,0.0,0.0
790,197.25,53.8265,57.5605,139.02,99.9316,90.5995,0.00265573,0.231129,20.8285,-316.282,0.870189,0.0,0.0
795,198.5,54.1449,57.921,146.506,99.9344,90.7798,0.00264897,0.230786,20.8292,-316.362,0.852793,0.0,0.0
800,199.75,53.5498,57.5037,138.629,99.9473,90.3994,0.00264355,0.230154,20.8305,-316.432,0.891207,0.0,0.0
805,201,53.7855,57.7198,143.77,99.9377,90.2936,0.00269802,0.2293,20.8313,-316.482,0.900743,0.0,0.0
810,202.25,53.7049,57.504,139.542,99.9505,90.3747,0.00278333,0.22841,20.8327,-316.602,0.893918,0.0,0.0
815,203.5,53.7602,57.5783,149.207,99.9453,89.9219,0.00285264,0.227443,20.8336,-316.602,0.93804,0.0,0.0
820,204.75,53.4324,57.2982,139.755,99.9437,90.0656,0.00287045,0.226588,20.8341,-316.723,0.923727,0.0,0.0
825,206,53.5794,57.2845,142.309,99.9453,89.7654,0.00283829,0.225442,20.8352,-316.793,0.953495,0.0,0.0
830,207.25,53.1532,57.0785,144.482,99.9453,90.8317,0.00281915,0.224139,20.8362,-316.853,0.848687,0.0,0.0
835,208.5,53.3683,57.2269,140.135,99.9521,90.6242,0.00281849,0.224079,20.8376,-316.883,0.869593,0.0,0.0
840,209.75,53.6548,57.2154,139.208,99.9389,90.7456,0.00283143,0.224372,20.8388,-316.923,0.856527,0.0,0.0
845,211,53.2627,57.1878,146.124,99.9268,90.1594,0.00287161,0.223983,20.8394,-317.033,0.91298,0.0,0.0
850,212.25,53.0122,56.8567,137.187,99.9453,90.462,0.00292092,0.223213,20.8408,-317.113,0.884886,0.0,0.0
855,213.5,53.163,56.9395,144.627,99.9377,89.9548,0.00295862,0.222268,20.8416,-317.163,0.934111,0.0,0.0
860,214.75,52.9632,56.7711,141.841,99.9191,90.4365,0.00300106,0.221393,20.8424,-317.233,0.885068,0.0,0.0
865,216,53.1246,57.0676,140.871,99.9256,90.2195,0.00303531,0.220876,20.8436,-317.293,0.906958,0.0,0.0
870,217.25,52.4077,56.2398,139.999,99.9163,90.3356,0.00303235,0.220624,20.8447,-317.323,0.894721,0.0,0.0
875,218.5,52.4718,56.1687,143.726,99.9046,90.5645,0.00299993,0.220002,20.8453,-317.403,0.871223,0.0,0.0
880,219.75,52.7045,56.6264,134.203,99.8821,90.1849,0.00294481,0.219086,20.8466,-317.493,0.906499,0.0,0.0
885,221,52.7324,56.5595,140.634,99.8785,90.6892,0.00288137,0.218134,20.8474,-317.523,0.856681,0.0,0.0
890,222.25,52.4847,56.0814,143.404,99.8749,90.7036,0.00285922,0.217791,20.8479,-317.603,0.854951,0.0,0.0
895,223.5,52.551,56.2285,139.019,99.8644,90.3862,0.00288204,0.217907,20.8482,-317.643,0.885135,0.0,0.0
900,224.75,52.4346,56.0874,141.317,99.8531,90.1429,0.00289304,0.218166,20.8483,-317.683,0.908057,0.0,0.0
905,226,52.4546,56.0013,143.433,99.8266,90.5344,0.00287397,0.217778,20.8491,-317.783,0.86723,0.0,0.0
910,227.25,52.8128,56.5518,140.961,99.8133,90.5011,0.0028499,0.217183,20.8498,-317.844,0.869319,0.0,0.0
915,228.5,52.1754,55.6898,139.737,99.7992,90.6267,0.00284457,0.216749,20.8503,-317.924,0.85576,0.0,0.0
920,229.75,52.4019,56.0665,137.553,99.7602,90.2903,0.00285131,0.216638,20.8505,-317.984,0.88529,0.0,0.0
925,231,52.4643,55.6706,142.326,99.767,89.658,0.00284942,0.217109,20.8507,-318.034,0.948278,0.0,0.0
930,232.25,52.7649,56.4465,141.565,99.7425,90.217,0.00287751,0.217624,20.8496,-318.064,0.89092,0.0,0.0
935,233.5,52.2374,55.7491,143.235,99.6942,90.7308,0.00293666,0.218521,20.8484,-318.174,0.836219,0.0,0.0
940,234.75,52.1119,55.506,139.646,99.6749,90.2306,0.00303896,0.219528,20.8475,-318.224,0.883565,0.0,0.0
945,236,53.0694,56.3822,140.676,99.6664,90.0005,0.00315286,0.219878,20.847,-318.274,0.905479,0.0,0.0
950,237.25,52.7713,55.9019,140.774,99.6467,89.8523,0.00323573,0.220238,20.8466,-318.314,0.91835,0.0,0.0
955,238.5,52.1447,55.6537,142.444,99.6024,89.6539,0.00331122,0.220756,20.8459,-318.374,0.934029,0.0,0.0
960,239.75,52.4138,56.2346,142.365,99.5638,89.9104,0.00336119,0.2212,20.8453,-318.434,0.90523,0.0,0.0
965,241,52.8003,56.0709,143.315,99.5525,89.7428,0.00336148,0.222301,20.8429,-318.514,0.920782,0.0,0.0
970,242.25,52.0471,55.5976,143.096,99.5034,89.0858,0.00334079,0.224189,20.841,-318.584,0.981626,0.0,0.0
975,243.5,52.2517,55.6588,136.919,99.4648,90.1401,0.00334101,0.225599,20.8394,-318.674,0.873751,0.0,0.0
980,244.75,52.0526,54.9693,136.938,99.4491,89.8301,0.0033875,0.225874,20.8391,-318.724,0.902927,0.0,0.0
985,246,51.6697,55.0484,143.698,99.3992,89.6568,0.00344508,0.225299,20.8401,-318.784,0.915614,0.0,0.0
990,247.25,52.0817,55.5539,143.385,99.3662,89.3904,0.00349227,0.224047,20.8418,-318.844,0.939074,0.0,0.0
995,248.5,51.9865,55.5901,140.691,99.2974,89.4234,0.00352874,0.22294,20.8428,-318.904,0.929655,0.0,0.0
1000,249.75,51.9985,55.7495,139.368,99.2551,89.2797,0.00358967,0.222291,20.8434,-318.955,0.940149,0.0,0.0
1005,251,52.4631,55.7828,143.134,99.2036,88.7536,0.0036372,0.221776,20.8438,-319.045,0.988001,0.0,0.0
1010,252.25,51.4808,54.8772,144.224,99.1396,89.348,0.00364474,0.221299,20.844,-319.095,0.923022,0.0,0.0
1015,253.5,51.7894,55.417,142.25,99.0639,89.5213,0.00361745,0.221162,20.8449,-319.135,0.899046,0.0,0.0
1020,254.75,51.0289,54.7701,144.885,99.0651,89.2673,0.00355469,0.220815,20.8456,-319.195,0.924373,0.0,0.0
1025,256,51.1625,54.5876,139.104,99.0623,89.1117,0.00347574,0.220552,20.846,-319.275,0.939607,0.0,0.0
1030,257.25,52.1893,55.3961,138.758,99.0583,88.9149,0.00339669,0.220337,20.8473,-319.365,0.958868,0.0,0.0
1035,258.5,51.7518,54.5569,140.237,99.0748,89.6349,0.00336529,0.219182,20.848,-319.405,0.888761,0.0,0.0
1040,259.75,52.6667,55.575,142.779,99.0929,89.4888,0.00341403,0.217795,20.85,-319.445,0.904867,0.0,0.0
1045,261,51.4618,54.6537,139.423,99.0965,88.5449,0.00353036,0.21662,20.8529,-319.465,0.999316,0.0,0.0
1050,262.25,51.5446,55.0371,145.318,99.107,89.5617,0.00365998,0.215539,20.8555,-319.515,0.898903,0.0,0.0
1055,263.5,51.3722,54.554,145.833,99.1211,89.0323,0.00375292,0.21447,20.8581,-319.555,0.952788,0.0,0.0
1060,264.75,50.9487,54.6116,145.137,99.1488,89.6522,0.00381029,0.21353,20.8598,-319.635,0.89368,0.0,0.0
1065,266,51.4853,54.8098,142.357,99.1416,89.1319,0.00381308,0.212598,20.8622,-319.715,0.9447,0.0,0.0
1070,267.25,51.4009,54.652,143.741,99.1545,89.5876,0.00378734,0.211409,20.8639,-319.775,0.900586,0.0,0.0
1075,268.5,51.703,55.0846,138.312,99.1754,89.0187,0.00374681,0.210573,20.8659,-319.815,0.959007,0.0,0.0
1080,269.75,50.9832,54.325,140.125,99.1947,88.7025,0.00370287,0.210415,20.8671,-319.855,0.992316,0.0,0.0
1085,271,51.3962,54.6399,140.509,99.1915,89.3616,0.00364696,0.209902,20.8678,-319.925,0.92632,0.0,0.0
1090,272.25,51.5251,54.4043,139.255,99.2261,89.3686,0.00360493,0.209071,20.8692,-319.985,0.928721,0.0,0.0
1095,273.5,51.6901,54.6206,141.326,99.2261,88.9759,0.00361068,0.208014,20.87,-320.056,0.967814,0.0,0.0
1100,274.75,51.2496,54.3608,147.096,99.2487,89.9029,0.00367183,0.206678,20.871,-320.106,0.877825,0.0,0.0
1105,276,51.1871,54.3353,142.973,99.2644,89.5357,0.00370145,0.205023,20.8735,-320.156,0.915556,0.0,0.0
1110,277.25,50.7285,53.8879,144.275,99.2756,89.3628,0.00367301,0.20357,20.8764,-320.216,0.933721,0.0,0.0
1115,278.5,50.8327,53.8887,144.743,99.2857,89.0623,0.00363004,0.20255,20.8779,-320.256,0.96452,0.0,0.0
1120,279.75,50.7726,53.8091,142.886,99.3002,88.9425,0.00359585,0.201362,20.8803,-320.286,0.977762,0.0,0.0
1125,281,51.0215,54.0196,147.501,99.3074,89.5646,0.00362244,0.199886,20.8832,-320.386,0.91655,0.0,0.0
1130,282.25,50.5934,53.9256,140.12,99.3151,89.5131,0.00367256,0.198656,20.885,-320.356,0.922335,0.0,0.0
1135,283.5,50.8162,54.0226,141.498,99.3304,88.6058,0.00374196,0.198762,20.8858,-320.406,1.01413,0.0,0.0
1140,284.75,50.3621,53.6918,145.636,99.3231,89.7243,0.00385021,0.19993,20.8842,-320.496,0.902138,0.0,0.0
1145,286,50.3645,53.2222,139.06,99.3312,88.9923,0.00393179,0.201297,20.8822,-320.576,0.975562,0.0,0.0
1150,287.25,50.6566,53.6657,147.386,99.363,90.4052,0.00399925,0.202238,20.881,-320.636,0.838593,0.0,0.0
1155,288.5,50.5878,53.4937,141.886,99.3654,89.1294,0.00404857,0.202525,20.8804,-320.676,0.964955,0.0,0.0
1160,289.75,50.2174,53.3407,143.392,99.3589,89.2727,0.00409852,0.202791,20.88,-320.716,0.950125,0.0,0.0
1165,291,50.9714,54.179,142.409,99.3694,89.367,0.00417086,0.203192,20.8789,-320.766,0.941692,0.0,0.0
1170,292.25,49.6504,52.8281,142.54,99.404,89.3995,0.00423107,0.203505,20.8781,-320.816,0.941554,0.0,0.0
1175,293.5,50.1732,53.2083,141.541,99.4217,89.4044,0.00425715,0.203594,20.8782,-320.836,0.942644,0.0,0.0
1180,294.75,50.4205,53.3739,144.978,99.4141,89.9898,0.00427271,0.202786,20.8796,-320.926,0.884034,0.0,0.0
1185,296,50.6946,53.3776,140.565,99.4446,89.306,0.00427965,0.202029,20.8805,-320.946,0.954465,0.0,0.0
1190,297.25,49.6577,52.4162,141.652,99.4636,89.1364,0.00427442,0.201906,20.8803,-321.016,0.973027,0.0,0.0
1195,298.5,50.2644,53.1385,140.26,99.4716,89.1014,0.00426003,0.202118,20.8799,-321.036,0.977229,0.0,0.0
1200,299.75,50.1861,53.0883,136.628,99.4777,88.8499,0.0042216,0.201861,20.8797,-321.096,1.00286,0.0,0.0
1205,301,49.4889,52.667,147.055,99.5046,89.6012,0.00413488,0.201471,20.8795,-321.136,0.930528,0.0,0.0
1210,302.25,49.5728,52.7168,144.869,99.5231,88.8874,0.0040406,0.201869,20.8794,-321.187,1.00318,0.0,0.0
1215,303.5,49.9299,52.8149,149.044,99.5183,89.4579,0.0039483,0.202533,20.8794,-321.257,0.945952,0.0,0.0
1220,304.75,49.8507,52.51,143.012,99.5457,90.0149,0.00390172,0.202632,20.8794,-321.287,0.893299,0.0,0.0
1225,306,49.672,52.37,143.214,99.5626,89.4106,0.00388828,0.202035,20.8793,-321.327,0.954598,0.0,0.0
1230,307.25,49.9021,52.6572,143.324,99.5714,89.5777,0.00385247,0.201496,20.8812,-321.377,0.93881,0.0,0.0
1235,308.5,49.7097,52.5892,144.196,99.5589,89.2785,0.00380112,0.20113,20.8829,-321.437,0.967403,0.0,0.0
1240,309.75,49.5827,52.4388,141.69,99.567,88.9207,0.00376995,0.200653,20.8846,-321.497,1.00376,0.0,0.0
1245,311,49.4503,52.2432,141.893,99.5843,89.6329,0.00378559,0.199379,20.8861,-321.547,0.934494,0.0,0.0
1250,312.25,49.7004,52.63,143.071,99.5899,90.2051,0.00387224,0.196906,20.8893,-321.607,0.878511,0.0,0.0
1255,313.5,49.764,52.4426,145.168,99.5863,90.8461,0.0039674,0.193805,20.8927,-321.607,0.815342,0.0,0.0
1260,314.75,49.7543,52.6229,144.27,99.5988,89.6551,0.00401645,0.190894,20.8965,-321.657,0.933584,0.0,0.0
1265,316,49.6673,52.0493,145.107,99.6105,90.5266,0.00397915,0.187879,20.9011,-321.667,0.84876,0.0,0.0
1270,317.25,49.0948,51.7568,142.04,99.6129,90.709,0.00392875,0.184802,20.905,-321.727,0.831112,0.0,0.0
1275,318.5,49.0299,51.8556,143.279,99.6149,90.6406,0.00386963,0.181571,20.909,-321.747,0.837981,0.0,0.0
1280,319.75,48.5308,51.7359,143.981,99.6161,91.1342,0.00380734,0.178098,20.9138,-321.787,0.789884,0.0,0.0
1285,321,48.413,51.5386,145.205,99.6241,90.5731,0.00374168,0.174696,20.9188,-321.857,0.845419,0.0,0.0
1290,322.25,48.5626,51.4231,143.406,99.6209,90.9766,0.00366819,0.171206,20.9241,-321.857,0.805684,0.0,0.0
1295,323.5,48.574,51.3831,145.336,99.6197,91.5805,0.00360222,0.167671,20.929,-321.907,0.746851,0.0,0.0
1300,324.75,48.6161,50.9377,146.305,99.6354,91.8794,0.00359875,0.16408,20.9331,-321.927,0.719329,0.0,0.0
1305,326,48.289,50.822,145.025,99.6314,91.7085,0.00364585,0.159824,20.9379,-321.967,0.735491,0.0,0.0
1310,327.25,48.1012,50.9954,145.594,99.629,92.3042,0.00368906,0.155815,20.9435,-321.977,0.677808,0.0,0.0
1315,328.5,48.1051,50.5395,145.417,99.6209,92.2128,0.0036985,0.152235,20.9485,-322.017,0.685884,0.0,0.0
1320,329.75,47.5962,50.6364,145.652,99.6346,92.2379,0.00369733,0.148737,20.9527,-322.047,0.684686,0.0,0.0
1325,331,47.5238,49.9935,149.856,99.6463,92.0514,0.00372214,0.145576,20.9561,-322.067,0.703689,0.0,0.0
1330,332.25,47.53125,50.2419,149.762,99.6189,92.1651,0.0037728,0.142732,20.9599,-322.087,0.690302,0.0,0.0
1335,333.5,47.1403,49.9418,147.232,99.6141,92.7694,0.00382364,0.139673,20.9641,-322.077,0.631862,0.0,0.0
1340,334.75,46.6257,49.3484,145.897,99.6157,92.7439,0.00385569,0.136379,20.9693,-322.127,0.634448,0.0,0.0
1345,336,46.9512,49.8019,142.812,99.602,92.6969,0.00387213,0.133378,20.9741,-322.147,0.63772,0.0,0.0
1350,337.25,47.0277,49.7364,149.905,99.5936,92.8217,0.00388074,0.130355,20.9781,-322.147,0.625032,0.0,0.0
1355,338.5,46.5737,49.4828,145.233,99.5932,93.2794,0.00388548,0.127837,20.9812,-322.177,0.581328,0.0,0.0
1360,339.75,46.6572,49.1062,148.105,99.5899,93.3021,0.00387975,0.125577,20.9842,-322.177,0.578888,0.0,0.0
1365,341,45.8811,48.1923,147.965,99.5787,92.8925,0.00386144,0.123557,20.9866,-322.187,0.616936,0.0,0.0
1370,342.25,46.4701,48.5909,144.192,99.5537,93.1954,0.00383416,0.12118,20.9896,-322.217,0.585808,0.0,0.0
1375,343.5,46.4489,48.5904,151.211,99.5589,93.3712,0.00382438,0.118869,20.9932,-322.247,0.569548,0.0,0.0
1380,344.75,45.925,48.47,146.474,99.5618,93.5071,0.0038454,0.11733,20.9965,-322.237,0.556895,0.0,0.0
1385,346,45.7849,48.3612,146.398,99.5473,93.0674,0.00389536,0.115641,20.9995,-322.277,0.597436,0.0,0.0
1390,347.25,45.4583,47.7998,149.975,99.5288,93.188,0.00395097,0.113884,21.0022,-322.328,0.584289,0.0,0.0
1395,348.5,45.5853,47.6986,148.57,99.5352,93.3169,0.00399238,0.112269,21.0051,-322.298,0.572598,0.0,0.0
1400,349.75,45.246,47.6501,143.988,99.5251,92.7974,0.00402681,0.1108,21.008,-322.308,0.621254,0.0,0.0
1405,351,45.2631,47.3681,140.337,99.4785,93.0641,0.00404401,0.109141,21.0103,-322.318,0.591611,0.0,0.0
1410,352.25,45.3172,47.7952,147.67,99.4857,93.5207,0.00405026,0.107504,21.0116,-322.378,0.548822,0.0,0.0
1415,353.5,44.7202,47.1535,147.588,99.4724,93.1115,0.00405239,0.106364,21.0128,-322.378,0.586559,0.0,0.0
1420,354.75,44.5884,46.9252,148.122,99.4455,93.7734,0.00408763,0.105508,21.0135,-322.368,0.521273,0.0,0.0
1425,356,44.4564,46.9168,144.412,99.4125,93.0242,0.00414026,0.104756,21.0144,-322.388,0.589529,0.0,0.0
1430,357.25,44.3741,46.473,150.117,99.3927,93.2057,0.00416967,0.104109,21.0154,-322.388,0.570463,0.0,0.0
1435,358.5,44.1617,46.548,147.12,99.3827,93.4709,0.00418024,0.103399,21.0166,-322.438,0.544353,0.0,0.0
1440,359.75,43.9122,46.172,151.315,99.3541,93.0938,0.00416123,0.102354,21.0177,-322.448,0.577682,0.0,0.0
1445,361,43.8868,46.114,146.458,99.3255,93.0156,0.00413594,0.101498,21.019,-322.448,0.582589,0.0,0.0
1450,362.25,43.5057,45.6516,149.272,99.3199,93.1926,0.00416329,0.10062,21.0201,-322.498,0.565211,0.0,0.0
1455,363.5,43.4791,45.6952,146.363,99.2873,93.0378,0.00423062,0.100077,21.021,-322.498,0.577052,0.0,0.0
1460,364.75,43.5648,45.7733,145.066,99.2495,93.1646,0.00432045,0.099659,21.0227,-322.488,0.561581,0.0,0.0
1465,366,43.4974,45.8009,149.665,99.2173,92.818,0.00442299,0.0990881,21.0242,-322.518,0.591786,0.0,0.0
1470,367.25,43.1617,45.1691,147.937,99.1939,93.0295,0.00456016,0.0983402,21.0251,-322.558,0.569487,0.0,0.0
1475,368.5,42.7527,45.0086,147.867,99.171,92.6389,0.00471511,0.0975646,21.0261,-322.558,0.604786,0.0,0.0
1480,369.75,43.0257,45.0407,152.081,99.1295,92.9884,0.0048502,0.0966512,21.0278,-322.548,0.567652,0.0,0.0
1485,371,42.3798,44.7017,149.869,99.0933,92.92,0.00494194,0.0954934,21.0292,-322.568,0.570933,0.0,0.0
1490,372.25,42.5973,44.3815,147.087,99.0837,92.8813,0.00498393,0.0947269,21.03,-322.608,0.573765,0.0,0.0
1495,373.5,42.475,44.6008,149.212,99.0341,92.7159,0.00498241,0.0945578,21.0304,-322.578,0.585158,0.0,0.0
1500,374.75,42.5564,44.6643,147.568,99.0003,92.6039,0.00498356,0.0946268,21.0307,-322.628,0.592854,0.0,0.0
1505,376,42.0898,43.9579,149.436,98.979,92.4133,0.00500911,0.0945169,21.0311,-322.648,0.60923,0.0,0.0
1510,377.25,42.2792,43.8634,152.165,98.9613,92.6195,0.00505293,0.0938796,21.0323,-322.678,0.587854,0.0,0.0
1515,378.5,41.8158,43.8314,146.088,98.9215,92.5998,0.00506919,0.0934241,21.0333,-322.668,0.586173,0.0,0.0
1520,379.75,41.8641,43.8618,147.396,98.886,92.5014,0.00505637,0.0930741,21.0339,-322.698,0.592431,0.0,0.0
1525,381,41.6398,43.4477,147.667,98.8683,92.7047,0.00495676,0.0928169,21.0343,-322.758,0.571349,0.0,0.0
1530,382.25,41.2926,43.3299,146.723,98.8394,93.0468,0.00485459,0.0925747,21.0345,-322.708,0.536053,0.0,0.0
1535,383.5,40.7012,43.0017,154.132,98.7927,92.6776,0.00480257,0.0923708,21.0346,-322.678,0.567156,0.0,0.0
1540,384.75,40.8362,42.8661,148.204,98.7766,93.1773,0.00478004,0.0924296,21.0347,-322.708,0.517974,0.0,0.0
1545,386,40.6797,42.7692,148.86,98.771,92.3614,0.00480581,0.092744,21.0347,-322.728,0.595533,0.0,0.0
1550,387.25,40.3426,42.0581,147.566,98.7267,92.1334,0.00485286,0.0930436,21.035,-322.778,0.613499,0.0,0.0
1555,388.5,40.0226,41.502,149.035,98.7013,92.2482,0.00489568,0.093045,21.0353,-322.758,0.600161,0.0,0.0
1560,389.75,40.2806,41.7211,154.045,98.6683,92.3223,0.00492337,0.0926332,21.0355,-322.788,0.590066,0.0,0.0
1565,391,39.8368,41.9725,149.809,98.6478,92.4092,0.00494708,0.091787,21.0365,-322.808,0.579872,0.0,0.0
1570,392.25,39.8229,41.8336,146.103,98.6208,92.6743,0.00497145,0.0911609,21.0371,-322.798,0.552017,0.0,0.0
1575,393.5,39.4052,41.4517,148.57,98.5713,92.7854,0.00500791,0.0912134,21.0375,-322.808,0.536922,0.0,0.0
1580,394.75,39.6808,41.7037,144.589,98.5625,92.7817,0.00504718,0.0914094,21.0377,-322.848,0.536479,0.0,0.0
1585,396,40.0523,41.505,149.986,98.5251,92.4289,0.00504546,0.0913511,21.0378,-322.858,0.566923,0.0,0.0
1590,397.25,39.5341,41.0376,145.974,98.4872,92.3194,0.00499747,0.0909997,21.0379,-322.858,0.574036,0.0,0.0
1595,398.5,39.6781,41.3291,145.365,98.4619,92.2136,0.00493547,0.0906031,21.038,-322.868,0.581929,0.0,0.0
1600,399.75,39.6114,41.2849,151.24,98.451,92.3503,0.00482234,0.0905386,21.0371,-322.878,0.567803,0.0,0.0
1605,401,38.8881,40.7823,153.017,98.4313,92.263,0.0047314,0.0905024,21.0366,-322.948,0.574417,0.0,0.0
1610,402.25,39.5769,40.9438,149.307,98.3991,92.3235,0.00467049,0.0902698,21.0363,-322.928,0.565694,0.0,0.0
1615,403.5,39.3654,41.1181,145.03,98.3918,92.5463,0.0046492,0.0899777,21.0361,-322.908,0.543655,0.0,0.0
1620,404.75,39.427,40.9892,146.535,98.377,92.3141,0.00464796,0.0898824,21.036,-322.938,0.564608,0.0,0.0
1625,406,39.0464,40.9454,151.375,98.3653,92.1721,0.0046539,0.0902101,21.0359,-322.938,0.577221,0.0,0.0
1630,407.25,38.7497,40.9141,148.893,98.3452,91.8085,0.00466027,0.0906268,21.0359,-322.968,0.610479,0.0,0.0
1635,408.5,39.6107,41.0327,153.439,98.3343,92.072,0.00465047,0.0905913,21.0356,-322.988,0.584063,0.0,0.0
1640,409.75,38.7958,40.4213,151.304,98.3468,92.0481,0.00463984,0.0902376,21.0354,-322.998,0.587491,0.0,0.0
1645,411,38.6784,40.6912,146.567,98.3371,92.0053,0.00463845,0.0897581,21.0352,-323.018,0.590748,0.0,0.0
1650,412.25,38.4158,40.9217,147.964,98.3311,92.6051,0.00465326,0.0892646,21.0361,-322.998,0.532527,0.0,0.0
1655,413.5,38.6691,40.5852,147.348,98.352,92.3392,0.00468848,0.0891301,21.0366,-323.008,0.559942,0.0,0.0
1660,414.75,38.8208,40.6309,148.164,98.3778,92.7603,0.00474338,0.0891782,21.0365,-323.028,0.521877,0.0,0.0
1665,416,38.7904,39.6873,153.452,98.3637,93.0378,0.00480468,0.0892426,21.0363,-323.028,0.494096,0.0,0.0
1670,417.25,38.3268,40.3014,152.352,98.3749,92.3153,0.00481056,0.0893107,21.0363,-323.058,0.564307,0.0,0.0
1675,418.5,38.789,40.0035,145.6,98.418,92.5957,0.00476011,0.0893412,21.0357,-323.078,0.541277,0.0,0.0
1680,419.75,38.6695,39.7054,148.701,98.4385,91.9543,0.0046907,0.0892496,21.0354,-323.048,0.604824,0.0,0.0
1685,421,38.0181,40.2778,149.186,98.4566,92.8554,0.00466047,0.0889855,21.0352,-323.078,0.519895,0.0,0.0
1690,422.25,38.5972,40.1307,147.218,98.5021,92.5475,0.00468134,0.0886726,21.0352,-323.098,0.553478,0.0,0.0
1695,423.5,38.2738,40.0117,148.264,98.5444,92.156,0.00474197,0.0883832,21.0352,-323.108,0.594912,0.0,0.0
1700,424.75,38.116,39.747,151.936,98.5725,92.6632,0.00474217,0.0884907,21.0352,-323.108,0.548734,0.0,0.0
1705,426,38.3089,39.9426,149.273,98.6007,92.6179,0.00466893,0.088995,21.0352,-323.128,0.555611,0.0,0.0
1710,427.25,38.1942,39.1008,148.46,98.6546,92.2367,0.00457694,0.0894055,21.0352,-323.148,0.597071,0.0,0.0
1715,428.5,37.586,39.2634,147.752,98.7049,92.6088,0.00449093,0.0894256,21.0355,-323.148,0.565856,0.0,0.0
1720,429.75,37.9534,40.0598,147.733,98.7589,92.841,0.00442661,0.0893688,21.0357,-323.128,0.548479,0.0,0.0
1725,431,37.8511,39.6955,155.144,98.7911,93.5096,0.00437529,0.089217,21.0358,-323.158,0.487685,0.0,0.0
1730,432.25,37.7605,39.5811,151.985,98.8531,93.1008,0.00430482,0.0888267,21.0367,-323.168,0.532139,0.0,0.0
1735,433.5,38.3288,38.9327,147.707,98.9195,93.4235,0.00425196,0.088386,21.0374,-323.168,0.507383,0.0,0.0
1740,434.75,38.0368,39.2805,149.937,98.9637,93.4433,0.00424961,0.0881778,21.0378,-323.198,0.509477,0.0,0.0
1745,436,38.0084,39.5798,148.847,99.0297,92.9925,0.00429026,0.0881229,21.0381,-323.198,0.558317,0.0,0.0
1750,437.25,37.6284,39.352,150.439,99.0973,93.4556,0.0043276,0.0881105,21.0382,-323.218,0.52028,0.0,0.0
1755,438.5,37.4352,39.3666,153.511,99.1617,93.3577,0.00432321,0.0880123,21.0387,-323.218,0.535356,0.0,0.0
1760,439.75,37.869,39.232,152.683,99.2193,93.5968,0.00429023,0.087868,21.0392,-323.198,0.517794,0.0,0.0
1765,441,37.9723,38.9596,150.514,99.2764,93.3227,0.00424659,0.0875694,21.0403,-323.208,0.548944,0.0,0.0
1770,442.25,37.493,38.9728,149.321,99.367,93.5701,0.00416982,0.0873869,21.0411,-323.238,0.533535,0.0,0.0
1775,443.5,38.0378,39.1428,150.353,99.4438,93.5429,0.00408281,0.0873837,21.0416,-323.248,0.542977,0.0,0.0
1780,444.75,37.7677,38.9028,150.09,99.5022,94.0048,0.00404359,0.0873217,21.0412,-323.288,0.504464,0.0,0.0
1785,446,38.4264,39.0646,150.021,99.565,93.3881,0.00412087,0.0873511,21.0409,-323.288,0.568481,0.0,0.0
1790,447.25,37.5109,38.7014,148.267,99.6451,93.687,0.00419362,0.0875728,21.0408,-323.308,0.547258,0.0,0.0
1795,448.5,37.0874,38.6943,150.486,99.7006,93.5021,0.00421841,0.0876533,21.0407,-323.338,0.569733,0.0,0.0
1800,449.75,37.2488,39.1239,151.058,99.7658,93.2251,0.00421492,0.0871893,21.0407,-323.348,0.601875,0.0,0.0
1805,451,37.8129,38.9107,146.34,99.8209,93.8138,0.00420015,0.086884,21.0406,-323.348,0.550906,0.0,0.0
1810,452.25,37.8017,38.652,148.924,99.8881,93.899,0.00418337,0.0868786,21.0414,-323.328,0.548822,0.0,0.0
1815,453.5,37.7551,39.3002,151.376,99.9372,93.6697,0.00416738,0.0869574,21.0411,-323.338,0.574884,0.0,0.0
1820,454.75,37.4005,38.5956,150.633,99.9904,93.7273,0.00415117,0.0867118,21.0409,-323.338,0.574142,0.0,0.0
1825,456,37.5781,38.8894,150.505,100.045,93.9809,0.00411616,0.0862526,21.0408,-323.348,0.554981,0.0,0.0
1830,457.25,37.9381,39.0745,150.56,100.103,93.9628,0.00406169,0.0859928,21.0407,-323.358,0.561868,0.0,0.0
1835,458.5,37.6504,38.5604,150.606,100.136,94.1431,0.00404097,0.085769,21.0406,-323.388,0.547813,0.0,0.0
1840,459.75,37.2982,38.0129,151.345,100.165,93.9636,0.00405812,0.0857077,21.041,-323.419,0.567283,0.0,0.0
1845,461,37.1797,38.6032,148.211,100.216,93.7286,0.00409181,0.0857315,21.0412,-323.419,0.594044,0.0,0.0
1850,462.25,37.7034,38.0898,149.339,100.235,95.0055,0.00410225,0.0855154,21.0413,-323.459,0.47564,0.0,0.0
1855,463.5,36.7542,38.1257,152.652,100.244,93.943,0.00409697,0.0854729,21.0413,-323.449,0.57618,0.0,0.0
1860,464.75,37.3301,38.6043,152.572,100.272,94.251,0.00408844,0.0858036,21.0414,-323.388,0.549664,0.0,0.0
1865,466,36.8452,37.9392,149.874,100.291,94.0904,0.00408608,0.086114,21.0414,-323.449,0.566506,0.0,0.0
1870,467.25,37.2089,38.1969,147.768,100.277,94.0464,0.00408023,0.0863679,21.0414,-323.459,0.56938,0.0,0.0
1875,468.5,37.0222,38.2535,148.943,100.27,94.7688,0.00407145,0.0862946,21.0413,-323.489,0.500812,0.0,0.0
1880,469.75,37.5075,37.9463,146.045,100.266,94.1143,0.00407256,0.08617,21.0416,-323.479,0.562009,0.0,0.0
1885,471,37.4346,38.5462,147.238,100.259,94.528,0.00409447,0.0859971,21.0422,-323.469,0.522435,0.0,0.0
1890,472.25,36.7848,37.9627,150.876,100.238,94.8471,0.00413318,0.0858045,21.0425,-323.489,0.490674,0.0,0.0
1895,473.5,37.3234,37.8577,149.222,100.212,94.1579,0.00418611,0.0856201,21.0427,-323.519,0.553084,0.0,0.0
1900,474.75,37.112,38.0687,151.669,100.176,94.4226,0.00424534,0.0855016,21.0428,-323.509,0.524992,0.0,0.0
1905,476,36.6179,37.9691,145.35,100.155,94.1711,0.00427066,0.08523,21.0428,-323.529,0.546779,0.0,0.0
1910,477.25,37.2099,38.4022,147.65,100.11,94.0793,0.00424237,0.0850839,21.0429,-323.519,0.551476,0.0,0.0
1915,478.5,36.5642,37.8676,148.661,100.069,94.2526,0.00417623,0.0849053,21.0429,-323.549,0.531499,0.0,0.0
1920,479.75,36.9157,37.6801,150.829,100.027,93.8549,0.00412454,0.0846498,21.0429,-323.559,0.565279,0.0,0.0
1925,481,36.5471,37.9371,150.763,99.9835,93.6792,0.00409446,0.0844385,21.0429,-323.559,0.578097,0.0,0.0
1930,482.25,36.9517,38.0608,148.488,99.9212,94.3708,0.00406456,0.0843635,21.0429,-323.569,0.50727,0.0,0.0
1935,483.5,37.04,37.864,150.946,99.8785,94.0147,0.00402459,0.0843899,21.0438,-323.609,0.537035,0.0,0.0
1940,484.75,36.472,37.692,150.765,99.8338,94.2921,0.00394696,0.0843931,21.0444,-323.609,0.506907,0.0,0.0
1945,486,36.9929,37.8542,149.272,99.7924,93.5087,0.00386538,0.084327,21.0448,-323.599,0.577273,0.0,0.0
1950,487.25,36.7389,38.2092,149.435,99.7183,94.0801,0.0038057,0.083988,21.045,-323.619,0.516612,0.0,0.0
1955,488.5,37.0101,37.8998,149.412,99.6672,94.3613,0.00373526,0.0837418,21.0451,-323.619,0.485574,0.0,0.0
1960,489.75,37.0662,38.0752,147.11,99.6386,93.5244,0.00364643,0.0837881,21.0452,-323.639,0.562103,0.0,0.0
1965,491,36.6811,37.6006,145.911,99.5811,93.6368,0.00357677,0.0838519,21.0452,-323.649,0.546316,0.0,0.0
1970,492.25,36.7627,37.7272,139.371,99.53,93.3745,,0.0837819,,-323.639,0.566651,0.0,0.0
1975,493.5,36.778,37.7604,148.229,99.5098,93.3922,,0.0836964,,-323.629,0.563175,0.0,0.0
1980,494.75,36.8824,37.7318,159.314,99.4716,93.5849,,,,-323.659,0.541472,0.0,0.0
1985,496,36.4035,38.2548,148.344,99.4744,94.0101,,,,-323.629,0.501482,0.0,0.0
1990,497.25,36.8721,37.9454,154.461,99.5561,93.6232,,,,-323.679,0.545379,0.0,0.0
1995,498.5,36.9825,38.0916,149.406,99.6431,93.5787,,,,-323.689,0.557343,0.0,0.0
2000,499.75,36.5069,37.4788,155.749,99.705,94.0147,,,,-323.679,0.521607,0.0,0.0
2005,501,36.4849,37.9645,150.472,99.761,93.4243,,,,-323.709,0.582495,0.0,0.0
2010,502.25,36.1713,37.1781,147.058,99.8378,94.0612,,,,-323.719,0.529031,0.0,0.0