File: 01_Data/Wool_Rug/Cone/Wool_Rug_Cone_HF25Scan_220323_R2.csv
Names,Time,Stack TC,Smoke TC,Exh Press,Smoke Comp,Smoke Meas,CO Meter,CO2 Meter,O2 Meter,Sample Mass,Ext Coeff,Start Test,Flame Verif
Chan Gain,,500,500,1,1,1,1,1,1,1,1,1.0,1.0
Offset,,0,0,0.138078,0,0,0,0,0,0,0,0.0,0.0
Gain,,1,1,25.011,13.1874,13.4895,1,1,1,1.00089,1.01187,1.0,1.0
Units,sec,C,C,Pa,%,%,%,%,%,g,/m,,
Baseline,,18.7901,19.368,159.711,99.1882,94.688,0.000787431,0.0694502,21.0044,-836.305,0.41218,,
11,2.5,17.4692,17.5909,160.269,97.9447,93.1979,0.000771256,0.0676369,21.0083,110.058,0.440945,0.0,0.0
22,5.25,17.6646,17.9975,165.645,97.9769,93.8208,0.000849561,0.0677441,21.0078,110.148,0.384741,0.0,0.0
33,8,17.3092,17.814,159.183,98.0288,93.9846,0.000854554,0.0691605,21.0067,110.108,0.373954,0.0,0.0
44,10.75,17.717,17.8295,157.998,98.0602,93.2926,0.000925731,0.070354,21.0063,110.038,0.442393,0.0,0.0
55,13.5,17.511,17.5095,158.775,98.094,92.0415,0.00114742,0.0711258,21.0062,109.998,0.565286,0.0,0.0
66,16.25,17.9866,18.3483,152.728,98.1447,91.4895,0.0014003,0.0708572,21.0062,109.978,0.62327,0.0,0.0
77,19,17.6798,17.9337,158.102,98.2329,91.6196,0.00151929,0.0708189,21.0062,109.918,0.618627,0.0,0.0
88,21.75,17.573,18.2936,160.925,98.3218,90.977,0.00156241,0.0719784,21.0046,109.858,0.689134,0.0,0.0
99,24.5,18.0031,18.649,154.804,98.3914,90.4702,0.00166605,0.0739613,21.0024,109.838,0.744998,0.0,0.0
110,27.25,17.7708,18.5702,159.755,98.4635,90.2125,0.00180836,0.0750125,21.0015,109.728,0.776814,0.0,0.0
121,30,17.969,17.969,157.709,98.5782,90.9873,0.00173483,0.0744918,21.0027,109.748,0.711243,0.0,0.0
132,32.75,17.7836,18.5936,158.02,98.6655,90.4101,0.00161775,0.0732602,21.0045,109.698,0.775586,0.0,0.0
143,35.5,18.2375,18.3074,157.976,98.7581,91.1474,0.0016264,0.0722082,21.005,109.648,0.711818,0.0,0.0
154,38.25,18.3825,18.3704,158.773,98.8691,91.415,0.00177296,0.0725246,21.0023,109.598,0.695776,0.0,0.0
165,41,18.1659,19.234,153.221,98.9694,90.7827,0.00211972,0.110452,20.9163,109.358,0.766378,0.0,1.0
176,43.75,19.9453,20.0576,143.06,99.0748,92.2186,0.00218229,0.201542,20.8022,109.197,0.636536,0.0,1.0
187,46.5,20.4366,20.5094,147.171,99.1734,92.9217,0.00206601,0.239749,20.7638,109.057,0.577946,0.0,1.0
198,49.25,21.6394,22.0574,147.118,99.2635,93.7487,0.00188646,0.227925,20.7917,108.937,0.50736,0.0,0.0
209,52,21.5353,23.0038,154.39,99.3485,93.9562,0.0018971,0.198186,20.834,108.837,0.495328,0.0,0.0
220,54.75,21.9408,23.5235,150.386,99.435,93.5701,0.00214765,0.172176,20.8711,108.807,0.539608,0.0,0.0
231,57.5,22.801,23.2835,152.372,99.5227,94.4794,0.00223029,0.151272,20.902,108.757,0.461591,0.0,0.0
242,60.25,22.902,23.6204,159.125,99.6,94.1217,0.00219854,0.13629,20.9219,108.687,0.502151,0.0,0.0
253,63,23.2818,23.5616,156.583,99.666,94.5659,0.00223232,0.124354,20.938,108.637,0.46624,0.0,0.0
264,65.75,23.3394,23.5164,158.343,99.7276,94.766,0.00240633,0.117206,20.9488,108.567,0.452964,0.0,0.0
275,68.5,23.1738,23.8544,157.147,99.7843,94.5885,0.00250109,0.111526,20.9567,108.517,0.474647,0.0,0.0
286,71.25,22.6555,24.3585,154.562,99.8463,94.7338,0.00239695,0.107358,20.9606,108.467,0.466532,0.0,0.0
297,74,22.8995,24.129,155.472,99.8817,94.3247,0.00225473,0.104107,20.9634,108.447,0.508102,0.0,0.0
308,76.75,22.8956,23.6957,157.068,99.9151,94.7668,0.002306,0.10175,20.9657,108.397,0.469563,0.0,0.0
319,79.5,22.4219,23.6063,154.783,99.9405,94.6552,0.00241403,0.100337,20.9681,108.337,0.48227,0.0,0.0
330,82.25,22.865,23.4323,156.38,99.9763,94.526,0.00230879,0.0996996,20.9694,108.347,0.497581,0.0,0.0
341,85,22.3212,23.3063,155.084,99.9819,94.8763,0.00214975,0.0982486,20.9714,108.267,0.465245,0.0,0.0
352,87.75,22.5062,23.2581,157.917,99.9912,94.8561,0.0020526,0.0957174,20.9764,108.227,0.467955,0.0,0.0
363,90.5,22.6248,23.3556,154.241,99.9823,94.3901,0.00195943,0.0928268,20.9804,108.207,0.510883,0.0,0.0
374,93.25,22.1042,23.1167,159.536,99.992,93.7249,0.00196456,0.090699,20.9827,108.177,0.574519,0.0,0.0
385,96,22.2429,23.402,159.182,99.9678,94.2213,0.00198225,0.0890408,20.9855,108.126,0.525482,0.0,0.0
396,98.75,22.0232,23.0812,155.507,99.9445,93.4906,0.00200071,0.086762,20.9898,108.086,0.592513,0.0,0.0
407,101.5,22.3282,23.4435,156.024,99.9127,93.6508,0.00197174,0.0850951,20.9922,108.046,0.574499,0.0,0.0
418,104.25,21.7618,22.767,157.588,99.862,93.519,0.00208743,0.0835379,20.9949,108.016,0.582487,0.0,0.0
429,107,22.083,23.2832,160.81,99.8411,93.8241,0.00211168,0.082161,20.9964,108.006,0.551722,0.0,0.0
440,109.75,21.8028,22.6401,160.979,99.7718,93.4437,0.00185157,0.0810282,20.9969,107.946,0.581624,0.0,0.0
451,112.5,21.5167,22.4902,159.288,99.7171,93.5108,0.00167167,0.0801369,20.997,107.916,0.570382,0.0,0.0
462,115.25,21.3827,22.3852,166.133,99.6515,93.7216,0.00168368,0.0793898,20.9971,107.886,0.544556,0.0,0.0
473,118,21.2753,22.3218,155.294,99.5855,94.3444,0.00174541,0.0798843,20.9956,107.846,0.479883,0.0,0.0
484,120.75,21.3961,22.4198,159.268,99.5336,93.4511,0.00188308,0.0807456,20.994,107.796,0.559699,0.0,0.0
495,123.5,20.7926,22.3908,157.317,99.4861,93.8047,0.00212259,0.0819476,20.9914,107.746,0.521939,0.0,0.0
506,126.25,21.2374,22.2582,161.344,99.408,94.2872,0.00222357,0.0830745,20.9893,107.696,0.469434,0.0,0.0
517,129,21.5124,21.9668,162.576,99.3485,93.8076,0.00214728,0.0841318,20.9875,107.636,0.509378,0.0,0.0
528,131.75,21.1415,22.6999,156.921,99.2945,93.7121,0.00218409,0.0856476,20.9846,107.586,0.5136,0.0,0.0
539,134.5,21.2106,22.2543,160.474,99.2567,94.1946,0.00232153,0.0885124,20.9816,107.556,0.464637,0.0,0.0
550,137.25,21.5535,22.491,156.295,99.2169,93.9612,0.00216223,0.0910513,20.9794,107.516,0.483096,0.0,0.0
561,140,21.2652,22.053,153.528,99.2402,94.0221,0.00185183,0.0931288,20.9767,107.476,0.47943,0.0,0.0
572,142.75,21.0146,22.2023,154.303,99.346,94.0171,0.00191099,0.0954913,20.9722,107.416,0.489357,0.0,0.0
583,145.5,21.0949,21.7886,155.076,99.4463,94.1131,0.00194514,0.0979766,20.9688,107.376,0.489255,0.0,0.0
594,148.25,21.2811,22.8697,158.578,99.5408,94.0196,0.00199132,0.100546,20.9657,107.296,0.50651,0.0,0.0
605,151,21.2053,22.6364,154.992,99.6153,94.2843,0.00211295,0.105147,20.9587,107.266,0.488193,0.0,0.0
616,153.75,21.678,22.4564,154.512,99.6704,94.0019,0.00207816,0.109648,20.953,107.186,0.51973,0.0,0.0
627,156.5,21.6754,22.5976,160.922,99.7115,95.0772,0.00206529,0.111346,20.9513,107.136,0.422429,0.0,0.0
638,159.25,21.5837,22.5543,154.635,99.7634,94.2629,0.00207285,0.110446,20.9518,107.086,0.503394,0.0,0.0
649,162,21.7658,22.8863,157.027,99.7791,94.4395,0.00202627,0.109792,20.9519,107.015,0.488177,0.0,0.0
660,164.75,21.7194,23.0879,158.478,99.7968,94.6033,0.00200998,0.109904,20.9528,106.945,0.474367,0.0,0.0
671,167.5,22.0211,23.1184,153.742,99.7896,94.803,0.00190066,0.110981,20.9509,106.875,0.455009,0.0,0.0
682,170.25,22.168,22.8931,156.502,99.7614,94.2308,0.00181655,0.112582,20.9481,106.815,0.50624,0.0,0.0
693,173,22.1887,23.6278,157.443,99.7437,94.6704,0.00179776,0.113561,20.947,106.705,0.463346,0.0,0.0
704,175.75,22.5243,23.3671,153.284,99.6917,94.1448,0.00179707,0.113983,20.9459,106.665,0.508151,0.0,0.0
715,178.5,22.5238,23.291,154.104,99.6471,93.8912,0.00177755,0.114667,20.9447,106.605,0.528113,0.0,0.0
726,181.25,21.7293,22.9702,152.352,99.5662,93.7627,0.00164901,0.115353,20.9444,106.515,0.533056,0.0,0.0
737,184,22.3282,23.9408,153.668,99.4644,94.2394,0.00170982,0.115361,20.9442,106.435,0.47896,0.0,0.0
748,186.75,22.9436,24.188,158.46,99.3839,94.547,0.00175744,0.114598,20.9442,106.355,0.442858,0.0,0.0
759,189.5,22.6808,23.7276,157.549,99.2861,94.5498,0.0016677,0.11401,20.9448,106.295,0.433849,0.0,0.0
770,192.25,22.7257,24.1458,153.038,99.1686,93.9542,0.00161998,0.113345,20.9469,106.235,0.479435,0.0,0.0
781,195,23.118,24.4576,158.333,99.0209,93.9579,0.00163578,0.112251,20.9482,106.155,0.465856,0.0,0.0
792,197.75,23.0625,24.3296,151.885,98.9794,93.8854,0.00169839,0.111266,20.9501,106.105,0.468986,0.0,0.0
803,200.5,23.3957,25.2455,158.55,98.9859,93.6915,0.00183555,0.109993,20.9521,106.035,0.487912,0.0,0.0
814,203.25,23.7029,24.8468,156.745,99.0221,94.2547,0.0020732,0.108502,20.9539,105.975,0.437969,0.0,0.0
825,206,23.1911,24.0289,155.21,99.0193,94.3255,0.00204751,0.108022,20.9553,105.874,0.431051,0.0,0.0
836,208.75,23.2055,24.3093,153.87,99.0462,93.6186,0.00185812,0.107199,20.9557,105.814,0.500231,0.0,0.0
847,211.5,23.4621,24.2255,156.801,99.0688,93.9706,0.00190454,0.10618,20.9589,105.764,0.468941,0.0,0.0
858,214.25,23.0042,24.3346,157.311,99.0941,94.2942,0.0019672,0.105321,20.9605,105.674,0.440703,0.0,0.0
869,217,23.0956,24.514,151.846,99.1134,93.8101,0.00197674,0.104988,20.9618,105.664,0.488121,0.0,0.0
880,219.75,23.2674,24.6611,155.999,99.1348,93.8615,0.00177742,0.104536,20.963,105.604,0.485164,0.0,0.0
891,222.5,23.0548,24.4079,155.695,99.1641,94.6293,0.00170704,0.103504,20.9653,105.514,0.415485,0.0,0.0
902,225.25,22.7668,24.6084,155.804,99.1988,94.5589,0.00172119,0.102144,20.9673,105.444,0.425188,0.0,0.0
913,228,23.2488,24.4356,161.686,99.2173,94.3761,0.00174496,0.10111,20.968,105.384,0.444018,0.0,0.0
924,230.75,23.0329,24.4344,159.358,99.2257,94.4424,0.00182933,0.0999622,20.9688,105.314,0.438543,0.0,0.0
935,233.5,22.8325,24.0816,151.675,99.2362,94.1727,0.00186703,0.0992957,20.9696,105.284,0.464858,0.0,0.0
946,236.25,23.3029,24.6107,156.964,99.2591,94.0208,0.00183601,0.099549,20.9679,105.224,0.481238,0.0,0.0
957,239,22.8388,24.2241,155.7,99.2688,93.9364,0.00190644,0.100918,20.967,105.124,0.490072,0.0,0.0
968,241.75,22.9834,24.3216,155.269,99.2664,94.3963,0.00170504,0.10081,20.9678,105.064,0.446513,0.0,0.0
979,244.5,22.8255,24.2638,157.391,99.2595,94.5914,0.0013818,0.0996217,20.9686,105.024,0.427572,0.0,0.0
990,247.25,22.8854,24.0047,161.045,99.2591,94.5943,0.00120556,0.0985524,20.9703,104.974,0.427265,0.0,0.0
1001,250,22.8318,24.3031,155.181,99.2873,94.004,0.00127227,0.0977139,20.971,104.914,0.48535,0.0,0.0
1012,252.75,23.525,24.3295,150.908,99.2957,94.0579,0.00138767,0.0974538,20.9712,104.874,0.481015,0.0,0.0
1023,255.5,22.5052,24.4333,158.774,99.2901,95.1216,0.00139267,0.0973529,20.9712,104.814,0.380691,0.0,0.0
1034,258.25,23.4183,24.2394,155.137,99.28,94.3564,0.00129646,0.0977039,20.9706,104.753,0.451491,0.0,0.0
1045,261,22.6261,24.2715,158.993,99.2873,94.2464,0.00123857,0.0989776,20.9679,104.703,0.462485,0.0,0.0
1056,263.75,22.6114,23.4993,157.653,99.2784,94.54,0.00130279,0.0996246,20.9674,104.643,0.434092,0.0,0.0
1067,266.5,23.455,24.6068,158.644,99.2603,94.507,0.0013974,0.0992713,20.9681,104.583,0.435566,0.0,0.0
1078,269.25,22.8275,24.0028,159.195,99.237,94.3279,0.00138531,0.0984974,20.9692,104.513,0.450313,0.0,0.0
1089,272,22.941,24.033,155.334,99.2008,94.134,0.00130758,0.097955,20.9696,104.453,0.465338,0.0,0.0
1100,274.75,22.421,23.7399,156.439,99.1722,93.9282,0.00131528,0.0979283,20.9703,104.393,0.48221,0.0,0.0
1111,277.5,22.7364,23.8619,155.254,99.1452,94.2818,0.0014021,0.0986121,20.9696,104.333,0.446442,0.0,0.0
1122,280.25,23.0378,24.1539,157.132,99.1078,94.6141,0.00132475,0.0996814,20.969,104.293,0.41187,0.0,0.0
1133,283,22.7478,23.9791,153.896,99.0559,94.5449,0.00122994,0.0999781,20.9688,104.233,0.413709,0.0,0.0
1144,285.75,22.6786,24.0567,156.588,99.0152,94.2444,0.00133661,0.0995112,20.9693,104.153,0.438324,0.0,0.0
1155,288.5,22.8891,24.0644,153.436,98.9794,94.0653,0.00157074,0.0995177,20.9695,104.063,0.451994,0.0,0.0
1166,291.25,22.6925,23.7317,155.461,98.9303,94.2777,0.00164543,0.100154,20.968,104.003,0.427569,0.0,0.0
1177,294,22.7803,23.9389,159.621,98.9025,94.2563,0.00155952,0.100679,20.9675,103.943,0.427093,0.0,0.0
1188,296.75,22.7322,24.039,155.938,98.8446,93.7833,0.00130745,0.100549,20.9669,103.893,0.466544,0.0,0.0
1199,299.5,23.189,23.8484,155.347,98.779,93.6549,0.00112355,0.100735,20.9656,103.873,0.472817,0.0,0.0
1210,302.25,22.9539,24.2454,152.452,98.7448,93.778,0.00116689,0.100929,20.9651,103.783,0.458084,0.0,0.0
1221,305,22.9626,24.0742,157.981,98.7118,93.836,0.00146882,0.100297,20.9659,103.713,0.449625,0.0,0.0
1232,307.75,23.096,24.2091,159.641,98.6687,93.5886,0.00149441,0.0999368,20.9674,103.703,0.469186,0.0,0.0
1243,310.5,22.5104,23.9719,154.248,98.6233,93.5112,0.00135584,0.100248,20.9665,103.602,0.472437,0.0,0.0
1254,313.25,23.0381,23.9729,156.633,98.6031,93.8957,0.00150465,0.101717,20.9644,103.532,0.434204,0.0,0.0
1265,316,22.6715,24.1419,158.11,98.5786,93.2786,0.00172935,0.104095,20.9623,103.472,0.490521,0.0,0.0
1276,318.75,22.5609,23.4761,158.565,98.5609,93.9068,0.00169654,0.106132,20.9608,103.432,0.42935,0.0,0.0
1287,321.5,22.6063,23.8573,157.881,98.5142,93.3194,0.00148621,0.106132,20.9608,103.362,0.480844,0.0,0.0
1298,324.25,22.469,23.4205,159.722,98.4828,94.134,0.00129686,0.104005,20.9634,103.292,0.400863,0.0,0.0
1309,327,22.8706,23.6148,160.45,98.4599,93.8949,0.00121825,0.101805,20.9647,103.252,0.421375,0.0,0.0
1320,329.75,22.6348,23.9327,155.199,98.4357,93.7631,0.00124278,0.10004,20.9659,103.202,0.431661,0.0,0.0
1331,332.5,22.7461,23.7988,157.206,98.3947,93.307,0.00127807,0.0991757,20.9674,103.102,0.471242,0.0,0.0
1342,335.25,22.8861,24.096,158.51,98.3645,93.3045,0.00129923,0.0986542,20.9679,103.062,0.468755,0.0,0.0
1353,338,22.31,23.699,155.869,98.3351,93.2399,0.00124468,0.0979951,20.9675,103.012,0.472254,0.0,0.0
1364,340.75,22.9214,23.6989,151.863,98.3279,93.4659,0.00113417,0.0973787,20.9683,102.972,0.450111,0.0,0.0
1375,343.5,22.6484,23.7816,158.736,98.2985,93.85,0.00119879,0.0969305,20.9676,102.902,0.411059,0.0,0.0
1386,346.25,22.8932,23.8735,155.763,98.2667,93.4383,0.00137187,0.0958676,20.9689,102.842,0.447208,0.0,0.0
1397,349,22.1714,23.5607,153.649,98.2228,93.95,0.00137108,0.0944926,20.9702,102.802,0.394768,0.0,0.0
1408,351.75,22.9527,23.2689,156.456,98.2019,93.4289,0.00129852,0.0930312,20.9726,102.722,0.442252,0.0,0.0
1419,354.5,22.2078,23.6422,155.947,98.1798,93.5392,0.00124683,0.0919434,20.9754,102.672,0.429776,0.0,0.0
1430,357.25,22.1271,23.4643,154.534,98.16,93.477,0.00116371,0.0910157,20.9778,102.602,0.433894,0.0,0.0
1441,360,22.1976,23.1178,149.834,98.1371,93.4091,0.00114588,0.0906035,20.9786,102.572,0.438271,0.0,0.0
1452,362.75,22.9055,23.5242,156.922,98.1125,93.3758,0.00128833,0.0904331,20.9788,102.521,0.439218,0.0,0.0
1463,365.5,22.3313,23.7579,157.398,98.1081,93.6627,0.00136113,0.0900027,20.9802,102.461,0.411586,0.0,0.0
1474,368.25,22.4298,23.4996,160.313,98.0812,93.137,0.0014056,0.0885338,20.9826,102.411,0.459105,0.0,0.0
1485,371,22.133,23.2847,155.554,98.0695,93.0913,0.00152064,0.0875712,20.9833,102.381,0.462404,0.0,0.0
1496,373.75,22.3857,23.9772,156.078,98.0494,92.8789,0.00131515,0.0871617,20.9824,102.331,0.48086,0.0,0.0
1507,376.5,22.3579,23.145,153.671,98.0164,93.1152,0.00113534,0.086491,20.982,102.251,0.455318,0.0,0.0
1518,379.25,22.3037,23.5022,155.383,98.0091,93.4762,0.00124606,0.0856228,20.9827,102.231,0.420315,0.0,0.0
1529,382,22.1818,22.8872,156.924,97.9809,93.3811,0.0012852,0.0849959,20.9829,102.181,0.426797,0.0,0.0
1540,384.75,21.6513,22.9019,158.023,97.9632,93.4103,0.00120316,0.0849279,20.9829,102.151,0.422414,0.0,0.0
1551,387.5,21.6894,23.0291,159.152,97.9467,93.6853,0.00111514,0.0847515,20.983,102.071,0.394828,0.0,0.0
1562,390.25,21.5265,23.1842,156.589,97.9262,93.5359,0.00106303,0.0847383,20.983,102.041,0.407137,0.0,0.0
1573,393,21.5829,22.8925,157.591,97.9202,92.9559,0.00116319,0.0846483,20.983,101.991,0.461803,0.0,0.0
1584,395.75,21.4836,22.8371,158.825,97.9178,93.0658,0.00116048,0.0844551,20.983,101.951,0.451096,0.0,0.0
1595,398.5,21.8315,23.0289,150.502,97.9049,93.0415,0.00121319,0.0841662,20.983,101.921,0.452245,0.0,0.0
1606,401.25,22.0722,22.9365,158.785,97.9009,93.517,0.00148203,0.0837478,20.9847,101.851,0.406636,0.0,0.0
1617,404,21.6203,22.7181,160.064,97.8896,93.4964,0.00158583,0.0832281,20.9867,101.821,0.407568,0.0,0.0
1628,406.75,21.6738,22.5596,157.102,97.896,92.9826,0.0014325,0.0828936,20.9873,101.771,0.45706,0.0,0.0
1639,409.5,21.5882,22.736,157.167,97.9041,93.5375,0.00130019,0.0825535,20.9876,101.771,0.404974,0.0,0.0
1650,412.25,21.2446,22.5033,157.746,97.8932,93.3877,0.00124516,0.082547,20.9876,101.731,0.418219,0.0,0.0
1661,415,21.5678,22.5657,160.404,97.8992,93.7026,0.00113885,0.0826039,20.9876,101.681,0.388885,0.0,0.0
1672,417.75,21.615,22.5615,160.327,97.9033,93.4441,0.00124173,0.0827879,20.9874,101.641,0.413773,0.0,0.0
1683,420.5,21.73,22.3191,160.318,97.9141,93.2671,0.00137147,0.0830624,20.9865,101.601,0.431589,0.0,0.0
1694,423.25,21.882,22.4499,158.099,97.9153,93.3482,0.00158193,0.083141,20.9864,101.571,0.423983,0.0,0.0
1705,426,21.8437,22.6507,154.967,97.9359,93.4071,0.00163664,0.0831788,20.9863,101.531,0.420247,0.0,0.0
1716,428.75,21.352,22.429,159.42,97.9544,93.722,0.00144287,0.0830252,20.9862,101.491,0.39205,0.0,0.0
1727,431.5,20.9405,22.0737,155.381,97.9737,93.7689,0.00133666,0.0828615,20.9862,101.471,0.389357,0.0,0.0
1738,434.25,21.2277,22.3227,155.578,97.9914,93.3074,0.00139734,0.0827702,20.9862,101.42,0.434752,0.0,0.0
1749,437,21.1457,22.2379,158.741,98.0127,93.7203,0.00143273,0.0828746,20.9877,101.41,0.397492,0.0,0.0
1760,439.75,21.1502,22.1863,156.587,98.0264,93.6652,0.00139692,0.0828192,20.988,101.37,0.403957,0.0,0.0
1771,442.5,21.1421,22.5689,152.829,98.0526,93.7109,0.00126898,0.0830532,20.9863,101.33,0.401996,0.0,0.0
1782,445.25,21.2535,21.7747,156.544,98.0775,93.7475,0.00118065,0.0832514,20.9841,101.29,0.400785,0.0,0.0
1793,448,21.5603,22.3402,155.808,98.1206,93.6487,0.00104173,0.0833045,20.9832,101.25,0.41404,0.0,0.0
1804,450.75,21.5094,22.0759,156.555,98.117,93.1695,0.00112669,0.0837534,20.9829,101.23,0.459247,0.0,0.0
1815,453.5,20.9377,22.3025,156.848,98.1286,93.827,0.00137389,0.0835819,20.9828,101.17,0.39789,0.0,0.0
1826,456.25,21.2533,22.1623,157.323,98.1761,93.8228,0.00153079,0.0834764,20.9828,101.14,0.402574,0.0,0.0
1837,459,21.4489,22.2668,158.086,98.1967,93.8212,0.00148332,0.0835877,20.9828,101.12,0.404586,0.0,0.0
1848,461.75,20.928,21.9824,163.929,98.2349,93.6911,0.00153393,0.0834645,20.9828,101.1,0.420356,0.0,0.0
1859,464.5,21.2017,21.7774,153.03,98.2711,93.9422,0.00162688,0.0835951,20.9829,101.04,0.399869,0.0,0.0
1870,467.25,21.2433,21.7918,156.608,98.3021,94.0929,0.00159717,0.0838552,20.9834,101.02,0.388444,0.0,0.0
1881,470,21.0582,21.9672,158.1,98.3568,93.8179,0.00137915,0.0839689,20.9836,100.99,0.419364,0.0,0.0
1892,472.75,21.3117,21.9374,157.139,98.3898,93.8315,0.00128273,0.0839266,20.9836,100.95,0.421056,0.0,0.0
1903,475.5,20.8102,21.7905,158.668,98.4317,93.8969,0.00129178,0.0840059,20.9836,100.94,0.418641,0.0,0.0
1914,478.25,20.9285,21.8573,158.909,98.4635,94.2683,0.00129569,0.0842899,20.9836,100.91,0.386475,0.0,0.0
1925,481,21.2804,21.6864,158.791,98.5114,94.7425,0.00137508,0.0841308,20.9836,100.87,0.34625,0.0,0.0
1936,483.75,21.1437,21.8436,157.213,98.5649,94.1308,0.00145942,0.0839824,20.9836,100.83,0.408569,0.0,0.0
1947,486.5,20.9135,21.7471,158.198,98.6055,93.6664,0.00155163,0.083985,20.9836,100.77,0.456124,0.0,0.0
1958,489.25,21.1447,22.0704,156.528,98.6434,94.2534,0.00158598,0.0842857,20.9844,100.78,0.404073,0.0,0.0
1969,492,21.3506,22.3549,153.776,98.6744,94.1485,0.00164088,0.0844309,20.985,100.74,0.416752,0.0,0.0
1980,494.75,21.1221,21.8205,158.237,98.7283,94.5033,0.00156653,0.0846035,20.9852,100.69,0.38821,0.0,0.0
1991,497.5,21.1746,21.8669,159.002,98.7895,94.0735,0.00138614,0.084676,20.9846,100.66,0.434167,0.0,0.0
2002,500.25,20.7,21.4941,162.591,98.806,94.2654,0.00137944,0.0849186,20.9835,100.64,0.417567,0.0,0.0
2013,503,20.9936,21.8254,155.166,98.8579,94.8997,0.00142453,0.0854919,20.9831,100.61,0.362697,0.0,0.0
2024,505.75,21.3458,22.1683,154.843,98.8973,94.1357,0.00138811,0.0854494,20.9834,100.57,0.437989,0.0,0.0
2035,508.5,21.236,21.6905,155.228,98.9529,94.386,0.00136366,0.0851676,20.9837,100.54,0.419403,0.0,0.0
2046,511.25,21.2619,22.0814,159.627,98.9846,94.9508,0.00154778,0.0849726,20.9836,100.53,0.369298,0.0,0.0
2057,514,21.0287,21.9059,162.633,99.0156,94.2003,0.00161204,0.0851923,20.9829,100.5,0.44251,0.0,0.0
2068,516.75,21.4389,22.1176,157.264,99.049,94.6894,0.00163167,0.0854632,20.9823,100.46,0.399542,0.0,0.0
2079,519.5,21.1864,21.7758,162.081,99.0901,94.3535,0.00166604,0.0855511,20.9819,100.42,0.434763,0.0,0.0
2090,522.25,21.0621,22.2378,160.079,99.1424,94.668,0.0016101,0.0855361,20.9818,100.36,0.409911,0.0,0.0
2101,525,20.8745,21.7548,162.047,99.1633,94.3959,0.00152517,0.0859174,20.9818,100.36,0.437334,0.0,0.0
2112,527.75,21.3017,21.7926,156.743,99.1951,94.8203,0.00161478,0.0865364,20.9818,100.329,0.40036,0.0,0.0
2123,530.5,20.9462,21.8704,157.803,99.2233,94.9977,0.00156347,0.0867265,20.9818,100.289,0.386287,0.0,0.0
2134,533.25,20.7831,21.8601,158.279,99.247,94.5404,0.00141589,0.0870809,20.9818,100.239,0.431247,0.0,0.0
2145,536,21.3244,22.1151,161.664,99.272,94.4465,0.00138582,0.087274,20.9827,100.219,0.442295,0.0,0.0
2156,538.75,21.2008,22.155,156.076,99.2829,95.2357,0.0013773,0.0876053,20.9817,100.199,0.369409,0.0,0.0
2167,541.5,21.3691,22.0477,154.637,99.3038,94.8746,0.00135141,0.0875219,20.9812,100.159,0.404992,0.0,0.0
2178,544.25,21.1947,21.9325,155.257,99.3171,94.7754,0.00135924,0.0875589,20.981,100.119,0.415465,0.0,0.0
2189,547,20.8261,22.3245,158.908,99.3589,94.8479,0.00141971,0.0877848,20.9809,100.089,0.412422,0.0,0.0
2200,549.75,21.3701,22.064,161.424,99.3702,94.957,0.00139644,0.0881091,20.9809,100.039,0.403226,0.0,0.0
2211,552.5,21.3523,22.3959,158.132,99.3867,95.1393,0.00143491,0.0885891,20.9807,100.019,0.387669,0.0,0.0
2222,555.25,21.3365,22.2166,159,99.4125,94.7017,0.001434,0.0888335,20.9792,99.9792,0.43089,0.0,0.0
2233,558,21.2994,21.8342,155.795,99.4334,95.2962,0.00135665,0.0891419,20.9792,99.9492,0.377217,0.0,0.0
2244,560.75,21.3678,22.0222,155.154,99.4603,94.773,0.0012964,0.0897638,20.9785,99.8991,0.428492,0.0,0.0
2255,563.5,21.7234,22.2353,156.687,99.4893,94.6602,0.00128907,0.0903381,20.9781,99.8691,0.441648,0.0,0.0
2266,566.25,21.2253,22.4066,157.348,99.5151,94.9677,0.00141536,0.0909875,20.9767,99.8191,0.415157,0.0,0.0
2277,569,21.1878,22.1134,156.725,99.5352,94.7021,0.00154484,0.0917037,20.9748,99.809,0.441804,0.0,0.0
2288,571.75,21.2294,22.5592,154.253,99.5561,94.5437,0.00158446,0.0925119,20.9733,99.769,0.458538,0.0,0.0
2299,574.5,21.4826,22.2278,155.948,99.5734,95.3444,0.00137569,0.093001,20.9716,99.709,0.385225,0.0,0.0
2310,577.25,21.3029,22.3026,158.335,99.5843,94.8026,0.00132599,0.0930373,20.9711,99.6889,0.436772,0.0,0.0
2321,580,21.5091,22.557,158.78,99.6096,94.7071,0.00143302,0.0933143,20.971,99.6789,0.447977,0.0,0.0
2332,582.75,21.5649,22.4644,159.313,99.6217,94.8689,0.00153793,0.093639,20.9699,99.6389,0.433904,0.0,0.0
2343,585.5,21.3438,22.4857,156.92,99.6596,94.6449,0.00161866,0.0943493,20.9687,99.5888,0.458251,0.0,0.0
2354,588.25,21.4514,22.4947,158.422,99.6785,94.8211,0.00180307,0.094995,20.9684,99.5488,0.443428,0.0,0.0
2365,591,21.7977,22.6002,158.953,99.707,95.3798,0.00183009,0.095557,20.9682,99.5088,0.393833,0.0,0.0
2376,593.75,22.2494,22.9594,154.161,99.7163,95.1677,0.00177041,0.0954439,20.9682,99.4487,0.414407,0.0,0.0
2387,596.5,21.915,22.7658,158.801,99.74,95.3196,0.00146534,0.0952667,20.9669,99.4287,0.402364,0.0,0.0
2398,599.25,22.1119,22.9853,157.431,99.7843,94.8639,0.00123204,0.0951967,20.9662,99.4087,0.44884,0.0,0.0
2409,602,22.1013,22.9779,157.828,99.7932,95.1216,0.00132144,0.0957322,20.9647,99.3887,0.425549,0.0,0.0
2420,604.75,21.697,23.0019,159.149,99.7976,95.5938,0.00151289,0.0967883,20.9642,99.3186,0.381991,0.0,0.0
2431,607.5,21.7752,22.4536,157.988,99.796,94.8948,0.00164243,0.0981885,20.9619,99.3086,0.446991,0.0,0.0
2442,610.25,22.0074,22.5494,155.207,99.8278,95.6305,0.00181913,0.099183,20.9604,99.2585,0.381274,0.0,0.0
2453,613,21.8693,22.5991,155.947,99.8423,95.5679,0.0019221,0.098886,20.9617,99.2085,0.388371,0.0,0.0
2464,615.75,21.8091,22.6055,157.111,99.8503,94.8351,0.00202776,0.0988727,20.9609,99.1484,0.457407,0.0,0.0
2475,618.5,22.449,23.4508,159.331,99.8568,94.7989,0.00187396,0.0997443,20.9605,99.1284,0.461371,0.0,0.0
2486,621.25,22.137,22.897,159.058,99.9095,95.2665,0.00167638,0.0999548,20.9604,99.0884,0.422377,0.0,0.0
2497,624,22.3075,22.5028,155.705,99.8708,95.0928,0.00173044,0.0999449,20.962,99.0484,0.435144,0.0,0.0
2508,626.75,22.0507,22.9499,155.302,99.8869,95.4053,0.00177679,0.100062,20.9623,98.9983,0.407457,0.0,0.0
2519,629.5,22.0579,23.1629,156.847,99.8853,95.4267,0.00174273,0.100373,20.962,98.9483,0.405323,0.0,0.0
2530,632.25,22.0703,23.0588,158.977,99.8902,95.656,0.00179213,0.100936,20.9603,98.8982,0.38445,0.0,0.0
2541,635,21.5301,23.0285,159.901,99.8962,95.0208,0.00181845,0.100954,20.9597,98.8982,0.444123,0.0,0.0
2552,637.75,21.9524,23.2905,153.522,99.9083,94.7977,0.00177594,0.100787,20.9596,98.8482,0.466064,0.0,0.0
2563,640.5,22.2206,23.3738,158.036,99.9143,94.9631,0.00163839,0.100847,20.9595,98.8081,0.451119,0.0,0.0
2574,643.25,22.2118,23.3558,159.849,99.9199,94.5692,0.00150491,0.100852,20.9589,98.7581,0.488519,0.0,0.0
2585,646,22.35,23.4274,163.382,99.9203,95.4748,0.00160835,0.100841,20.9583,98.7081,0.403955,0.0,0.0
2596,648.75,22.7967,23.6272,155.401,99.9324,95.3188,0.00171474,0.10121,20.9582,98.688,0.419545,0.0,0.0
2607,651.5,22.5212,23.317,160.015,99.9421,94.9771,0.00178418,0.101394,20.9605,98.648,0.452277,0.0,0.0
2618,654.25,22.8877,23.9178,158.942,99.9465,94.9961,0.00162515,0.101192,20.9619,98.608,0.4509,0.0,0.0
2629,657,22.5442,23.3629,156.422,99.9533,95.6967,0.00160343,0.100782,20.9639,98.5579,0.386282,0.0,0.0
2640,659.75,22.3493,23.3588,158.768,99.9529,95.085,0.00160501,0.100949,20.9643,98.5279,0.443168,0.0,0.0
2651,662.5,22.3051,23.4489,156.545,99.9614,95.374,0.00153688,0.101892,20.9619,98.4879,0.416983,0.0,0.0
2662,665.25,23.1507,23.9826,159.124,99.9642,95.2188,0.00168191,0.102647,20.9607,98.4478,0.431688,0.0,0.0
2673,668,22.6312,23.5434,157.061,99.9554,94.9631,0.00179577,0.102985,20.9614,98.3978,0.454765,0.0,0.0
2684,670.75,22.1458,22.8222,154.683,99.9606,95.3019,0.00167175,0.103253,20.9599,98.3477,0.423618,0.0,0.0
2695,673.5,22.9049,23.7852,153.658,99.9622,95.2982,0.0015279,0.104266,20.9571,98.3277,0.424106,0.0,0.0
2706,676.25,22.9596,23.8883,158.973,99.9654,95.1797,0.0015001,0.103015,20.9585,98.2777,0.435441,0.0,0.0
2717,679,23.0205,23.6558,162.011,99.9694,94.9973,0.00153524,0.100902,20.9608,98.2376,0.452822,0.0,0.0
2728,681.75,22.8672,23.7733,160.823,99.9662,95.2299,0.00153481,0.0997714,20.9628,98.1976,0.430831,0.0,0.0
2739,684.5,22.8529,23.6668,152.471,99.9666,95.4835,0.00134476,0.0993823,20.9635,98.1275,0.407262,0.0,0.0
2750,687.25,23.0123,24.0059,158.635,99.9558,95.1953,0.00125549,0.100264,20.9625,98.1476,0.433125,0.0,0.0
2761,690,22.491,24.0523,157.469,99.9694,95.22,0.00127519,0.101515,20.9618,98.0675,0.432037,0.0,0.0
2772,692.75,23.0826,24.158,157.441,99.9686,95.6461,0.00147893,0.102206,20.9609,98.0375,0.392337,0.0,0.0
2783,695.5,22.8743,23.9315,156.498,99.957,95.6757,0.00153978,0.102345,20.9617,98.0074,0.388551,0.0,0.0
2794,698.25,22.6281,24.0242,156.334,99.9513,95.7367,0.00145742,0.102414,20.9636,97.9674,0.3824,0.0,0.0
2805,701,22.9277,23.4042,154.719,99.9481,95.8416,0.00144183,0.102719,20.9634,97.9374,0.372387,0.0,0.0
2816,703.75,23.2171,23.94,160.73,99.9457,95.3102,0.00139742,0.102878,20.963,97.8773,0.42153,0.0,0.0
2827,706.5,22.7656,23.5537,157.401,99.9501,94.6532,0.00141907,0.103107,20.9624,97.7872,0.483321,0.0,0.0
2838,709.25,23.1893,24.1162,154.873,99.9574,95.6803,0.00163366,0.103586,20.962,97.7772,0.388167,0.0,0.0
2849,712,23.085,24.0861,157.05,99.9316,95.1122,0.00191174,0.10503,20.9592,97.7472,0.438737,0.0,0.0
2860,714.75,23.1192,23.6501,155.692,99.9312,95.5205,0.00207566,0.107259,20.9562,97.7072,0.400673,0.0,0.0
2871,717.5,22.9096,23.9017,155.472,99.9316,95.2468,0.00195444,0.108811,20.9537,97.6371,0.426184,0.0,0.0
2882,720.25,23.0804,23.9939,160.387,99.9155,95.1237,0.00178481,0.109011,20.9521,97.6271,0.436232,0.0,0.0
2893,723,23.1822,24.3859,152.177,99.9002,95.8602,0.00172337,0.109103,20.9516,97.5871,0.366417,0.0,0.0
2904,725.75,23.3962,23.9739,156.524,99.8954,95.3563,0.00169037,0.108664,20.9521,97.547,0.412768,0.0,0.0
2915,728.5,22.6055,24.5475,158.861,99.8938,95.4497,0.00175996,0.107322,20.9535,97.507,0.40393,0.0,0.0
2926,731.25,23.2486,24.0638,151.744,99.8958,95.232,0.0016608,0.106192,20.9557,97.487,0.424384,0.0,0.0
2937,734,23.0344,24.4043,154.285,99.8753,95.2381,0.00140712,0.105802,20.9562,97.4169,0.421984,0.0,0.0
2948,736.75,23.3712,24.5052,160.782,99.8777,94.512,0.0016368,0.106441,20.9555,97.3769,0.490136,0.0,0.0
2959,739.5,23.305,24.4058,153.782,99.8652,94.8903,0.00193125,0.107525,20.9537,97.3368,0.453569,0.0,0.0
2970,742.25,23.4602,24.6168,153.669,99.86,95.1167,0.00187253,0.108362,20.9523,97.2868,0.43195,0.0,0.0
2981,745,23.0093,24.1782,156.87,99.8382,95.143,0.00180856,0.109269,20.9502,97.2067,0.427559,0.0,0.0
2992,747.75,23.0799,24.1581,154.582,99.8334,95.1509,0.00180649,0.111433,20.9481,97.1867,0.426401,0.0,0.0
3003,750.5,23.529,24.6612,153.134,99.8169,94.7911,0.00175347,0.112247,20.948,97.1367,0.45856,0.0,0.0
3014,753.25,23.2246,24.2831,156.451,99.8089,95.2921,0.00159907,0.111521,20.9493,97.0866,0.411056,0.0,0.0
3025,756,23.1462,24.7427,157.024,99.7891,94.5367,0.00146819,0.110196,20.9512,97.0566,0.479946,0.0,0.0
3036,758.75,23.6396,24.3364,154.418,99.7726,95.0574,0.00138035,0.110439,20.9508,97.0065,0.429717,0.0,0.0
3047,761.5,23.6296,24.5395,161.467,99.7626,95.2134,0.00145875,0.110491,20.9502,96.9665,0.414266,0.0,0.0
3058,764.25,23.5257,24.106,155.412,99.757,95.3332,0.00157301,0.110251,20.9501,96.9265,0.402604,0.0,0.0
3069,767,23.8057,24.9362,159.199,99.734,95.2324,0.0015749,0.110085,20.9503,96.8864,0.409957,0.0,0.0
3080,769.75,23.8955,24.9322,156.818,99.7195,94.3819,0.00162569,0.111144,20.9475,96.8164,0.488295,0.0,0.0
3091,772.5,23.5479,24.3762,156.141,99.7018,95.0899,0.00159821,0.113111,20.9463,96.7763,0.420377,0.0,0.0
3102,775.25,23.0736,24.3931,157.379,99.6636,95.3019,0.00159624,0.114043,20.9459,96.7163,0.397206,0.0,0.0
3113,778,23.6425,24.7609,153.667,99.6535,94.3444,0.00157708,0.114498,20.945,96.7063,0.485942,0.0,0.0
3124,780.75,23.7023,24.7769,153.706,99.6266,94.8294,0.00154616,0.115964,20.9423,96.6762,0.438033,0.0,0.0
3135,783.5,23.6592,24.8426,157.809,99.6109,95.3127,0.00167214,0.116527,20.9414,96.6062,0.391512,0.0,0.0
3146,786.25,23.8325,24.7422,151.131,99.5847,94.9677,0.00187697,0.116313,20.9427,96.5661,0.421366,0.0,0.0
3157,789,23.8586,24.9329,156.698,99.567,95.0303,0.00191763,0.114948,20.9445,96.5061,0.41394,0.0,0.0
3168,791.75,24.3684,24.5528,153.438,99.5517,95.2126,0.00178898,0.11395,20.9458,96.4861,0.39556,0.0,0.0
3179,794.5,24.2255,25.2587,156.096,99.5207,95.0401,0.00161012,0.113622,20.9462,96.436,0.408891,0.0,0.0
3190,797.25,23.7563,25.1707,155.934,99.5046,94.307,0.00160144,0.112903,20.9469,96.386,0.476194,0.0,0.0
3201,800,23.9397,25.2709,156.033,99.4813,94.8363,0.00167888,0.11207,20.9482,96.3459,0.424425,0.0,0.0
3212,802.75,23.7614,25.0532,155.538,99.4495,95.2381,0.00164584,0.111883,20.9491,96.2959,0.384062,0.0,0.0
3223,805.5,23.8714,24.905,152.342,99.4571,94.6495,0.00160441,0.112325,20.9482,96.2659,0.439778,0.0,0.0
3234,808.25,23.5742,25.0657,158.374,99.4334,94.2794,0.00156241,0.1132,20.9475,96.2258,0.472434,0.0,0.0
3245,811,23.2963,24.389,156.174,99.4201,94.5408,0.00156403,0.114213,20.9458,96.1658,0.446671,0.0,0.0
3256,813.75,23.949,24.916,155.413,99.4072,94.0978,0.00164461,0.114015,20.9443,96.1258,0.487207,0.0,0.0
3267,816.5,23.1644,25.3858,153.171,99.4028,94.4638,0.0017496,0.112371,20.945,96.0657,0.452356,0.0,0.0
3278,819.25,23.713,24.8419,158.245,99.3935,94.4593,0.00174745,0.11155,20.9452,96.0357,0.451956,0.0,0.0
3289,822,23.8269,25.0539,151.076,99.3855,95.3563,0.00163053,0.111528,20.9454,95.9756,0.367345,0.0,0.0
3300,824.75,24.3101,25.5562,155.204,99.3678,94.8545,0.00153004,0.111997,20.9459,95.9756,0.412597,0.0,0.0
3311,827.5,24.0352,25.3813,152.284,99.3577,95.1817,0.00144822,0.112863,20.9445,95.9056,0.381127,0.0,0.0
3322,830.25,23.9971,25.1544,154.702,99.3561,94.9669,0.00144801,0.113393,20.944,95.8355,0.401045,0.0,0.0
3333,833,24.4351,25.3806,151.69,99.3392,94.9191,0.00149992,0.11381,20.9424,95.7854,0.403999,0.0,0.0
3344,835.75,24.4742,25.2143,155.871,99.3384,95.1669,0.00161818,0.115291,20.9411,95.7554,0.380782,0.0,0.0
3355,838.5,23.7347,24.9975,154.715,99.3263,94.8269,0.00170619,0.117791,20.9395,95.6854,0.411476,0.0,0.0
3366,841.25,24.2603,25.073,156.778,99.3219,95.3756,0.00172076,0.119041,20.9392,95.6653,0.359862,0.0,0.0
3377,844,24.4186,25.6418,153.904,99.3304,94.6499,0.00168146,0.119272,20.9393,95.6053,0.42842,0.0,0.0
3388,846.75,23.9319,24.9095,153.209,99.3135,94.8236,0.00171093,0.119189,20.9393,95.5552,0.410632,0.0,0.0
3399,849.5,24.4328,25.4748,152.219,99.3082,94.677,0.00175884,0.119032,20.9393,95.5052,0.423893,0.0,0.0
3410,852.25,24.2161,25.7096,159.117,99.2945,94.5659,0.00186337,0.11844,20.9393,95.4552,0.433098,0.0,0.0
3421,855,24.282,25.7636,156.792,99.2849,94.9199,0.00193695,0.118502,20.9366,95.4251,0.399065,0.0,0.0
3432,857.75,24.6006,25.5746,156.991,99.2965,94.5791,0.00205724,0.123242,20.9327,95.3651,0.43204,0.0,0.0
3443,860.5,24.3382,25.3154,151.903,99.2877,93.1078,0.00219416,0.128995,20.929,95.305,0.570413,0.0,0.0
3454,863.25,24.882,25.8996,152.696,99.2672,93.7113,0.00232136,0.129223,20.9301,95.255,0.511231,0.0,0.0
3465,866,24.2826,25.5133,156.363,99.2539,93.7191,0.00226361,0.124983,20.9345,95.1949,0.509303,0.0,0.0
3476,868.75,25.1591,25.7328,152.907,99.2587,93.2634,0.00209164,0.121382,20.938,95.1549,0.553001,0.0,0.0
3487,871.5,24.5495,25.753,157.346,99.2603,93.3169,0.00199061,0.118995,20.9393,95.0948,0.548053,0.0,0.0
3498,874.25,24.51,25.605,155.447,99.239,94.0921,0.00185333,0.118778,20.9396,95.0348,0.472717,0.0,0.0
3509,877,24.7207,25.8561,157.593,99.233,94.1904,0.00165198,0.118597,20.9398,94.9847,0.462901,0.0,0.0
3520,879.75,24.5339,25.7962,159.052,99.2169,94.512,0.00164528,0.118638,20.9398,94.9547,0.431215,0.0,0.0
3531,882.5,24.2369,25.3047,156.383,99.2314,94.5297,0.001927,0.119313,20.9397,94.8847,0.430848,0.0,0.0
3542,885.25,24.7805,25.7844,150.806,99.2305,94.7009,0.0019843,0.120338,20.9385,94.8446,0.414711,0.0,0.0
3553,888,24.6407,25.9496,158.468,99.2342,94.3176,0.00190028,0.121138,20.9366,94.7846,0.45103,0.0,0.0
3564,890.75,24.6339,25.9881,153.242,99.2189,94.684,0.00180621,0.121831,20.9359,94.7345,0.415248,0.0,0.0
3575,893.5,24.5138,26.17,153.275,99.2116,94.2086,0.00172773,0.122085,20.9355,94.6544,0.459286,0.0,0.0
3586,896.25,24.4483,26.1603,155.527,99.208,94.7869,0.00165266,0.123155,20.9339,94.5944,0.404634,0.0,0.0
3597,899,25.0516,25.9982,155.934,99.214,94.971,0.00163463,0.12368,20.932,94.5644,0.387959,0.0,0.0
3608,901.75,24.9111,25.966,152.961,99.2112,94.6672,0.00162647,0.12352,20.9313,94.5243,0.416147,0.0,0.0
3619,904.5,25.0483,26.449,155.575,99.2116,94.8145,0.0016617,0.1239,20.931,94.4743,0.402376,0.0,0.0
3630,907.25,25.484,26.1721,156.757,99.2064,94.6178,0.00176974,0.124309,20.9303,94.4042,0.420348,0.0,0.0
3641,910,24.7474,25.9506,155.368,99.2173,94.2086,0.00172795,0.124594,20.9291,94.3742,0.459789,0.0,0.0
3652,912.75,24.9283,25.739,150.782,99.2028,94.6128,0.00157942,0.124857,20.9287,94.3141,0.420487,0.0,0.0
3663,915.5,24.8264,26.292,160.184,99.1963,94.0546,0.00165015,0.125319,20.9286,94.2241,0.472436,0.0,0.0
3674,918.25,24.8969,26.0984,154.638,99.1883,94.7277,0.00167788,0.126721,20.9283,94.194,0.408423,0.0,0.0
3685,921,24.8615,26.523,155.447,99.1871,94.3321,0.00151738,0.127943,20.9259,94.134,0.445461,0.0,0.0
3696,923.75,25.3145,26.4659,154.615,99.1947,94.1357,0.00145002,0.128898,20.9241,94.0839,0.464642,0.0,0.0
3707,926.5,25.4985,26.6105,150.646,99.1814,94.5531,0.00142433,0.130141,20.9229,94.0339,0.424181,0.0,0.0
3718,929.25,25.5219,26.4409,157.852,99.169,94.6276,0.0015778,0.130715,20.9229,93.9738,0.416072,0.0,0.0
3729,932,25.1204,27.0218,160.41,99.1975,94.477,0.00172799,0.131564,20.9215,93.9138,0.432773,0.0,0.0
3740,934.75,26.1963,26.1119,155.982,99.2185,93.9517,0.00182667,0.131472,20.9215,93.8637,0.484134,0.0,0.0
3751,937.5,25.1974,26.4047,155.083,99.247,93.5692,0.00186847,0.131205,20.9208,93.8237,0.522895,0.0,0.0
3762,940.25,25.3372,26.4837,153.997,99.2623,94.3107,0.00182213,0.1317,20.9206,93.7737,0.454207,0.0,0.0
3773,943,25.7422,26.9234,153.735,99.2579,94.6305,0.00193587,0.13204,20.9189,93.6936,0.423759,0.0,0.0
3784,945.75,26.3343,26.9963,155.201,99.2877,93.941,0.00203732,0.132546,20.9184,93.6535,0.491336,0.0,0.0
3795,948.5,25.4723,26.9516,150.649,99.2978,93.3103,0.00185404,0.132673,20.9182,93.5935,0.552025,0.0,0.0
3806,951.25,25.6138,27.0059,154.906,99.311,93.9373,0.0016888,0.131285,20.9203,93.5835,0.493772,0.0,0.0
3817,954,25.896,27.1671,155.1,99.3167,93.1168,0.00168958,0.13052,20.9214,93.4934,0.572141,0.0,0.0
3828,956.75,25.8719,26.8281,155.642,99.3195,93.9447,0.00182026,0.132166,20.9205,93.4434,0.493826,0.0,0.0
3839,959.5,25.7984,27.5535,151.267,99.3384,93.4466,0.00186845,0.135817,20.9179,93.3633,0.542705,0.0,0.0
3850,962.25,26.0713,27.1871,154.712,99.3553,92.9703,0.00181732,0.137194,20.9166,93.3232,0.589573,0.0,0.0
3861,965,26.0786,26.9911,155.456,99.3448,93.5622,0.00171745,0.135958,20.9186,93.2832,0.5323,0.0,0.0
3872,967.75,25.8912,27.1052,156.101,99.3481,94.1353,0.00163035,0.133875,20.9206,93.2232,0.47839,0.0,0.0
3883,970.5,25.8907,27.0143,157.427,99.3473,93.9747,0.00176222,0.131444,20.9227,93.1531,0.493469,0.0,0.0
3894,973.25,25.2803,27.8908,156.268,99.3714,93.9348,0.00182636,0.129503,20.9245,93.1231,0.499399,0.0,0.0
3905,976,25.4635,26.9885,157.179,99.3585,93.5898,0.00174856,0.128404,20.9275,93.1031,0.530906,0.0,0.0
3916,978.75,25.7812,26.6713,161.116,99.3654,93.5672,0.00158562,0.127701,20.9297,93.053,0.533665,0.0,0.0
3927,981.5,25.5087,27.0458,156.324,99.3384,93.4816,0.0015166,0.126467,20.9309,93.003,0.539382,0.0,0.0
3938,984.25,25.7987,26.8048,156.183,99.3497,93.9048,0.00143315,0.125005,20.9325,92.9629,0.500298,0.0,0.0
3949,987,25.7507,27.0539,156.739,99.3525,93.7236,0.00134452,0.123283,20.9336,92.9029,0.517687,0.0,0.0
3960,989.75,25.7721,26.9365,157.098,99.3654,93.0275,0.00129865,0.121706,20.9349,92.8528,0.58501,0.0,0.0
3971,992.5,25.3569,26.6936,156.932,99.3537,93.7763,0.00144117,0.120637,20.9353,92.8228,0.512806,0.0,0.0
3982,995.25,25.3134,26.5267,157.487,99.3541,94.1448,0.00166263,0.12021,20.9355,92.7928,0.478037,0.0,0.0
3993,998,25.5643,26.94,155.437,99.3613,94.2073,0.00183985,0.120916,20.9355,92.7427,0.472787,0.0,0.0
4004,1000.75,25.7889,26.4889,156.536,99.3589,94.062,0.00170678,0.120153,20.9355,92.6927,0.486273,0.0,0.0
4015,1003.5,25.31,26.6664,156.328,99.3807,94.2814,0.00153995,0.119272,20.9367,92.6326,0.467533,0.0,0.0
4026,1006.25,25.3431,26.4901,158.195,99.3617,94.2995,0.00169215,0.117339,20.9391,92.6026,0.464139,0.0,0.0
4037,1009,25.5789,26.6065,155.275,99.3561,94.8545,0.00167835,0.115206,20.9419,92.5726,0.411555,0.0,0.0
4048,1011.75,25.6261,26.6776,152.728,99.3553,93.5824,0.00165263,0.113937,20.944,92.5325,0.531321,0.0,0.0
4059,1014.5,25.0747,25.9698,151.172,99.3585,93.7755,0.00177724,0.113196,20.946,92.5025,0.513316,0.0,0.0
4070,1017.25,25.1154,26.205,160.916,99.3722,94.2913,0.00196891,0.112209,20.9469,92.4725,0.465848,0.0,0.0
4081,1020,24.842,26.1402,157.63,99.3819,94.5235,0.00202375,0.111335,20.9484,92.4325,0.444881,0.0,0.0
4092,1022.75,25.0386,26.0756,155.457,99.396,93.8245,0.00190689,0.11031,20.9499,92.3924,0.512022,0.0,0.0
4103,1025.5,24.431,26.0481,150.798,99.4217,94.5391,0.00178746,0.10885,20.9517,92.3424,0.44697,0.0,0.0
4114,1028.25,25.1062,26.0542,158.482,99.4318,93.9472,0.00171756,0.108078,20.9523,92.3224,0.503623,0.0,0.0
4125,1031,24.7387,25.9555,154.644,99.4499,93.4696,0.00194321,0.107613,20.9533,92.2823,0.550472,0.0,0.0
4136,1033.75,24.8411,26.0142,157.346,99.4628,94.4519,0.00197108,0.106614,20.9544,92.2423,0.458832,0.0,0.0
4147,1036.5,25.2779,25.9255,153.937,99.4986,94.6746,0.00184161,0.105439,20.9548,92.2223,0.441124,0.0,0.0
4158,1039.25,24.4083,25.5952,158.936,99.5175,94.6844,0.00176488,0.105331,20.9549,92.1822,0.441885,0.0,0.0
4169,1042,24.6461,25.7,151.127,99.5356,94.1069,0.00169885,0.106266,20.9541,92.1622,0.497809,0.0,0.0
4180,1044.75,24.5935,25.551,155.317,99.5328,94.486,0.00171985,0.106115,20.9536,92.1122,0.461869,0.0,0.0
4191,1047.5,24.4734,25.4989,154.712,99.5308,94.5177,0.00175338,0.104873,20.9559,92.0922,0.458712,0.0,0.0
4202,1050.25,23.3457,25.3279,159.497,99.5718,94.5362,0.00167882,0.103138,20.958,92.0721,0.460632,0.0,0.0
4213,1053,24.3566,25.328,156.518,99.5879,94.0007,0.00169221,0.10171,20.9598,92.0421,0.512496,0.0,0.0
4224,1055.75,24.1301,25.2828,155.515,99.6028,94.1476,0.00156511,0.0999621,20.9608,92.0021,0.499956,0.0,0.0
4235,1058.5,24.2935,25.2044,162.028,99.6004,94.8302,0.00145063,0.098714,20.9623,91.9921,0.435625,0.0,0.0
4246,1061.25,24.0731,25.2319,156.317,99.6113,95.3563,0.00146446,0.0981157,20.9632,91.942,0.387485,0.0,0.0
4257,1064,23.883,24.897,159.686,99.6205,94.9154,0.00151488,0.0974871,20.9635,91.922,0.429446,0.0,0.0
4268,1066.75,23.3149,24.4293,158.122,99.6326,94.5173,0.00159806,0.0975597,20.9636,91.882,0.467826,0.0,0.0
4279,1069.5,23.4893,24.7907,154.349,99.6414,94.5346,0.00159165,0.0976678,20.9653,91.872,0.466992,0.0,0.0
4290,1072.25,23.8302,24.6675,158.843,99.6354,94.8178,0.00144831,0.0971831,20.9658,91.8019,0.4399,0.0,0.0
4301,1075,23.6772,24.909,154.388,99.6515,95.0138,0.001419,0.0976319,20.9648,91.8319,0.42301,0.0,0.0
4312,1077.75,23.3489,24.4794,156.079,99.664,94.6293,0.00157577,0.098403,20.964,91.7719,0.460113,0.0,0.0
4323,1080.5,23.7044,25.054,155.843,99.66,94.7651,0.00156704,0.0987035,20.9642,91.7518,0.44702,0.0,0.0
4334,1083.25,23.248,24.4002,156.646,99.674,94.766,0.00150143,0.0972026,20.9671,91.7318,0.448198,0.0,0.0
4345,1086,23.2486,24.2678,156.503,99.6708,94.8112,0.00155063,0.0952534,20.9695,91.7218,0.443671,0.0,0.0
4356,1088.75,22.9925,23.9843,160.085,99.6773,95.0574,0.00150586,0.0937347,20.9722,91.6918,0.421228,0.0,0.0
4367,1091.5,23.3421,24.2251,157.601,99.6942,95.0002,0.00137249,0.0916206,20.9745,91.6417,0.428078,0.0,0.0
4378,1094.25,22.9718,23.9291,157.37,99.6829,94.7594,0.0012556,0.090057,20.9767,91.6618,0.449604,0.0,0.0
4389,1097,23.1312,23.9433,158.277,99.6728,94.9961,0.00129271,0.0891657,20.9774,91.6317,0.426563,0.0,0.0
4400,1099.75,23.3433,23.974,155.075,99.6805,94.7322,0.00128056,0.0899279,20.9776,91.6017,0.451934,0.0,0.0
4411,1102.5,23.0131,24.3605,156.026,99.6829,94.5486,0.00120406,0.0905134,20.9765,91.5917,0.469369,0.0,0.0
4422,1105.25,22.7461,23.3407,156.236,99.6797,95.3415,0.00132619,0.0902381,20.9773,91.5517,0.394959,0.0,0.0
4433,1108,22.8438,23.4005,155.412,99.6821,95.1468,0.00147433,0.0893552,20.9789,91.5517,0.41332,0.0,0.0
4444,1110.75,22.4057,23.3181,161.099,99.6596,94.8726,0.00153207,0.0880922,20.9797,91.5116,0.436927,0.0,0.0
4455,1113.5,22.6034,23.496,153.851,99.6688,95.1492,0.00156271,0.0872204,20.9807,91.5116,0.411908,0.0,0.0
4466,1116.25,22.9798,23.6317,155.715,99.6696,94.7919,0.00147914,0.0865799,20.9814,91.4816,0.445375,0.0,0.0
4477,1119,23.1796,24.3756,160.934,99.6519,94.8121,0.00128946,0.0859159,20.9817,91.4516,0.44191,0.0,0.0
4488,1121.75,22.0603,22.9245,155.544,99.6527,94.9932,0.00109064,0.0853957,20.9833,91.4416,0.425041,0.0,0.0
4499,1124.5,22.6714,23.7741,159.574,99.6346,94.8726,0.00124805,0.0849488,20.9839,91.4115,0.434705,0.0,0.0
4510,1127.25,22.4941,22.998,157.339,99.6366,95.1126,0.00154422,0.0845097,20.9857,91.4115,0.412459,0.0,0.0
4521,1130,21.8586,22.4884,152.699,99.6479,95.0517,0.00157731,0.0839866,20.9868,91.4115,0.41915,0.0,0.0
4532,1132.75,21.9633,23.2393,152.885,99.6471,94.9574,0.00160183,0.0837103,20.9871,91.3715,0.427885,0.0,0.0
4543,1135.5,22.6132,23.1504,160.503,99.6467,95.2311,0.00162649,0.0832833,20.9877,91.3615,0.402297,0.0,0.0
4554,1138.25,22.0382,22.7301,153.959,99.6491,95.0994,0.00146263,0.0827925,20.9884,91.3515,0.414799,0.0,0.0
4565,1141,22.185,22.9464,158.298,99.6781,94.8104,0.00125524,0.0823398,20.9885,91.3015,0.444394,0.0,0.0
4576,1143.75,22.602,23.2557,159.473,99.6567,95.1974,0.00123861,0.0820182,20.9886,91.3115,0.40634,0.0,0.0
4587,1146.5,21.9113,23.192,156.376,99.6588,95.2978,0.0012554,0.081965,20.9886,91.2914,0.397159,0.0,0.0
4598,1149.25,22.2562,22.6846,156.691,99.6519,94.542,0.00126135,0.081839,20.9886,91.2914,0.467227,0.0,0.0
4609,1152,22.2795,22.6291,155.251,99.6628,95.0405,0.00144385,0.0818194,20.9886,91.2614,0.421513,0.0,0.0
4620,1154.75,22.1856,22.7957,155.597,99.6696,94.9434,0.00160263,0.081987,20.9886,91.2314,0.431201,0.0,0.0
4631,1157.5,21.9822,22.6681,160.322,99.6817,95.206,0.00149467,0.0817604,20.9886,91.2114,0.407757,0.0,0.0
4642,1160.25,21.6947,22.8014,155.625,99.6901,95.4073,0.00138801,0.0813737,20.9883,91.1813,0.389761,0.0,0.0
4653,1163,21.8926,22.5815,158.195,99.6753,94.7606,0.001419,0.0807601,20.9882,91.1813,0.448808,0.0,0.0
4664,1165.75,22.0045,22.3452,157.617,99.7066,95.0541,0.00139595,0.0799577,20.9881,91.1513,0.424152,0.0,0.0
4675,1168.5,21.9746,22.3228,157.333,99.7099,95.3905,0.00138701,0.0796233,20.9881,91.1313,0.393087,0.0,0.0
4686,1171.25,22.3233,22.788,158.625,99.7183,95.5559,0.001287,0.0793738,20.9896,91.1613,0.378454,0.0,0.0
4697,1174,22.0911,23.0855,157.978,99.736,95.134,0.00116248,0.0789359,20.9915,91.1213,0.419312,0.0,0.0
4708,1176.75,21.436,21.8949,156.812,99.7239,95.5971,0.00122004,0.0782621,20.9924,91.1013,0.375132,0.0,0.0
4719,1179.5,21.9154,21.5777,156.614,99.7312,95.7235,0.00142436,0.0779131,20.9938,91.1013,0.364051,0.0,0.0
4730,1182.25,21.4085,22.1567,165.101,99.7457,95.2637,0.00157824,0.0769069,20.9959,91.0913,0.408081,0.0,0.0
4741,1185,20.9632,21.9521,160.871,99.7469,94.3518,0.00148946,0.074827,20.9992,91.0712,0.493557,0.0,0.0
4752,1187.75,20.388,21.2257,160.736,99.7529,94.3547,0.00135482,0.0725568,21.0021,91.0512,0.493823,0.0,0.0
4763,1190.5,21.0701,21.9242,156.611,99.7243,94.3568,0.00140299,0.0715352,21.0035,91.0712,0.491088,0.0,0.0
4774,1193.25,21.0296,21.8943,162.708,99.7461,94.7059,0.00144824,0.0714369,21.004,91.0512,0.460242,0.0,0.0
4785,1196,21.141,21.5863,156.39,99.7477,95.2402,0.00152484,0.0715137,21.0047,91.0412,0.410447,0.0,0.0
4796,1198.75,20.631,21.8367,155.263,99.7477,94.4272,0.00162788,0.0709394,21.006,91.0212,0.486545,0.0,0.0
4807,1201.5,20.9125,21.7789,156.033,99.7392,95.183,0.00160442,0.0704641,21.0063,90.9812,0.415029,0.0,0.0
4818,1204.25,20.6905,21.5131,158.491,99.7481,94.3901,0.00135885,0.0701372,21.0065,90.9712,0.490063,0.0,0.0
4829,1207,20.9281,21.3462,157.266,99.7509,95.0068,0.00122081,0.0698201,21.0065,90.9712,0.432513,0.0,0.0
4840,1209.75,20.3046,21.1624,156.396,99.7541,94.4078,0.00141427,0.0697766,21.0065,90.9812,0.488937,0.0,0.0
4851,1212.5,20.5027,21.2891,158.778,99.7324,94.3366,0.00144859,0.0698337,21.0065,90.9611,0.4937,0.0,0.0
4862,1215.25,20.4171,21.5293,155.815,99.7348,94.4259,0.00138274,0.0698359,21.0065,90.9411,0.485515,0.0,0.0
4873,1218,20.4302,20.2968,159.281,99.7413,94.2328,0.00145099,0.0698473,21.0065,90.9411,0.504255,0.0,0.0
4884,1220.75,20.1909,21.2761,154.51,99.7348,94.9697,0.00147108,0.0698829,21.0065,90.9211,0.434543,0.0,0.0
4895,1223.5,21.0207,21.3359,161.886,99.7493,95.1542,0.00143106,0.0699156,21.0049,90.8811,0.418612,0.0,0.0
4906,1226.25,20.1768,20.6602,157.23,99.738,95.0368,0.00133391,0.0699918,21.0044,90.8911,0.428561,0.0,0.0
4917,1229,20.4382,21.1838,155.618,99.7252,94.0682,0.00128169,0.0702132,21.0047,90.8711,0.518346,0.0,0.0
4928,1231.75,20.0582,21.1949,156.076,99.73,95.0179,0.00115832,0.0702424,21.0051,90.851,0.429612,0.0,0.0
4939,1234.5,20.4286,20.9787,158.92,99.7356,95.2385,0.00120752,0.0702517,21.0055,90.851,0.409526,0.0,0.0
4950,1237.25,20.3732,20.9718,158.592,99.7336,94.5029,0.00138557,0.0702072,21.0056,90.841,0.478173,0.0,0.0
4961,1240,20.5701,21.049,158.304,99.7163,94.7783,0.00139783,0.0703777,21.0057,90.831,0.450805,0.0,0.0
4972,1242.75,20.8564,21.476,157.811,99.7223,94.894,0.00123646,0.0702505,21.0052,90.821,0.440514,0.0,0.0
4983,1245.5,20.3107,20.8124,155.292,99.7143,94.6087,0.00105045,0.0701786,21.0062,90.791,0.466522,0.0,0.0
4994,1248.25,20.3327,20.942,154.696,99.7231,94.5239,0.000938889,0.070196,21.0069,90.811,0.475271,0.0,0.0
5005,1251,20.3641,21.1083,156.336,99.7046,94.6519,0.00097947,0.0702028,21.0057,90.771,0.461609,0.0,0.0
5016,1253.75,20.1458,21.2309,157.001,99.6966,94.5535,0.000997047,0.0701615,21.0046,90.771,0.470124,0.0,0.0
5027,1256.5,20.2666,21.479,159.165,99.697,94.7985,0.000946003,0.0702454,21.0043,90.761,0.447196,0.0,0.0
5038,1259.25,20.631,21.1327,152.523,99.7054,94.4255,0.000911124,0.0704028,21.0042,90.751,0.482938,0.0,0.0
5049,1262,19.9427,20.9068,157.858,99.6805,95.1891,0.000961652,0.0704414,21.0042,90.751,0.409223,0.0,0.0
5060,1264.75,19.9993,21.1451,158.955,99.6604,94.9903,0.00113186,0.0705272,21.0042,90.7309,0.42599,0.0,0.0
5071,1267.5,19.9291,21.0766,160.829,99.6487,95.0541,0.00124725,0.0705131,21.0042,90.7209,0.41899,0.0,0.0
5082,1270.25,20.3477,20.7963,160.805,99.6499,95.5675,0.00132127,0.0704746,21.0042,90.7009,0.371291,0.0,0.0
5093,1273,20.4685,20.6686,155.41,99.6346,95.4995,0.00130243,0.0704987,21.0048,90.6909,0.37624,0.0,0.0
5104,1275.75,20.3754,20.7089,161.013,99.6286,94.689,0.00116075,0.0705957,21.0064,90.6809,0.451361,0.0,0.0
5115,1278.5,20.3818,20.2665,153.661,99.6137,95.0842,0.00105122,0.0707796,21.0069,90.6709,0.413066,0.0,0.0
5126,1281.25,20.4069,20.4524,159.333,99.6004,94.8458,0.00102296,0.0707404,21.0071,90.6609,0.434161,0.0,0.0
5137,1284,20.4799,20.7073,157.695,99.5823,94.577,0.00107802,0.0706619,21.0072,90.6509,0.45774,0.0,0.0
5148,1286.75,20.704,21.292,155.408,99.5855,94.8619,0.00103391,0.0705567,21.0072,90.6309,0.431331,0.0,0.0
5159,1289.5,20.1174,20.6889,158.729,99.5686,94.8676,0.00107189,0.0704522,21.0072,90.6309,0.429286,0.0,0.0
5170,1292.25,20.0657,20.7115,161.049,99.5537,95.5284,,0.0705099,,90.5908,0.366353,0.0,0.0
5181,1295,20.674,20.9847,159.536,99.542,94.3769,,0.0704282,,90.6008,0.472949,0.0,0.0
5192,1297.75,20.4357,21.098,159.972,99.5424,94.7573,,,,90.5708,0.437281,0.0,0.0
5203,1300.5,19.9088,21.4456,158.312,99.532,94.9813,,,,90.5908,0.415395,0.0,0.0
5213,1303,20.158,20.9766,158.543,99.5187,94.747,,,,90.5908,0.436127,0.0,0.0