File: 01_Data/Fiberglass_Insulation_R30/Cone/R30_Fiberglass_Insulation_Cone_HF25Scan_220502_R1.csv
Names,Time,Stack TC,Smoke TC,Exh Press,Smoke Comp,Smoke Meas,CO Meter,CO2 Meter,O2 Meter,Sample Mass,Ext Coeff,Start Test,Flame Verif
Chan Gain,,500,500,1,1,1,1,1,1,1,1,1.0,1.0
Offset,,0,0,0.134537,0,0,0,0,0,0,0,0.0,0.0
Gain,,1,1,25.011,14.8585,16.6522,1,1,1,1.00087,1.0138,1.0,1.0
Units,sec,C,C,Pa,%,%,%,%,%,g,/m,,
Baseline,,21.6363,22.2037,140.163,111.2,112.254,-4.59976e-05,0.0525232,21.0112,-834.11,-0.0839077,,
17,4,19.4553,19.9109,139.597,111.149,111.686,0.00023206,0.0594838,21.0028,-341.106,-0.0428426,0.0,0.0
34,8.25,19.7676,19.9544,138.507,111.138,112.108,6.08557e-05,0.0576709,21.0052,-341.176,-0.0772356,0.0,0.0
51,12.5,19.9211,20.2718,134.689,111.151,112.325,0.000382408,0.0558646,21.0081,-341.196,-0.0934562,0.0,0.0
68,16.75,20.2854,20.4008,137.46,111.151,112.724,0.000658781,0.0539242,21.0111,-341.226,-0.124948,0.0,0.0
85,21,20.9024,21.18,138.3,111.146,112.661,0.000655153,0.053067,21.0124,-341.256,-0.120411,0.0,0.0
102,25.25,20.8853,20.4558,137.882,111.153,112.365,0.000697025,0.0528697,21.0107,-341.266,-0.0964495,0.0,0.0
119,29.5,20.1758,21.2183,140.179,111.143,112.643,0.000498279,0.0531504,21.0117,-341.316,-0.11922,0.0,0.0
136,33.75,20.7139,21.571,141.067,111.148,112.182,0.000310784,0.0537581,21.0114,-341.316,-0.0823573,0.0,0.0
153,38,20.4271,21.1798,140.454,111.155,112.228,0.000395942,0.0534666,21.0115,-341.306,-0.0854378,0.0,0.0
170,42.25,20.6494,21.0408,139.545,111.162,112.595,0.000284212,0.0526036,21.0129,-341.346,-0.113885,0.0,0.0
187,46.5,20.6663,21.4294,138.757,111.171,112.336,0.000454628,0.0521012,21.0138,-341.346,-0.0927095,0.0,0.0
204,50.75,20.9597,21.4936,140.116,111.163,112.247,0.000701765,0.0519282,21.0138,-341.336,-0.0863155,0.0,0.0
221,55,20.9113,21.562,139.291,111.164,112.457,0.000522999,0.0519796,21.0134,-341.336,-0.102896,0.0,0.0
238,59.25,20.942,21.5411,137.799,111.16,112.431,0.000301079,0.0519915,21.0119,-341.356,-0.101173,0.0,0.0
255,63.5,21.227,21.5622,139.648,111.161,112.957,0.000256145,0.0517111,21.0131,-341.356,-0.142569,0.0,0.0
272,67.75,21.1273,21.972,142.612,111.165,112.359,0.000308541,0.0513803,21.0133,-341.346,-0.0950232,0.0,0.0
289,72,21.1099,22.1819,135.828,111.154,112.299,0.00055105,0.0512235,21.0133,-341.366,-0.0911468,0.0,0.0
306,76.25,20.9845,21.6427,138.575,111.158,112.351,0.000336609,0.051163,21.0138,-341.356,-0.0949241,0.0,0.0
323,80.5,20.9339,21.9075,136.501,111.167,112.514,0.000213961,0.0511792,21.014,-341.366,-0.107065,0.0,0.0
340,84.75,21.4825,22.0252,140.779,111.149,112.436,0.000242249,0.051113,21.014,-341.346,-0.102445,0.0,0.0
357,89,21.4506,22.2116,137.303,111.147,112.815,0.000309532,0.0510483,21.014,-341.356,-0.132484,0.0,0.0
374,93.25,21.4196,22.0427,142.518,111.144,112.24,0.000582895,0.0511157,21.014,-341.386,-0.0872752,0.0,0.0
391,97.5,21.4493,22.3544,138.699,111.147,112.341,0.000632121,0.0512191,21.0142,-341.396,-0.0949943,0.0,0.0
408,101.75,21.0487,22.1329,142.008,111.143,112.564,0.000159488,0.0511768,21.0149,-341.376,-0.112963,0.0,0.0
425,106,21.6893,22.3411,139.108,111.153,112.749,7.63302e-05,0.0509741,21.015,-341.396,-0.126767,0.0,0.0
442,110.25,21.7796,22.4147,137.085,111.165,112.298,-9.74794e-05,0.0507422,21.0156,-341.386,-0.0901995,0.0,0.0
459,114.5,21.7257,21.806,139.533,111.163,112.622,0.000131092,0.050889,21.0158,-341.386,-0.11602,0.0,0.0
476,118.75,21.0125,21.9407,139.835,111.153,112.41,0.000212241,0.0507211,21.0153,-341.396,-0.0999916,0.0,0.0
493,123,21.631,22.5086,146.845,111.165,113.027,0.000370465,0.0508895,21.0137,-341.396,-0.147722,0.0,0.0
510,127.25,21.5425,22.4323,140.175,111.176,113.335,0.000461977,0.0507909,21.0136,-341.396,-0.171013,0.0,0.0
527,131.5,21.812,22.1788,142.063,111.176,112.63,0.000423907,0.0507672,21.0148,-341.396,-0.115493,0.0,0.0
544,135.75,21.4419,22.1999,142.183,111.183,112.704,0.000367511,0.0506454,21.0137,-341.396,-0.120805,0.0,0.0
561,140,21.5082,22.386,139.319,111.194,112.786,0.000299488,0.0507268,21.0134,-341.386,-0.126388,0.0,0.0
578,144.25,21.1502,22.3676,137.224,111.178,112.427,-5.21733e-05,0.0505942,21.014,-341.406,-0.0993596,0.0,0.0
595,148.5,21.7739,22.2968,137.051,111.191,112.578,-0.000232957,0.0507319,21.0143,-341.396,-0.110243,0.0,0.0
612,152.75,21.4027,22.7593,137.391,111.191,112.706,-5.69983e-05,0.0510242,21.0143,-341.406,-0.120353,0.0,0.0
629,157,21.6559,22.7366,136.412,111.181,112.391,0.00012043,0.0508136,21.0154,-341.396,-0.0962512,0.0,0.0
646,161.25,22.006,22.2379,138.487,111.194,113.012,0.00016393,0.0509991,21.014,-341.396,-0.144278,0.0,0.0
663,165.5,21.7914,22.1628,140.519,111.201,112.882,0.000210983,0.0509004,21.013,-341.406,-0.133455,0.0,0.0
680,169.75,21.6053,22.283,141.792,111.193,112.507,3.33315e-05,0.0509209,21.0142,-341.406,-0.104511,0.0,0.0
697,174,21.8696,22.791,140.167,111.202,112.41,4.90547e-05,0.0508136,21.0147,-341.406,-0.0960744,0.0,0.0
714,178.25,21.5543,22.7123,141.422,111.187,112.568,1.58368e-05,0.0509504,21.0146,-341.416,-0.109726,0.0,0.0
731,182.5,21.5283,22.3166,139.824,111.188,112.55,-2.51198e-05,0.0507752,21.0135,-341.416,-0.108324,0.0,0.0
748,186.75,21.6907,22.7364,140.983,111.181,112.327,4.38068e-05,0.0509478,21.0146,-341.416,-0.0911832,0.0,0.0
765,191,21.9424,22.7774,139.219,111.188,112.553,0.000242623,0.0508412,21.0142,-341.426,-0.108525,0.0,0.0
782,195.25,21.655,22.9902,143.031,111.193,112.64,0.000138867,0.0510186,21.0128,-341.416,-0.114953,0.0,0.0
799,199.5,21.7818,22.4927,139.062,111.196,112.807,0.000268559,0.0508403,21.0134,-341.416,-0.12789,0.0,0.0
816,203.75,21.9158,22.819,137.802,111.199,112.515,0.000397008,0.0507925,21.0125,-341.416,-0.10461,0.0,0.0
833,208,22.2593,22.7079,139.155,111.214,112.51,0.000325749,0.0506679,21.0133,-341.416,-0.102972,0.0,0.0
850,212.25,21.8816,23.265,137.099,111.217,112.484,7.14455e-05,0.0505648,21.0139,-341.406,-0.100742,0.0,0.0
867,216.5,22.0219,22.2462,136.517,111.236,113.008,0.00013393,0.0508176,21.0122,-341.416,-0.140586,0.0,0.0
884,220.75,21.9756,22.6833,143.252,111.257,113.168,0.000217011,0.0507552,21.0117,-341.446,-0.151467,0.0,0.0
901,225,21.7597,22.7434,137.765,111.266,112.447,0.000479818,0.05078,21.0128,-341.446,-0.0938569,0.0,0.0
918,229.25,21.9803,23.0289,138.155,111.244,112.633,0.000415152,0.0506973,21.0138,-341.426,-0.110331,0.0,0.0
935,233.5,22.0231,22.646,140.326,111.265,112.756,0.000160394,0.0507697,21.014,-341.436,-0.118332,0.0,0.0
952,237.75,22.0868,22.796,136.32,111.277,112.399,-0.000163474,0.0510036,21.0145,-341.436,-0.0892453,0.0,0.0
969,242,22.0265,23.0538,142.296,111.271,112.858,0.000122487,0.0510021,21.0143,-341.406,-0.125913,0.0,0.0
986,246.25,21.4713,22.928,139.194,111.288,112.721,0.000170477,0.0508657,21.0146,-341.436,-0.113758,0.0,0.0
1003,250.5,22.0301,22.7697,136.601,111.306,112.526,6.46204e-05,0.0508869,21.0146,-341.436,-0.0969361,0.0,0.0
1020,254.75,21.7166,22.6867,143.505,111.309,112.897,0.000143094,0.0508414,21.0146,-341.426,-0.125953,0.0,0.0
1037,259,21.5298,22.1181,140.378,111.318,112.536,0.000140386,0.0510361,21.0139,-341.426,-0.0967608,0.0,0.0
1054,263.25,21.8461,22.6842,144.483,111.312,112.862,0.000259476,0.0511858,21.014,-341.426,-0.122973,0.0,0.0
1071,267.5,21.7845,22.6394,141.253,111.295,112.746,7.41578e-05,0.0512908,21.014,-341.426,-0.115178,0.0,0.0
1088,271.75,22.1053,22.8978,140.592,111.298,112.876,3.99121e-05,0.0511357,21.014,-341.466,-0.12518,0.0,0.0
1105,276,22.0546,22.6775,140.596,111.289,113.061,0.000182104,0.0509093,21.014,-341.436,-0.140503,0.0,0.0
1122,280.25,21.9011,22.6922,137.443,111.261,112.852,-9.31623e-05,0.0505119,21.0148,-341.436,-0.12627,0.0,0.0
1139,284.5,21.7961,22.3024,137.266,111.265,113.189,-7.48443e-05,0.0505521,21.0142,-341.446,-0.152451,0.0,0.0
1156,288.75,22.0997,22.6453,138.446,111.275,112.604,0.000107161,0.0507385,21.014,-341.426,-0.105619,0.0,0.0
1173,293,21.8509,22.7708,138.01,111.26,112.932,0.000255007,0.0506817,21.014,-341.436,-0.132668,0.0,0.0
1190,297.25,21.9922,23.4133,138.316,111.255,112.681,0.000203309,0.050568,21.0135,-341.456,-0.113272,0.0,0.0
1207,301.5,21.9545,22.2638,138.69,111.258,113.132,0.000146928,0.0505312,21.0132,-341.446,-0.148522,0.0,0.0
1224,305.75,21.8637,22.5518,137.882,111.245,112.548,0.000264498,0.0504889,21.0152,-341.446,-0.103559,0.0,0.0
1241,310,22.3504,22.9337,138.913,111.213,112.204,0.000265587,0.0504117,21.0168,-341.446,-0.0788665,0.0,0.0
1258,314.25,22.2982,22.8012,141.173,111.212,113.034,0.000231587,0.050341,21.0171,-341.446,-0.144507,0.0,0.0
1275,318.5,22.2183,22.7243,140.109,111.194,112.515,0.000101529,0.0502701,21.0172,-341.446,-0.105042,0.0,0.0
1292,322.75,22.0745,22.7776,137.975,111.175,112.81,8.64981e-05,0.0502693,21.0172,-341.436,-0.129911,0.0,0.0
1309,327,22.0543,22.9195,137.53,111.175,112.944,5.8625e-05,0.0503711,21.0171,-341.456,-0.140441,0.0,0.0
1326,331.25,22.1296,22.8312,138.165,111.15,112.825,7.55791e-05,0.0504076,21.017,-341.446,-0.133068,0.0,0.0
1343,335.5,22.3441,23.2591,137.645,111.147,112.412,3.89773e-05,0.050457,21.017,-341.456,-0.100584,0.0,0.0
1360,339.75,22.3738,22.8935,141.123,111.142,112.887,6.50165e-05,0.0503356,21.017,-341.446,-0.13853,0.0,0.0
1377,344,22.4773,22.7591,137.551,111.144,112.357,0.000173417,0.0502568,21.017,-341.456,-0.096495,0.0,0.0
1394,348.25,21.9227,22.9259,142.092,111.15,112.664,0.000400998,0.0501924,21.017,-341.456,-0.120361,0.0,0.0
1411,352.5,22.0572,22.6846,140.645,111.136,112.764,0.0002589,0.0502343,21.0163,-341.436,-0.129348,0.0,0.0
1428,356.75,22.3582,23.0429,136.208,111.142,112.952,-1.40054e-05,0.0502928,21.016,-341.466,-0.143657,0.0,0.0
1445,361,22.0083,22.8797,138.582,111.159,112.658,-0.000124909,0.0501554,21.016,-341.466,-0.119115,0.0,0.0
1462,365.25,22.2712,22.8985,140.186,111.156,113.011,-6.05987e-06,0.050157,21.016,-341.476,-0.147132,0.0,0.0
1479,369.5,21.8833,22.9305,139.586,111.164,112.989,7.19626e-05,0.0503716,21.016,-341.456,-0.144872,0.0,0.0
1496,373.75,22.1594,22.8004,137.043,111.169,112.907,9.80052e-05,0.0504533,21.0157,-341.456,-0.137915,0.0,0.0
1513,378,22.2671,22.8505,143.205,111.171,112.753,1.69997e-05,0.0503577,21.0154,-341.466,-0.125637,0.0,0.0
1530,382.25,22.3634,22.8846,137.448,111.178,112.263,2.49628e-05,0.0503393,21.0153,-341.466,-0.0863663,0.0,0.0
1547,386.5,22.544,22.7774,144.272,111.194,112.456,9.23582e-05,0.0503281,21.0153,-341.446,-0.100309,0.0,0.0
1564,390.75,22.4765,23.1688,138.348,111.236,112.539,9.23927e-05,0.0502672,21.0153,-341.446,-0.103561,0.0,0.0
1581,395,21.9217,22.9325,140.81,111.205,113.022,7.25463e-05,0.0501838,21.0153,-341.456,-0.144134,0.0,0.0
1598,399.25,22.4849,23.1045,139.344,111.21,112.414,0.000120228,0.0500176,21.0172,-341.466,-0.0957395,0.0,0.0
1615,403.5,22.2853,23.0566,139.77,111.219,113.115,-5.64884e-05,0.0499941,21.0164,-341.456,-0.150325,0.0,0.0
1632,407.75,22.2846,22.7362,137.246,111.218,112.77,9.49468e-05,0.0501867,21.016,-341.456,-0.123301,0.0,0.0
1649,412,22.2472,23.1003,140.533,111.244,112.877,0.000127114,0.0501002,21.0156,-341.476,-0.12961,0.0,0.0
1666,416.25,21.5776,23.1341,136.252,111.242,113.067,0.000115558,0.0502246,21.0152,-341.476,-0.144752,0.0,0.0
1683,420.5,22.2051,22.8597,137.986,111.242,112.541,0.000391231,0.0502267,21.0156,-341.466,-0.10321,0.0,0.0
1700,424.75,22.0949,23.0813,143.16,111.267,113.109,0.000149973,0.0502538,21.0159,-341.456,-0.145999,0.0,0.0
1717,429,22.0065,23.3519,138.278,111.27,112.724,2.23707e-05,0.0501933,21.0159,-341.446,-0.115408,0.0,0.0
1734,433.25,22.2624,22.8443,138.233,111.283,112.75,0.000253423,0.0499347,21.0164,-341.436,-0.116442,0.0,0.0
1751,437.5,22.0828,23.1723,137.65,111.279,112.832,0.000166554,0.049942,21.0167,-341.446,-0.123295,0.0,0.0
1768,441.75,21.9343,22.7512,140.739,111.272,113.016,0.000179303,0.0499591,21.0154,-341.476,-0.138286,0.0,0.0
1785,446,22.183,23.1451,138.839,111.296,112.921,8.97473e-05,0.0501181,21.0161,-341.476,-0.128884,0.0,0.0
1802,450.25,21.9279,22.6963,136.879,111.291,112.788,0.000111615,0.0501046,21.0159,-341.456,-0.118755,0.0,0.0
1819,454.5,22.2001,23.2697,140.072,111.306,113.14,0.000254843,0.0499936,21.0158,-341.466,-0.145356,0.0,0.0
1836,458.75,22.1804,23.1531,138.393,111.302,112.915,0.000227785,0.0499564,21.0173,-341.466,-0.127897,0.0,0.0
1853,463,22.3769,22.9875,139.986,111.294,112.933,0.000164729,0.0500456,21.0166,-341.446,-0.130066,0.0,0.0
1870,467.25,22.2225,22.8589,139.168,111.307,113.309,-2.20225e-05,0.0501934,21.0142,-341.476,-0.158539,0.0,0.0
1887,471.5,22.0736,22.7919,138.623,111.302,112.861,-0.000200564,0.050089,21.0132,-341.466,-0.12369,0.0,0.0
1904,475.75,22.034,22.8554,138.958,111.314,112.782,2.40695e-05,0.0500497,21.0135,-341.456,-0.116538,0.0,0.0
1921,480,21.9934,22.7816,140.499,111.333,113.051,2.77793e-05,0.049827,21.015,-341.466,-0.136229,0.0,0.0
1938,484.25,21.7671,22.869,137.491,111.344,112.967,-3.11674e-05,0.0497865,21.014,-341.476,-0.128646,0.0,0.0
1955,488.5,21.9924,22.6986,138.909,111.357,112.851,-9.09094e-05,0.0499712,21.015,-341.476,-0.118506,0.0,0.0
1972,492.75,22.2528,23.0089,138.161,111.382,113.262,0.000264094,0.0499257,21.0152,-341.486,-0.148857,0.0,0.0
1989,497,21.9442,22.8263,138.49,111.407,113.207,0.000237898,0.0500265,21.0164,-341.476,-0.142552,0.0,0.0
2006,501.25,21.9631,23.1497,135.518,111.428,113.09,-8.55786e-05,0.0498531,21.0162,-341.456,-0.131665,0.0,0.0
2023,505.5,22.1703,23.0976,143.656,111.44,113.068,-3.51756e-05,0.0499119,21.0154,-341.476,-0.128965,0.0,0.0
2040,509.75,22.2262,22.8173,138.991,111.472,112.729,9.60411e-05,0.0499367,21.0166,-341.466,-0.0997321,0.0,0.0
2057,514,22.5324,22.7612,139.726,111.509,113.18,0.000304341,0.0499164,21.0163,-341.456,-0.132295,0.0,0.0
2074,518.25,22.425,22.9114,142.063,111.522,113.229,8.12523e-05,0.0498534,21.0147,-341.486,-0.135083,0.0,0.0
2091,522.5,22.336,23.0209,137.546,111.57,113.82,3.0306e-05,0.0500862,21.0138,-341.476,-0.177585,0.0,0.0
2108,526.75,22.2679,22.9392,142.374,111.614,113.099,0.000168983,0.049927,21.0137,-341.476,-0.117519,0.0,0.0
2125,531,22.0909,22.929,140.213,111.641,113.563,2.33162e-05,0.0500679,21.0136,-341.486,-0.151834,0.0,0.0
2142,535.25,21.7609,23.1355,134.43,111.678,113.403,-0.00014966,0.0498293,21.0153,-341.466,-0.136329,0.0,0.0
2159,539.5,22.0526,22.815,137.257,111.724,113.786,-0.000143882,0.0499771,21.0153,-341.476,-0.162644,0.0,0.0
2176,543.75,22.273,23.0004,138.758,111.727,113.36,-5.06148e-06,0.0500453,21.0138,-341.476,-0.129042,0.0,0.0
2193,548,22.116,23.1585,138.821,111.774,113.095,-0.000217205,0.0496811,21.0131,-341.466,-0.104454,0.0,0.0
2210,552.25,22.3617,23.3465,138.989,111.815,113.445,0.000129378,0.0498081,21.013,-341.466,-0.128738,0.0,0.0
2227,556.5,22.0306,23.2912,137.847,111.84,113.49,8.44057e-05,0.0499315,21.0148,-341.476,-0.130263,0.0,0.0
2244,560.75,22.3057,22.7649,139.953,111.865,113.399,0.000230734,0.0499041,21.016,-341.496,-0.12111,0.0,0.0
2261,565,22.2345,23.1966,140.192,111.891,113.405,5.3423e-05,0.0501065,21.0163,-341.496,-0.11957,0.0,0.0
2278,569.25,22.5402,23.2506,137.324,111.929,113.299,0.000116645,0.0498554,21.0163,-341.466,-0.10825,0.0,0.0
2295,573.5,22.5013,23.1089,138.332,111.938,113.643,0.000155891,0.0496832,21.0163,-341.466,-0.134453,0.0,0.0
2312,577.75,22.2732,23.1611,141.17,111.977,113.406,-1.18861e-05,0.049735,21.0163,-341.466,-0.112728,0.0,0.0
2329,582,22.5183,23.2212,137.334,111.998,113.543,-3.02697e-05,0.0497362,21.0157,-341.476,-0.121789,0.0,0.0
2346,586.25,22.5302,22.8908,142.966,112.027,113.634,-2.44916e-05,0.0497285,21.0154,-341.476,-0.126644,0.0,0.0
2363,590.5,22.2415,23.2082,139.173,112.057,113.978,-8.81408e-05,0.0497481,21.0152,-341.476,-0.151116,0.0,0.0
2380,594.75,22.0064,22.9414,137.678,112.085,113.463,-0.000107043,0.049989,21.0146,-341.466,-0.108628,0.0,0.0
2397,599,22.3443,22.958,141.186,112.107,113.635,8.39727e-05,0.049893,21.0145,-341.476,-0.120353,0.0,0.0
2414,603.25,21.925,23.0904,138.387,112.144,113.857,0.000234263,0.0499467,21.0149,-341.496,-0.134803,0.0,0.0
2431,607.5,22.3219,22.7675,138.378,112.184,113.72,-0.000160719,0.0498912,21.0152,-341.496,-0.12088,0.0,0.0
2448,611.75,22.4376,22.9694,142.078,112.188,113.811,-0.000233962,0.0500321,21.0168,-341.466,-0.127707,0.0,0.0
2465,616,21.8578,22.9521,140.756,112.209,113.998,0.000103429,0.0500632,21.016,-341.486,-0.140655,0.0,0.0
2482,620.25,22.4333,22.9424,141.665,112.237,114.107,0.000216411,0.050157,21.0154,-341.476,-0.146983,0.0,0.0
2499,624.5,22.1915,23.131,135.493,112.275,114.165,0.000123308,0.0501729,21.0153,-341.486,-0.148475,0.0,0.0
2516,628.75,22.0045,22.4744,139.12,112.287,114.1,9.68525e-05,0.050167,21.0146,-341.486,-0.142401,0.0,0.0
2533,633,21.8589,23.1501,137.043,112.329,113.514,0.000132127,0.0501391,21.0152,-341.496,-0.0933116,0.0,0.0
2550,637.25,22.2454,22.9864,139.087,112.347,113.879,0.000114115,0.050229,21.0136,-341.496,-0.120491,0.0,0.0
2567,641.5,22.4084,23.1447,135.925,112.355,114.196,0.000120916,0.0501922,21.0131,-341.496,-0.144537,0.0,0.0
2584,645.75,22.4944,23.0778,139.156,112.397,113.809,4.73932e-05,0.0503989,21.013,-341.506,-0.11099,0.0,0.0
2601,650,22.7938,22.7105,138.927,112.398,114.3,-7.94055e-05,0.0505976,21.0138,-341.496,-0.149234,0.0,0.0
2618,654.25,22.5276,22.9292,142.048,112.4,113.575,9.31239e-05,0.0508737,21.0145,-341.496,-0.092453,0.0,0.0
2635,658.5,22.3493,23.0918,138.487,112.422,114.206,-5.77587e-05,0.0508926,21.0146,-341.486,-0.13998,0.0,0.0
2652,662.75,22.5456,22.7426,136.121,112.433,114.002,0.000196524,0.0508622,21.0146,-341.476,-0.123197,0.0,0.0
2669,667,22.3438,22.8848,139.908,112.455,114.205,0.000363526,0.0509702,21.0146,-341.486,-0.137322,0.0,0.0
2686,671.25,22.1965,23.03,140.919,112.449,114.155,0.000407978,0.0513183,21.0146,-341.496,-0.133902,0.0,0.0
2703,675.5,22.3937,23.1543,137.08,112.457,114.417,6.08822e-05,0.051197,21.0121,-341.496,-0.153625,0.0,0.0
2720,679.75,22.1997,23.3587,140.706,112.466,113.97,1.9114e-05,0.0510723,21.0128,-341.496,-0.118118,0.0,0.0
2737,684,22.2313,22.6269,139.265,112.473,114.213,0.000184273,0.0510303,21.0129,-341.506,-0.136514,0.0,0.0
2754,688.25,22.4326,22.7508,140.39,112.485,114.102,-1.08501e-05,0.0510257,21.013,-341.486,-0.126954,0.0,0.0
2771,692.5,22.2499,23.1818,138.129,112.491,113.955,-0.000128176,0.0509727,21.013,-341.476,-0.114998,0.0,0.0
2788,696.75,22.2441,23.2517,141.723,112.484,114.205,-9.49773e-05,0.0510625,21.014,-341.476,-0.135023,0.0,0.0
2805,701,22.3757,22.956,142.419,112.485,114.05,5.94661e-05,0.0510312,21.0145,-341.486,-0.122878,0.0,0.0
2822,705.25,22.1141,23.0747,138.411,112.471,114.175,0.000399475,0.051018,21.0146,-341.506,-0.133732,0.0,0.0
2839,709.5,21.9615,23.1283,138.793,112.451,113.935,0.000281529,0.0510961,21.0139,-341.506,-0.116564,0.0,0.0
2856,713.75,22.393,23.1263,141.057,112.438,114.33,-9.13527e-06,0.0509347,21.0138,-341.496,-0.14845,0.0,0.0
2873,718,22.3908,23.0121,137.334,112.426,114.331,-0.000155659,0.0507657,21.0133,-341.486,-0.149457,0.0,0.0
2890,722.25,22.1938,22.5469,141.341,112.426,114.515,9.61895e-05,0.0509327,21.0105,-341.496,-0.163723,0.0,0.0
2907,726.5,22.1466,23.0331,142.697,112.413,114.146,0.000152585,0.051188,21.0101,-341.496,-0.136026,0.0,0.0
2924,730.75,22.0805,22.8367,137.27,112.442,114.208,0.00013147,0.0512747,21.0125,-341.486,-0.138596,0.0,0.0
2941,735,22.3435,23.0753,137.898,112.424,114.229,6.71691e-05,0.0512342,21.0132,-341.496,-0.141616,0.0,0.0
2958,739.25,22.4602,22.9996,140.672,112.414,113.93,7.00067e-06,0.0511811,21.0125,-341.486,-0.119112,0.0,0.0
2975,743.5,22.0289,23.117,138.426,112.427,114.151,7.53112e-06,0.0509388,21.0132,-341.496,-0.135346,0.0,0.0
2992,747.75,22.3622,22.8244,138.374,112.435,113.775,-5.94708e-05,0.050942,21.0129,-341.486,-0.105351,0.0,0.0
3009,752,22.2159,22.8645,141.276,112.449,114.396,-7.69222e-05,0.05072,21.0135,-341.496,-0.152686,0.0,0.0
3026,756.25,22.1499,22.8319,138.876,112.462,113.965,2.15008e-05,0.0508256,21.0136,-341.496,-0.118083,0.0,0.0
3043,760.5,22.4728,22.9909,141.763,112.476,113.621,0.000270032,0.0509397,21.0136,-341.506,-0.0900843,0.0,0.0
3060,764.75,22.0732,23.2051,139.448,112.479,113.844,0.000258951,0.0509916,21.0132,-341.496,-0.107277,0.0,0.0
3077,769,21.9004,23.096,139.435,112.487,114.07,0.000264902,0.0508872,21.0125,-341.496,-0.12424,0.0,0.0
3094,773.25,21.7889,23.2347,139.664,112.504,114.274,0.000198571,0.0507635,21.0123,-341.506,-0.138751,0.0,0.0
3111,777.5,22.0327,22.539,138.78,112.507,114.068,0.000122847,0.0509674,21.0123,-341.516,-0.12254,0.0,0.0
3128,781.75,22.094,22.9229,137.694,112.513,114.473,8.20283e-05,0.0507903,21.013,-341.516,-0.153559,0.0,0.0
3145,786,22.1391,22.9362,136.989,112.524,114.28,1.99161e-05,0.0508746,21.0127,-341.496,-0.137649,0.0,0.0
3162,790.25,22.7726,23.1786,141.799,112.534,114.151,9.55104e-05,0.050811,21.0154,-341.496,-0.126849,0.0,0.0
3179,794.5,22.2176,22.9783,142.004,112.528,114.585,0.000156256,0.0509949,21.0157,-341.476,-0.161094,0.0,0.0
3196,798.75,22.3109,22.8883,135.158,112.545,113.983,9.54801e-05,0.0507926,21.0157,-341.496,-0.112875,0.0,0.0
3213,803,22.3032,22.7306,139.294,112.567,114.292,2.03166e-05,0.0509349,21.0157,-341.486,-0.13523,0.0,0.0
3230,807.25,22.417,23.1125,139.694,112.542,114.011,-2.09415e-05,0.0506332,21.0157,-341.496,-0.115382,0.0,0.0
3247,811.5,22.0095,22.89,138.958,112.572,114.588,-2.78869e-05,0.0507801,21.0152,-341.486,-0.157823,0.0,0.0
3264,815.75,23.1709,22.8816,142.865,112.564,114.509,0.000118524,0.0506027,21.0147,-341.506,-0.152352,0.0,0.0
3281,820,22.3959,22.8838,139.51,112.561,114.39,-5.20311e-05,0.0506791,21.0162,-341.516,-0.143363,0.0,0.0
3298,824.25,22.4917,23.0523,137.808,112.578,114.493,-0.000277167,0.0504968,21.0166,-341.506,-0.149979,0.0,0.0
3315,828.5,22.2825,23.1734,140.346,112.565,114.265,-5.01985e-05,0.0504602,21.015,-341.486,-0.133352,0.0,0.0
3332,832.75,22.2289,23.2623,138.091,112.557,114.022,0.000131357,0.0503878,21.0151,-341.496,-0.115032,0.0,0.0
3349,837,22.0838,23.2611,140.359,112.561,114.283,0.000126216,0.0504217,21.0167,-341.516,-0.135023,0.0,0.0
3366,841.25,22.242,23.1087,139.973,112.554,114.021,0.000213368,0.0502835,21.0152,-341.516,-0.115172,0.0,0.0
3383,845.5,22.6698,22.9758,141.348,112.544,114.041,0.000148319,0.0502746,21.0165,-341.506,-0.117541,0.0,0.0
3400,849.75,22.4385,23.3051,137.275,112.525,114.18,2.61319e-05,0.0503748,21.015,-341.506,-0.129823,0.0,0.0
3417,854,22.076,22.8821,140.305,112.513,114.077,-0.000435749,0.0505734,21.0147,-341.506,-0.122752,0.0,0.0
3434,858.25,22.3613,23.3052,139.376,112.499,114.318,-0.000398091,0.0505194,21.0151,-341.506,-0.142624,0.0,0.0
3451,862.5,22.3928,23.5184,141.998,112.461,113.909,5.17961e-05,0.0504594,21.0153,-341.526,-0.113716,0.0,0.0
3468,866.75,22.1211,23.2636,138.9,112.448,114.368,0.000154157,0.0505381,21.0153,-341.516,-0.150586,0.0,0.0
3485,871,21.8166,22.8487,141.468,112.42,114.933,6.01534e-05,0.0503905,21.0153,-341.496,-0.196567,0.0,0.0
3502,875.25,22.5865,23.2591,142.736,112.397,114.091,-9.9358e-05,0.0502468,21.0153,-341.506,-0.133037,0.0,0.0
3519,879.5,22.683,23.3495,142.211,112.373,113.873,-0.000225398,0.0505854,21.0147,-341.506,-0.117857,0.0,0.0
3536,883.75,22.7119,22.7559,137.671,112.367,114.424,5.63546e-06,0.0504794,21.0133,-341.506,-0.161353,0.0,0.0
3553,888,22.0361,23.2802,136.19,112.36,114.415,8.84092e-06,0.0501119,21.013,-341.496,-0.16118,0.0,0.0
3570,892.25,22.0186,23.2566,138.695,112.37,114.309,-2.94457e-05,0.0504669,21.013,-341.506,-0.152132,0.0,0.0
3587,896.5,22.0436,22.612,140.844,112.366,113.851,1.68876e-05,0.050327,21.013,-341.516,-0.116725,0.0,0.0
3604,900.75,22.2321,22.9337,139.685,112.369,113.778,0.000196668,0.0503149,21.013,-341.506,-0.110756,0.0,0.0
3621,905,22.6719,22.784,138.647,112.364,113.994,-0.000145958,0.0502292,21.0152,-341.476,-0.128016,0.0,0.0
3638,909.25,22.1382,22.8958,138.378,112.359,113.885,-0.000143513,0.0500644,21.0178,-341.496,-0.119923,0.0,0.0
3655,913.5,22.7083,23.0219,138.708,112.351,113.971,-0.000130767,0.0501288,21.0163,-341.486,-0.127311,0.0,0.0
3672,917.75,22.3584,22.8735,139.153,112.334,114.267,0.000162039,0.0501711,21.016,-341.496,-0.15176,0.0,0.0
3689,922,21.743,23.1372,139.477,112.327,114.546,0.000103217,0.0502506,21.016,-341.516,-0.173985,0.0,0.0
3706,926.25,22.2908,23.0922,142.907,112.316,113.863,0.000194188,0.0500962,21.0156,-341.506,-0.121626,0.0,0.0
3723,930.5,22.2088,22.9694,138.102,112.294,114.143,0.000318852,0.0501154,21.0154,-341.506,-0.145228,0.0,0.0
3740,934.75,22.1397,23.6665,141.523,112.281,114.136,0.000169658,0.0502746,21.0172,-341.506,-0.14568,0.0,0.0
3757,939,22.2454,23.0454,139.018,112.264,114.595,9.01852e-05,0.0502743,21.0161,-341.506,-0.182803,0.0,0.0
3774,943.25,21.9428,22.8702,142.291,112.262,113.944,-1.88221e-05,0.0502839,21.0177,-341.506,-0.132244,0.0,0.0
3791,947.5,22.386,23.1449,138.04,112.252,114.037,-2.67173e-05,0.0502856,21.0183,-341.516,-0.140254,0.0,0.0
3808,951.75,22.3023,23.0143,137.637,112.26,113.817,-6.63398e-05,0.0502457,21.0151,-341.516,-0.122507,0.0,0.0
3825,956,22.559,22.8892,139.868,112.263,113.618,-0.000180836,0.0501626,21.0139,-341.516,-0.106712,0.0,0.0
3842,960.25,22.2488,23.0306,140.98,112.264,113.812,7.92689e-05,0.0502006,21.0142,-341.496,-0.121822,0.0,0.0
3859,964.5,22.1333,23.0258,139.245,112.282,114.458,0.000390758,0.0501098,21.015,-341.516,-0.170636,0.0,0.0
3876,968.75,22.5699,22.9895,141.699,112.29,114.044,0.000466629,0.0502765,21.0152,-341.506,-0.137902,0.0,0.0
3893,973,22.4302,22.9499,137.523,112.28,114.139,0.000213451,0.0503159,21.016,-341.496,-0.146028,0.0,0.0
3910,977.25,22.2855,23.0354,139.037,112.293,114.256,8.4489e-05,0.0502139,21.0173,-341.516,-0.154125,0.0,0.0
3927,981.5,22.1529,22.7106,141.896,112.283,113.831,1.03239e-05,0.0502196,21.0157,-341.516,-0.121786,0.0,0.0
3944,985.75,22.8584,22.8736,140.941,112.293,114.127,0.000131419,0.0501908,21.0154,-341.516,-0.144108,0.0,0.0
3961,990,22.2041,22.986,138.956,112.298,113.6,0.000146584,0.0501938,21.0153,-341.516,-0.102555,0.0,0.0
3978,994.25,22.0591,23.2514,136.985,112.3,113.977,-0.000154317,0.0501472,21.0168,-341.506,-0.131804,0.0,0.0
3995,998.5,22.4223,22.786,142.302,112.306,114.474,-0.000281402,0.0502306,21.0158,-341.496,-0.170033,0.0,0.0
4012,1002.75,22.7113,22.3931,139.144,112.307,114.051,-0.000227854,0.0501856,21.0145,-341.496,-0.137053,0.0,0.0
4029,1007,22.0413,23.2594,136.538,112.306,113.717,-0.000330894,0.0499639,21.0143,-341.506,-0.111017,0.0,0.0
4046,1011.25,22.1848,23.0287,141.335,112.302,113.952,-0.000353403,0.0500585,21.0143,-341.496,-0.129718,0.0,0.0
4063,1015.5,22.1998,23.0316,139.365,112.267,114.409,-4.43762e-05,0.0500046,21.0143,-341.506,-0.168105,0.0,0.0
4080,1019.75,22.3015,23.0514,140.887,112.261,114.113,0.000179297,0.0498152,21.0143,-341.516,-0.145553,0.0,0.0
4097,1024,22.2553,22.9037,134.962,112.24,114.206,0.000195878,0.0499914,21.0143,-341.506,-0.154411,0.0,0.0
4114,1028.25,22.3807,23.1064,139.975,112.199,113.818,0.000137465,0.0500454,21.0143,-341.506,-0.12736,0.0,0.0
4131,1032.5,21.9993,22.8858,138.513,112.192,113.75,-0.000226784,0.0501019,21.0143,-341.506,-0.12265,0.0,0.0
4148,1036.75,22.6015,22.9393,139.06,112.176,113.761,-0.000282258,0.0500165,21.0143,-341.506,-0.124786,0.0,0.0
4165,1041,22.507,23.1917,134.498,112.151,114.139,-4.37223e-05,0.0502251,21.0143,-341.516,-0.15623,0.0,0.0
4182,1045.25,22.3024,23.3931,139.029,112.158,114.052,0.000129041,0.0501113,21.0151,-341.516,-0.148953,0.0,0.0
4199,1049.5,22.2436,22.9511,141.111,112.124,113.629,0.000152017,0.0501667,21.0153,-341.506,-0.118586,0.0,0.0
4216,1053.75,22.2782,23.1508,140.491,112.09,113.671,-1.19241e-05,0.0501337,21.0171,-341.506,-0.124547,0.0,0.0
4233,1058,22.4123,23.1759,137.85,112.076,114.251,0.000178129,0.0500536,21.0175,-341.506,-0.170947,0.0,0.0
4250,1062.25,22.4853,22.9731,140.49,112.08,114.211,3.81852e-05,0.0500823,21.0157,-341.516,-0.167458,0.0,0.0
4267,1066.5,22.4013,23.2103,139.671,112.068,113.701,-0.000260913,0.050152,21.0157,-341.506,-0.128656,0.0,0.0
4284,1070.75,22.3383,23.1927,142.605,112.033,113.671,-0.000240038,0.0498287,21.0159,-341.506,-0.129078,0.0,0.0
4301,1075,22.4429,23.3563,138.574,112.044,114.402,0.000206226,0.0500096,21.0159,-341.516,-0.185206,0.0,0.0
4318,1079.25,22.2806,23.0684,139.414,112.035,114.15,0.000191315,0.0500659,21.0159,-341.516,-0.166307,0.0,0.0
4335,1083.5,22.0805,22.9942,139.764,112.014,113.74,-8.10369e-05,0.0501644,21.0159,-341.506,-0.135999,0.0,0.0
4352,1087.75,22.1043,22.7953,141.616,112.007,113.774,-0.000209277,0.0501389,21.015,-341.506,-0.139197,0.0,0.0
4369,1092,22.3053,23.1446,137.711,112.006,114.182,-0.000325253,0.0502009,21.0152,-341.516,-0.171144,0.0,0.0
4386,1096.25,22.5504,23.2654,136.689,111.996,113.444,-0.000183787,0.0501216,21.0156,-341.506,-0.114241,0.0,0.0
4403,1100.5,22.312,23.2543,139.173,111.998,113.909,-5.57592e-06,0.050117,21.014,-341.506,-0.150513,0.0,0.0
4420,1104.75,22.8947,23.0568,137.599,111.972,114.175,4.73896e-05,0.050099,21.0155,-341.486,-0.173255,0.0,0.0
4437,1109,22.6128,22.9082,138.762,111.984,114.418,-8.96256e-06,0.0500573,21.0157,-341.506,-0.191183,0.0,0.0
4454,1113.25,22.5336,22.926,140.612,111.973,113.48,5.1377e-05,0.049991,21.0161,-341.496,-0.118945,0.0,0.0
4471,1117.5,22.7331,22.2618,138.558,111.974,113.353,0.000141724,0.0498829,21.0156,-341.496,-0.108839,0.0,0.0
4488,1121.75,22.5127,22.9945,140.354,111.973,113.647,8.84231e-05,0.0498843,21.0147,-341.496,-0.131998,0.0,0.0
4505,1126,21.7058,22.7062,140.652,111.957,113.853,0.000112991,0.0498307,21.015,-341.496,-0.149349,0.0,0.0
4522,1130.25,21.7093,22.9915,140.056,111.962,113.621,0.000329227,0.0500473,21.0139,-341.506,-0.130833,0.0,0.0
4539,1134.5,22.5224,23.0829,134.406,111.972,114.307,9.03011e-05,0.0498583,21.0138,-341.496,-0.183577,0.0,0.0
4556,1138.75,22.3261,23.0685,139.058,111.954,113.804,0.000122789,0.0498996,21.0123,-341.476,-0.145717,0.0,0.0
4573,1143,22.7496,22.8663,140.039,111.962,113.783,0.000279904,0.0497808,21.0115,-341.506,-0.143513,0.0,0.0
4590,1147.25,22.2616,23.2842,141.913,111.968,113.844,0.000240563,0.0500019,21.0113,-341.506,-0.147698,0.0,0.0
4607,1151.5,22.1534,22.8368,138.558,111.954,114.004,9.37435e-05,0.0499535,21.0132,-341.496,-0.161347,0.0,0.0
4624,1155.75,21.8624,22.8202,139.851,111.955,113.485,0.000119132,0.049885,21.0136,-341.516,-0.120748,0.0,0.0
4641,1160,22.0228,22.9395,137.474,111.966,113.971,0.000153399,0.0499597,21.0132,-341.496,-0.157837,0.0,0.0
4658,1164.25,22.2097,22.8582,138.605,111.948,113.607,0.000171729,0.049966,21.0127,-341.496,-0.130877,0.0,0.0
4675,1168.5,22.2416,23.0946,137.197,111.928,113.54,0.00016632,0.0498695,21.0126,-341.486,-0.127133,0.0,0.0
4692,1172.75,21.9133,22.8847,142.428,111.925,113.15,-1.26158e-05,0.0499256,21.0136,-341.496,-0.0968793,0.0,0.0
4709,1177,22.5333,23.2347,141.512,111.902,113.631,0.000121182,0.0498135,21.0128,-341.496,-0.136348,0.0,0.0
4726,1181.25,22.1034,22.9762,138.671,111.881,113.764,0.000300783,0.0498496,21.0125,-341.496,-0.148421,0.0,0.0
4743,1185.5,22.0883,22.7126,137.439,111.87,114.223,-4.7086e-05,0.0498459,21.012,-341.496,-0.185082,0.0,0.0
4760,1189.75,21.9328,23.1662,140.095,111.852,113.728,-0.000129596,0.0498265,21.012,-341.506,-0.147978,0.0,0.0
4777,1194,21.9724,22.6999,141.892,111.843,113.481,-7.62108e-05,0.0499024,21.0134,-341.496,-0.12929,0.0,0.0
4794,1198.25,22.2096,22.8461,137.972,111.916,113.381,-0.000255088,0.049932,21.0141,-341.496,-0.115679,0.0,0.0
4811,1202.5,21.7305,22.9824,138.239,111.977,114.143,-0.000274178,0.0499575,21.0148,-341.486,-0.170404,0.0,0.0
4828,1206.75,22.1256,22.7727,142.737,112.017,113.303,-0.000137778,0.049812,21.0157,-341.516,-0.101546,0.0,0.0
4845,1211,22.2493,23.0584,139.216,112.09,114.074,-0.000176833,0.0498299,21.0141,-341.486,-0.15602,0.0,0.0
4862,1215.25,22.1031,22.9274,139.567,112.189,113.517,0.000129217,0.0499086,21.013,-341.486,-0.10469,0.0,0.0
4879,1219.5,21.9863,22.9955,138.87,112.243,113.762,0.000245923,0.0498971,21.0138,-341.496,-0.119543,0.0,0.0
4896,1223.75,22.0753,22.7633,138.499,112.315,114.407,6.3471e-05,0.0498967,21.0134,-341.486,-0.164066,0.0,0.0
4913,1228,22.0002,22.6065,138.587,112.378,114.069,-2.403e-05,0.0499013,21.0125,-341.516,-0.132844,0.0,0.0
4930,1232.25,22.424,23.1406,139.887,112.449,114.382,-9.25373e-05,0.0501261,21.012,-341.536,-0.151581,0.0,0.0
4947,1236.5,22.4284,22.8178,138.241,112.488,114.272,-7.74458e-05,0.050166,21.0123,-341.506,-0.139923,0.0,0.0
4964,1240.75,22.2332,23.1059,137.788,112.548,114.253,-9.18827e-05,0.0498568,21.014,-341.516,-0.133729,0.0,0.0
4981,1245,22.1349,23.0728,140.728,112.586,114.789,0.000122877,0.0498584,21.0142,-341.526,-0.172353,0.0,0.0
4998,1249.25,22.0843,23.1252,141.908,112.618,114.568,-3.14312e-05,0.0499604,21.0143,-341.516,-0.152628,0.0,0.0
5015,1253.5,22.2838,23.2306,136.416,112.656,114.191,-3.73897e-05,0.0499219,21.0143,-341.516,-0.120339,0.0,0.0
5032,1257.75,22.5694,23.0784,141.673,112.683,114.343,-5.34369e-05,0.0500401,21.0143,-341.486,-0.130057,0.0,0.0
5049,1262,22.4338,22.9065,134.191,112.696,114.604,5.60485e-05,0.0498778,21.0143,-341.526,-0.149311,0.0,0.0
5066,1266.25,22.0744,23.035,142.576,112.719,114.585,0.000297571,0.0497472,21.0158,-341.516,-0.146023,0.0,0.0
5083,1270.5,22.4566,22.9384,136.156,112.752,114.547,9.34203e-05,0.0499403,21.0153,-341.526,-0.140493,0.0,0.0
5100,1274.75,22.2316,22.9862,136.485,112.768,114.297,0.000240673,0.0499211,21.0134,-341.516,-0.119734,0.0,0.0
5117,1279,22.3898,22.961,139.645,112.756,114.612,0.000156529,0.0497558,21.0115,-341.496,-0.145181,0.0,0.0
5134,1283.25,22.0083,22.8328,139.499,112.776,114.106,-4.2261e-06,0.0497373,21.0112,-341.516,-0.104322,0.0,0.0
5151,1287.5,22.6199,22.4123,140.164,112.767,114.64,1.96874e-05,0.0497328,21.0116,-341.516,-0.146455,0.0,0.0
5168,1291.75,22.1718,22.8022,137.485,112.728,114.517,-6.14813e-05,0.0497376,21.0119,-341.526,-0.140022,0.0,0.0
5185,1296,22.2136,23.1181,139.507,112.731,114.893,-9.96154e-07,0.049629,21.0119,-341.536,-0.168923,0.0,0.0
5202,1300.25,22.177,23.2421,140.75,112.734,114.762,1.74606e-05,0.0493796,21.0114,-341.516,-0.158558,0.0,0.0
5219,1304.5,22.7978,22.8493,142.605,112.743,115.138,-5.93675e-05,0.0497277,21.0125,-341.526,-0.187011,0.0,0.0
5236,1308.75,22.219,22.8767,138.567,112.76,114.127,-0.000162318,0.049859,21.0116,-341.536,-0.107197,0.0,0.0
5253,1313,22.3698,23.0379,138.931,112.796,114.465,-7.07272e-05,0.0499134,21.0114,-341.516,-0.130592,0.0,0.0
5270,1317.25,21.9619,23.1105,138.416,112.79,114.601,5.85213e-05,0.0499319,21.0113,-341.506,-0.14167,0.0,0.0
5287,1321.5,22.0796,23.1826,139.129,112.798,114.734,-6.97655e-05,0.0497651,21.0127,-341.516,-0.151349,0.0,0.0
5304,1325.75,22.3656,23.1216,141.81,112.805,114.457,-0.00041091,0.0498836,21.0135,-341.516,-0.129319,0.0,0.0
5321,1330,22.3947,22.8993,139.95,112.826,114.682,-0.000473224,0.0497267,21.0134,-341.516,-0.14515,0.0,0.0
5338,1334.25,22.2117,22.9421,143.268,112.818,114.512,-0.000202411,0.0498076,21.0136,-341.506,-0.13255,0.0,0.0
5355,1338.5,22.1839,23.0143,137.299,112.83,114.645,-1.24334e-05,0.0497798,21.0136,-341.526,-0.141876,0.0,0.0
5372,1342.75,22.2539,23.1918,142.525,112.834,114.493,0.000394557,0.0498712,21.0139,-341.506,-0.12976,0.0,0.0
5389,1347,22.5709,22.939,140.546,112.826,114.592,0.00038214,0.0499616,21.0142,-341.526,-0.138097,0.0,0.0
5406,1351.25,22.2622,23.1046,140.197,112.841,114.444,-6.32948e-05,0.0500031,21.0148,-341.516,-0.125438,0.0,0.0
5423,1355.5,22.108,22.9005,140.604,112.83,115.151,-0.000153728,0.0497899,21.0151,-341.526,-0.181092,0.0,0.0
5440,1359.75,21.8559,22.8789,145.684,112.821,114.317,4.4314e-05,0.0498062,21.0151,-341.526,-0.117129,0.0,0.0
5457,1364,22.213,23.0706,142.515,112.806,114.396,0.000192039,0.0497896,21.0151,-341.536,-0.124509,0.0,0.0
5474,1368.25,22.3381,23.1668,135.649,112.822,114.592,1.16877e-05,0.049711,21.0123,-341.516,-0.138383,0.0,0.0
5491,1372.5,21.8944,23.1764,135.548,112.793,114.605,-0.000267498,0.0498227,21.0108,-341.526,-0.141696,0.0,0.0
5508,1376.75,22.2976,22.9053,138.685,112.774,114.243,8.60135e-05,0.049741,21.0105,-341.516,-0.115113,0.0,0.0
5525,1381,22.2772,23.1378,140.293,112.767,114.519,0.000192971,0.0497956,21.0117,-341.516,-0.13714,0.0,0.0
5542,1385.25,22.2287,23.3044,137.756,112.756,114.368,9.75606e-05,0.0498689,21.0113,-341.516,-0.126233,0.0,0.0
5559,1389.5,22.3437,23.2133,138.969,112.744,114.387,-8.28386e-05,0.0499304,21.0128,-341.516,-0.128665,0.0,0.0
5576,1393.75,22.2491,22.884,138.165,112.723,114.708,6.93847e-05,0.0499776,21.014,-341.506,-0.155241,0.0,0.0
5593,1398,22.4559,23.0846,140.055,112.708,114.815,-8.03243e-06,0.0499606,21.0142,-341.506,-0.164692,0.0,0.0
5610,1402.25,22.4174,23.0431,135.753,112.678,114.52,0.000138944,0.0499993,21.0143,-341.506,-0.14423,0.0,0.0
5627,1406.5,22.277,22.724,139.926,112.655,114.514,-7.0513e-05,0.0501504,21.0143,-341.506,-0.145621,0.0,0.0
5644,1410.75,22.7851,23.2485,137.256,112.638,114.333,-0.000192236,0.0501854,21.0143,-341.506,-0.13277,0.0,0.0
5661,1415,22.4295,22.9068,142.019,112.582,114.566,-0.00023859,0.0500928,21.0148,-341.516,-0.155374,0.0,0.0
5678,1419.25,22.0612,23.0401,135.932,112.558,114.273,-0.000161136,0.049933,21.0149,-341.496,-0.134519,0.0,0.0
5695,1423.5,22.2691,22.6374,139.887,112.519,114.865,-0.000201464,0.0498846,21.0149,-341.496,-0.183444,0.0,0.0
5712,1427.75,22.524,22.9104,140.306,112.512,114.399,-2.28085e-05,0.050003,21.0149,-341.506,-0.147905,0.0,0.0
5729,1432,22.0775,23.3062,137.768,112.47,114.528,-0.000197537,0.0500171,21.0149,-341.526,-0.161267,0.0,0.0
5746,1436.25,22.0372,23.6341,142.904,112.441,114.019,-0.000174921,0.0499167,21.013,-341.536,-0.123971,0.0,0.0
5763,1440.5,22.671,22.8119,139.871,112.419,114.056,-0.000304443,0.049952,21.0122,-341.526,-0.128509,0.0,0.0
5780,1444.75,22.1589,23.4453,143.489,112.376,114.096,-0.000110734,0.0497606,21.011,-341.506,-0.135048,0.0,0.0
5797,1449,22.6415,23.5625,142.046,112.375,114.027,0.00045724,0.049913,21.0106,-341.516,-0.12977,0.0,0.0
5814,1453.25,22.3053,23.8081,140.706,112.359,113.999,0.00037264,0.0499936,21.0123,-341.506,-0.128883,0.0,0.0
5831,1457.5,22.4376,23.3588,138.84,112.352,114.692,0.000146022,0.0500561,21.0122,-341.506,-0.183366,0.0,0.0
5848,1461.75,22.1913,23.2944,136.382,112.362,114.272,0.000224134,0.0497676,21.0129,-341.526,-0.14989,0.0,0.0
5865,1466,22.3121,23.0683,141.853,112.37,114.431,4.15338e-05,0.0496375,21.0138,-341.536,-0.161615,0.0,0.0
5882,1470.25,22.5692,22.9783,138.905,112.367,114.394,3.38018e-05,0.049748,21.0142,-341.516,-0.159022,0.0,0.0
5899,1474.5,22.6442,23.1457,138.506,112.354,114.07,-8.18593e-05,0.0496429,21.0145,-341.506,-0.13475,0.0,0.0
5916,1478.75,22.3611,23.2975,140.345,112.326,114.108,-0.000104619,0.0496362,21.015,-341.506,-0.139982,0.0,0.0
5933,1483,22.2651,23.4817,144.205,112.324,114.153,-9.69588e-05,0.0495694,21.0127,-341.506,-0.143575,0.0,0.0
5950,1487.25,22.632,23.1759,139.72,112.32,114.495,7.59576e-05,0.049509,21.0115,-341.526,-0.170502,0.0,0.0
5967,1491.5,22.2261,23.3383,137.36,112.329,114.003,-0.000184502,0.0497621,21.0112,-341.516,-0.131565,0.0,0.0
5984,1495.75,22.3768,23.3555,141.057,112.358,114.297,2.84697e-05,0.0498997,21.0119,-341.516,-0.152155,0.0,0.0
6001,1500,22.2863,23.0971,136.584,112.373,114.056,0.000217296,0.0498829,21.0115,-341.516,-0.132169,0.0,0.0
6018,1504.25,22.3208,23.339,143.217,112.405,114.161,0.000373175,0.0499288,21.0113,-341.526,-0.13786,0.0,0.0
6035,1508.5,22.8657,23.0839,139.079,112.426,113.986,0.000354133,0.04978,21.0119,-341.526,-0.122578,0.0,0.0
6052,1512.75,22.3816,23.1347,138.386,112.455,114.35,0.00025645,0.0497948,21.0121,-341.506,-0.148625,0.0,0.0
6069,1517,22.2429,23.4051,137.685,112.496,114.134,-1.71124e-06,0.0497586,21.0122,-341.506,-0.128554,0.0,0.0
6086,1521.25,22.4548,23.1276,140.176,112.532,114.195,-0.000147309,0.0497841,21.0104,-341.516,-0.130473,0.0,0.0
6103,1525.5,22.92,23.3517,138.407,112.563,114.554,-2.4898e-05,0.0498056,21.0117,-341.516,-0.155928,0.0,0.0
6120,1529.75,22.4602,23.454,138.111,112.617,114.765,0.000112994,0.0496898,21.013,-341.526,-0.168067,0.0,0.0
6137,1534,22.4189,23.5748,139.455,112.641,114.564,1.32682e-05,0.0496337,21.0136,-341.516,-0.150558,0.0,0.0
6154,1538.25,22.5033,23.4563,140.041,112.679,114.566,0.000102659,0.0496062,21.0124,-341.516,-0.14771,0.0,0.0
6171,1542.5,22.3617,22.9603,138.245,112.689,114.334,0.000240523,0.0495219,21.0122,-341.536,-0.12888,0.0,0.0
6188,1546.75,22.6474,23.2913,140.361,112.698,114.306,-0.000105719,0.0498337,21.0121,-341.506,-0.12599,0.0,0.0
6205,1551,22.6182,23.6362,138.97,112.719,114.092,-0.000261952,0.0496544,21.0116,-341.516,-0.107644,0.0,0.0
6222,1555.25,22.1048,23.2565,135.625,112.733,114.998,-0.000258529,0.0497857,21.0126,-341.516,-0.176886,0.0,0.0
6239,1559.5,22.4118,23.5738,142.115,112.762,114.462,-0.000294369,0.0497337,21.0126,-341.506,-0.133,0.0,0.0
6256,1563.75,22.6213,23.0486,137.591,112.796,114.391,-0.000127811,0.0495803,21.0124,-341.536,-0.124829,0.0,0.0
6273,1568,22.6647,23.0268,137.501,112.824,114.932,0.000330061,0.0495085,21.0122,-341.546,-0.164625,0.0,0.0
6290,1572.25,22.544,23.3243,138.865,112.88,114.966,0.000118012,0.0496189,21.0121,-341.526,-0.162789,0.0,0.0
6307,1576.5,22.67,23.2685,137.427,112.909,114.665,-0.00019383,0.0497534,21.012,-341.516,-0.13724,0.0,0.0
6324,1580.75,22.682,23.4258,140.56,112.932,114.958,-7.60947e-06,0.0496089,21.012,-341.496,-0.158127,0.0,0.0
6341,1585,22.6722,23.045,140.299,112.976,114.907,-9.3681e-05,0.0496863,21.012,-341.516,-0.150729,0.0,0.0
6358,1589.25,22.656,23.0454,139.303,113.019,114.886,-0.000264384,0.0496796,21.0126,-341.516,-0.14573,0.0,0.0
6375,1593.5,22.5557,23.3875,139.056,113.046,115.275,-0.000189473,0.0496011,21.0122,-341.506,-0.173667,0.0,0.0
6392,1597.75,22.5602,23.3859,137.424,113.093,115.333,3.37041e-05,0.0498026,21.0132,-341.506,-0.174386,0.0,0.0
6409,1602,22.4005,23.243,140.856,113.146,114.787,0.000165769,0.0497641,21.0141,-341.536,-0.128071,0.0,0.0
6426,1606.25,22.707,23.3311,141.493,113.181,115.055,9.00194e-05,0.0497568,21.0147,-341.526,-0.146047,0.0,0.0
6443,1610.5,22.5232,23.1808,139.166,113.198,114.68,-5.45527e-05,0.049748,21.0148,-341.526,-0.115663,0.0,0.0
6460,1614.75,22.3782,22.9343,137.976,113.248,114.89,2.52308e-05,0.0497297,21.0144,-341.526,-0.12804,0.0,0.0
6477,1619,22.9389,23.2525,141.657,113.26,114.975,0.00011388,0.0496657,21.0142,-341.516,-0.133649,0.0,0.0
6494,1623.25,22.5831,23.5118,139.726,113.275,115.026,0.00038491,0.0496626,21.0143,-341.516,-0.13644,0.0,0.0
6511,1627.5,22.5303,23.7043,141.483,113.289,115.089,0.000322336,0.0497054,21.0145,-341.526,-0.140207,0.0,0.0
6528,1631.75,22.7628,23.3067,139.961,113.298,115.499,0.000216713,0.0497021,21.0143,-341.516,-0.171089,0.0,0.0
6545,1636,22.4557,23.2633,139.057,113.3,114.932,0.00010825,0.0498158,21.0137,-341.506,-0.127171,0.0,0.0
6562,1640.25,22.5326,23.3189,138.689,113.308,115.564,0.000304768,0.0497628,21.0136,-341.516,-0.175348,0.0,0.0
6579,1644.5,22.4854,23.4429,140.308,113.309,115.092,0.00020251,0.0498308,21.0132,-341.516,-0.138841,0.0,0.0
6596,1648.75,22.3514,23.3439,138.946,113.329,115.059,0.000107562,0.049702,21.013,-341.536,-0.134758,0.0,0.0
6613,1653,22.4848,23.6952,138.707,113.31,115.052,9.18954e-05,0.0496162,21.013,-341.526,-0.135702,0.0,0.0
6630,1657.25,22.2894,23.1214,138.248,113.324,115.119,-0.000109857,0.0495972,21.013,-341.536,-0.139748,0.0,0.0
6647,1661.5,22.252,23.3702,139.237,113.318,115.461,-0.000168645,0.0496169,21.013,-341.526,-0.166588,0.0,0.0
6664,1665.75,22.465,23.2483,141.773,113.309,114.875,-0.000128048,0.0496336,21.0132,-341.536,-0.122058,0.0,0.0
6681,1670,22.1368,23.3521,138.414,113.307,115.265,-0.000149968,0.0496212,21.0149,-341.526,-0.15232,0.0,0.0
6698,1674.25,22.3498,22.9802,140.961,113.308,115.023,-9.21186e-05,0.0495493,21.0153,-341.536,-0.133606,0.0,0.0
6715,1678.5,22.5067,23.3218,140.055,113.283,115.297,-6.69262e-05,0.0497731,21.0166,-341.526,-0.156715,0.0,0.0
6732,1682.75,22.4346,23.2786,143.593,113.29,115.021,-0.000279112,0.0496029,21.0168,-341.516,-0.134833,0.0,0.0
6749,1687,22.0832,23.1956,139.036,113.282,115.323,-0.000397247,0.0496603,21.0153,-341.516,-0.158786,0.0,0.0
6766,1691.25,22.2312,23.4434,138.439,113.284,115.641,-0.000182518,0.0496278,21.0132,-341.536,-0.183066,0.0,0.0
6783,1695.5,21.9297,23.1377,142.333,113.293,115.129,-8.87688e-05,0.0494462,21.0127,-341.546,-0.142984,0.0,0.0
6800,1699.75,22.2547,22.7852,137.4,113.289,115.288,0.000130437,0.0497841,21.0126,-341.516,-0.155551,0.0,0.0
6817,1704,22.2832,23.0924,137.246,113.287,115.489,0.000135634,0.0495329,21.0126,-341.536,-0.171199,0.0,0.0
6834,1708.25,22.3185,23.011,140.504,113.285,114.934,6.54291e-05,0.0494842,21.0126,-341.506,-0.128468,0.0,0.0
6851,1712.5,22.4745,23.4895,139.625,113.295,115.632,2.35362e-06,0.0494811,21.0128,-341.526,-0.181588,0.0,0.0
6868,1716.75,22.5847,22.912,139.444,113.309,114.936,-3.50478e-05,0.0495085,21.0146,-341.546,-0.126739,0.0,0.0
6885,1721,22.1924,23.2077,140.421,113.299,115.094,-0.000211304,0.0494891,21.0136,-341.546,-0.139781,0.0,0.0
6902,1725.25,22.5179,23.2831,137.123,113.293,115.145,-2.506e-06,0.0494569,21.0131,-341.506,-0.14413,0.0,0.0
6919,1729.5,22.2576,23.185,139.626,113.302,115.335,5.10142e-05,0.0496007,21.013,-341.506,-0.158157,0.0,0.0
6936,1733.75,22.1482,23.1469,138.846,113.292,115.44,-6.49057e-05,0.0495741,21.013,-341.506,-0.167012,0.0,0.0
6953,1738,22.3294,23.0416,140.792,113.293,115.07,1.06966e-05,0.0495962,21.0122,-341.536,-0.138398,0.0,0.0
6970,1742.25,22.3573,23.2741,140.821,113.308,114.983,0.000255538,0.0496354,21.0105,-341.536,-0.130576,0.0,0.0
6987,1746.5,22.5748,23.1112,140.002,113.298,114.99,3.0809e-05,0.0495753,21.0117,-341.516,-0.131799,0.0,0.0
7004,1750.75,22.2896,23.2291,140.026,113.296,114.919,2.95857e-05,0.0495152,21.0119,-341.526,-0.126548,0.0,0.0
7021,1755,22.1105,23.3092,142.073,113.292,115.462,0.000108548,0.0495313,21.012,-341.536,-0.168734,0.0,0.0
7038,1759.25,22.6517,23.5016,138.652,113.265,115.088,1.07963e-05,0.0494336,21.0128,-341.526,-0.142016,0.0,0.0
7055,1763.5,22.5857,23.6718,138.462,113.261,115.484,-7.44654e-05,0.0494933,21.014,-341.516,-0.172837,0.0,0.0
7072,1767.75,22.5287,22.7939,140.782,113.254,114.866,0.000126448,0.0495471,21.013,-341.526,-0.125618,0.0,0.0
7089,1772,22.2364,23.1017,142.467,113.224,114.859,-2.81177e-05,0.0496514,21.0123,-341.516,-0.127567,0.0,0.0
7106,1776.25,22.6358,23.4084,139.924,113.228,114.864,-0.000243004,0.0496933,21.012,-341.526,-0.127561,0.0,0.0
7123,1780.5,22.3892,23.8253,136.559,113.225,115.108,-9.88183e-05,0.0496201,21.0136,-341.536,-0.146715,0.0,0.0
7140,1784.75,22.3448,23.3918,140.347,113.202,115.007,0.000169759,0.0495725,21.0129,-341.546,-0.140645,0.0,0.0
7157,1789,22.4715,23.7879,139.416,113.167,114.507,0.00023725,0.0494347,21.0138,-341.536,-0.104711,0.0,0.0
7174,1793.25,22.7468,23.4089,135.736,113.148,115.38,6.86419e-05,0.0494597,21.0138,-341.526,-0.173681,0.0,0.0
7191,1797.5,22.6756,23.1272,136.92,113.128,114.681,0.000196313,0.0493313,21.0148,-341.516,-0.121224,0.0,0.0
7208,1801.75,22.5616,23.1813,137.63,113.101,115.066,0.000267104,0.0494271,21.0148,-341.526,-0.153185,0.0,0.0
7225,1806,22.5283,23.6826,137.23,113.078,114.703,-5.77546e-05,0.0494605,21.0146,-341.526,-0.12692,0.0,0.0
7242,1810.25,22.3771,23.4817,137.733,113.069,114.943,-0.000221859,0.0495585,21.0149,-341.536,-0.14617,0.0,0.0
7259,1814.5,22.5698,23.4698,140.284,113.042,114.915,-8.7709e-05,0.0495056,21.0149,-341.526,-0.146188,0.0,0.0
7276,1818.75,22.0092,23.4595,137.946,113.026,114.826,-2.02735e-05,0.0494589,21.0149,-341.526,-0.140512,0.0,0.0
7293,1823,22.4557,23.2815,137.488,113.009,115.053,2.74032e-05,0.0494055,21.0153,-341.526,-0.159404,0.0,0.0
7310,1827.25,22.7115,23.3388,139.621,112.999,114.756,2.68227e-05,0.0494136,21.0157,-341.506,-0.137184,0.0,0.0
7327,1831.5,21.4172,22.9899,135.318,112.962,114.812,6.29342e-05,0.0493917,21.0132,-341.516,-0.144481,0.0,0.0
7344,1835.75,21.6312,21.9949,142.461,112.949,114.87,0.000223576,0.0494059,21.0121,-341.516,-0.149928,0.0,0.0
7361,1840,21.8468,22.0862,139.357,112.947,114.565,0.000127208,0.0494421,21.0118,-341.506,-0.126469,0.0,0.0
7378,1844.25,21.1828,22.1954,139.805,112.913,114.973,0.000152906,0.049448,21.0123,-341.526,-0.160842,0.0,0.0
7395,1848.5,21.2413,22.2401,140.351,112.883,114.579,-5.22423e-05,0.0493456,21.0107,-341.516,-0.132609,0.0,0.0
7412,1852.75,21.7286,22.7603,141.875,112.867,114.592,0.000183586,0.0495217,21.0114,-341.546,-0.134845,0.0,0.0
7429,1857,21.8404,22.1419,143.917,112.842,114.49,0.000310558,0.0496016,21.0118,-341.506,-0.128955,0.0,0.0
7446,1861.25,21.3713,22.5519,141.391,112.824,114.53,0.000308264,0.0495002,21.0132,-341.516,-0.133463,0.0,0.0
7463,1865.5,21.4549,22.6611,139.635,112.79,114.306,1.99203e-05,0.0494572,21.0126,-341.536,-0.118729,0.0,0.0
7480,1869.75,21.4966,22.6619,135.127,112.778,114.669,0.000220278,0.0493681,21.0121,-341.516,-0.147843,0.0,0.0
7497,1874,21.843,22.5475,140.991,112.748,114.639,0.000138773,0.0492884,21.0123,-341.506,-0.147914,0.0,0.0
7514,1878.25,22.001,22.7614,140.037,112.707,114.49,-0.000122647,0.0493029,21.0131,-341.526,-0.139575,0.0,0.0
7531,1882.5,21.6342,22.4327,139.785,112.71,114.684,0.00012933,0.0493318,21.0127,-341.506,-0.154352,0.0,0.0
7548,1886.75,21.3436,22.5831,138.513,112.692,114.979,0.000115726,0.049388,21.0129,-341.516,-0.178684,0.0,0.0
7565,1891,21.9343,22.6903,139.568,112.7,114.578,0.000322036,0.049282,21.0134,-341.526,-0.146978,0.0,0.0
7582,1895.25,21.8077,22.6486,141.165,112.715,114.573,0.000452489,0.0492675,21.0135,-341.526,-0.145363,0.0,0.0
7599,1899.5,21.5982,22.0741,138.681,112.728,114.84,0.00012236,0.0493599,21.0128,-341.516,-0.165046,0.0,0.0
7616,1903.75,21.4685,22.5732,134.902,112.763,114.936,-0.000142822,0.0493586,21.0135,-341.516,-0.169766,0.0,0.0
7633,1908,21.6761,22.3489,140.784,112.793,114.972,9.02649e-05,0.0492925,21.0143,-341.526,-0.170161,0.0,0.0
7650,1912.25,21.5799,22.224,139.352,112.821,114.312,0.000348434,0.0495067,21.0129,-341.516,-0.116809,0.0,0.0
7667,1916.5,21.3774,22.6381,141.566,112.856,114.742,0.000203382,0.0493658,21.0127,-341.526,-0.147404,0.0,0.0
7684,1920.75,21.5225,22.412,141.323,112.898,114.548,-0.000248779,0.0493171,21.0122,-341.516,-0.129024,0.0,0.0
7701,1925,21.9,22.2167,139.565,112.91,114.729,-6.36402e-05,0.0493538,21.0111,-341.516,-0.142169,0.0,0.0
7718,1929.25,21.6548,22.4882,139.51,112.941,114.711,-4.44553e-06,0.0494792,21.0105,-341.516,-0.138283,0.0,0.0
7735,1933.5,21.8752,22.3767,140.602,112.954,114.553,-2.59845e-05,0.0493647,21.0102,-341.536,-0.124987,0.0,0.0
7752,1937.75,21.9078,22.4472,143.969,112.98,115.276,-0.000141848,0.0494577,21.0101,-341.516,-0.178919,0.0,0.0
7769,1942,21.5891,22.4725,136.532,113,115.023,,,,-341.536,-0.15784,0.0,0.0
7786,1946.25,21.5282,22.3405,141.796,113.015,114.944,,,,-341.526,-0.15053,0.0,0.0
7798,1949.25,21.4116,22.23,140.603,113.042,115.149,,,,-341.516,-0.16422,0.0,0.0