File: 01_Data/Fiberglass_Insulation_R30/Cone/R30_Fiberglass_Insulation_Cone_HF50Scan_220503_R1.csv
Names,Time,Stack TC,Smoke TC,Exh Press,Smoke Comp,Smoke Meas,CO Meter,CO2 Meter,O2 Meter,Sample Mass,Ext Coeff,Start Test,Flame Verif
Chan Gain,,500,500,1,1,1,1,1,1,1,1,1.0,1.0
Offset,,0,0,0.135741,0,0,0,0,0,0,0,0.0,0.0
Gain,,1,1,25.011,14.8585,16.6522,1,1,1,1.00087,1.0138,1.0,1.0
Units,sec,C,C,Pa,%,%,%,%,%,g,/m,,
Baseline,,30.0213,31.0712,140.506,112.623,114.142,0.000827177,0.0498059,21.0127,-0.668329,-0.119138,,
18,4.25,27.5915,28.9448,140.084,112.734,113.968,0.00116552,0.0588658,21.0022,499.623,-0.0967973,0.0,0.0
36,8.75,28.6823,29.4143,140.01,112.768,114.569,0.00187299,0.0572347,21.0032,499.543,-0.140898,0.0,0.0
54,13.25,28.7129,29.8272,138.191,112.795,114.436,0.00189935,0.0554411,21.0061,499.453,-0.128451,0.0,0.0
72,17.75,28.703,29.7961,141.782,112.811,114.556,0.00193166,0.0539666,21.0085,499.413,-0.136552,0.0,0.0
90,22.25,29.643,30.9156,137.689,112.84,114.869,0.00197361,0.0532841,21.0105,499.393,-0.158496,0.0,0.0
108,26.75,29.8629,30.8527,136.481,112.872,114.558,0.00179127,0.0528936,21.0094,499.393,-0.13185,0.0,0.0
126,31.25,30.0573,30.5327,139.815,112.889,115.087,0.00167424,0.052478,21.009,499.373,-0.1715,0.0,0.0
144,35.75,29.9712,30.3758,137.899,112.921,114.754,0.00158879,0.0524339,21.01,499.363,-0.143202,0.0,0.0
162,40.25,30.2371,30.9408,141.398,112.937,114.916,0.00154635,0.0520101,21.012,499.363,-0.154472,0.0,0.0
180,44.75,30.3307,31.1306,138.776,112.95,114.49,0.00152048,0.0518201,21.0124,499.353,-0.120414,0.0,0.0
198,49.25,30.4689,31.7272,140.42,112.992,115.26,0.00134294,0.0513293,21.0131,499.353,-0.17674,0.0,0.0
216,53.75,30.8513,31.4195,138.963,113.017,115.201,0.00118393,0.0511078,21.0133,499.363,-0.170263,0.0,0.0
234,58.25,31.0917,32.5204,137.617,113.059,115.098,0.00118936,0.050912,21.0123,499.343,-0.158943,0.0,0.0
252,62.75,30.6773,32.2881,140.273,113.105,114.948,0.00106089,0.0510497,21.0118,499.323,-0.143712,0.0,0.0
270,67.25,31.1642,31.959,141.914,113.152,115.485,0.00128919,0.0507239,21.0117,499.303,-0.181496,0.0,0.0
288,71.75,31.4486,32.3319,141.39,113.176,114.909,0.00120236,0.0506071,21.0117,499.303,-0.135088,0.0,0.0
306,76.25,31.0716,32.2525,138.474,113.162,114.658,0.000996326,0.0505445,21.0117,499.323,-0.116854,0.0,0.0
324,80.75,31.1991,32.7914,137.692,113.128,115.46,0.00116401,0.0501537,21.0124,499.323,-0.181435,0.0,0.0
342,85.25,31.4985,32.4043,136.468,113.065,115.808,0.00100231,0.050077,21.0142,499.323,-0.213125,0.0,0.0
360,89.75,31.4366,32.7299,137.161,113.015,114.732,0.000765494,0.0500426,21.0131,499.313,-0.13412,0.0,0.0
378,94.25,31.3886,32.5662,141.207,112.92,114.43,0.00058526,0.0499243,21.0126,499.303,-0.118077,0.0,0.0
396,98.75,31.3847,32.5954,136.04,112.837,115.758,0.000856552,0.0500628,21.0125,499.293,-0.227296,0.0,0.0
414,103.25,31.8609,33.0079,136.645,112.723,114.661,0.00109185,0.050053,21.0136,499.293,-0.151579,0.0,0.0
432,107.75,31.4385,32.8548,139.534,112.625,114.187,0.000739707,0.0499777,21.0142,499.273,-0.122493,0.0,0.0
450,112.25,32.0207,33.2398,139.726,112.564,114.627,0.000596928,0.050014,21.0159,499.283,-0.161464,0.0,0.0
468,116.75,31.9206,33.1204,134.73,112.599,114.287,0.000544773,0.0495659,21.0141,499.263,-0.132366,0.0,0.0
486,121.25,32.1956,33.7056,138.805,112.635,114.469,0.00054137,0.0496085,21.0139,499.263,-0.143683,0.0,0.0
504,125.75,32.0543,33.7909,137.89,112.648,114.553,0.000609262,0.0496083,21.0141,499.263,-0.149121,0.0,0.0
522,130.25,32.3792,33.568,138.127,112.711,115.46,0.000640618,0.0493541,21.0141,499.273,-0.214287,0.0,0.0
540,134.75,31.7821,33.4141,137.856,112.735,114.461,0.000518722,0.0492551,21.0141,499.263,-0.135107,0.0,0.0
558,139.25,32.4472,33.6525,137.772,112.785,115.017,0.000735796,0.0491838,21.0128,499.253,-0.17426,0.0,0.0
576,143.75,32.1433,33.7374,141.369,112.842,114.791,0.000867301,0.0494483,21.012,499.263,-0.152296,0.0,0.0
594,148.25,32.4531,34.0528,141.127,112.877,114.48,0.000611499,0.0490312,21.0157,499.243,-0.125454,0.0,0.0
612,152.75,32.648,33.7751,140.708,112.923,115.019,0.00068012,0.049102,21.0169,499.263,-0.163518,0.0,0.0
630,157.25,32.6695,33.7215,137.956,112.937,114.624,0.000764265,0.0490353,21.0171,499.243,-0.13183,0.0,0.0
648,161.75,32.1751,33.3807,140.801,112.994,115.033,0.000807656,0.0490896,21.0171,499.223,-0.159089,0.0,0.0
666,166.25,32.3023,34.2651,136.63,113.035,114.839,0.000670024,0.0495223,21.0158,499.233,-0.140786,0.0,0.0
684,170.75,32.7571,34.268,137.741,113.064,114.934,0.000761331,0.0497619,21.0152,499.233,-0.145891,0.0,0.0
702,175.25,32.9162,34.115,138.583,113.093,115.118,0.000658635,0.0493328,21.0144,499.253,-0.157836,0.0,0.0
720,179.75,32.5195,34.1266,142.188,113.131,115.145,0.000757214,0.0491164,21.0145,499.233,-0.156917,0.0,0.0
738,184.25,32.3458,33.5212,136.986,113.165,115.002,0.000592079,0.0486463,21.014,499.223,-0.143248,0.0,0.0
756,188.75,32.4757,33.702,140.414,113.189,115.321,0.000769467,0.0487069,21.0139,499.233,-0.165968,0.0,0.0
774,193.25,32.7259,33.9624,138.39,113.221,115.585,0.000852268,0.0486554,21.0148,499.223,-0.183751,0.0,0.0
792,197.75,32.4374,33.9233,137.19,113.237,115.307,0.000440798,0.0486263,21.0159,499.203,-0.161131,0.0,0.0
810,202.25,32.9422,34.3403,136.253,113.258,114.742,0.000523935,0.0483891,21.0161,499.213,-0.115764,0.0,0.0
828,206.75,32.9252,34.2605,137.919,113.28,115.147,0.000876907,0.0483371,21.0161,499.213,-0.145394,0.0,0.0
846,211.25,32.837,34.3509,139.832,113.298,115.572,0.000823031,0.0485447,21.0161,499.223,-0.176757,0.0,0.0
864,215.75,32.4882,34.3519,139.038,113.317,115.48,0.00063923,0.048292,21.0164,499.213,-0.16815,0.0,0.0
882,220.25,32.4631,33.4942,138.421,113.352,115.265,0.000461994,0.0482711,21.0173,499.203,-0.148762,0.0,0.0
900,224.75,32.8141,34.3054,138.034,113.371,115.152,0.000505343,0.0484367,21.0174,499.203,-0.138595,0.0,0.0
918,229.25,32.4962,34.3435,139.63,113.382,115.321,0.000430596,0.0484151,21.0174,499.203,-0.150805,0.0,0.0
936,233.75,32.5699,34.1396,139.147,113.421,115.215,0.000420656,0.0483506,21.0174,499.193,-0.139548,0.0,0.0
954,238.25,32.6379,33.5714,140.947,113.428,114.827,0.000535618,0.0484233,21.0174,499.193,-0.109001,0.0,0.0
972,242.75,32.7571,34.0266,138.781,113.447,115.697,0.000648445,0.0482952,21.0169,499.183,-0.174673,0.0,0.0
990,247.25,32.8654,34.3733,139.257,113.454,115.411,0.000502469,0.0482692,21.0163,499.193,-0.152117,0.0,0.0
1008,251.75,32.7701,34.7427,136.62,113.461,115.033,0.00066682,0.0483026,21.0166,499.173,-0.122331,0.0,0.0
1026,256.25,33.007,33.8336,136.31,113.473,115.712,0.00064225,0.04835,21.0167,499.193,-0.173776,0.0,0.0
1044,260.75,33.0719,34.0187,143.398,113.459,115.618,0.000733228,0.0484504,21.0173,499.213,-0.167688,0.0,0.0
1062,265.25,33.1123,34.1086,141.275,113.463,115.043,0.000815818,0.04828,21.0179,499.183,-0.12301,0.0,0.0
1080,269.75,32.7266,34.47,140.243,113.46,115.439,0.000793282,0.0482348,21.0175,499.183,-0.153773,0.0,0.0
1098,274.25,32.8104,34.1982,138.187,113.478,115.302,0.000530193,0.0479888,21.017,499.183,-0.141811,0.0,0.0
1116,278.75,33.0882,34.4622,138.216,113.478,115.451,0.000510963,0.0479336,21.0158,499.173,-0.153288,0.0,0.0
1134,283.25,32.7265,34.2628,141.819,113.483,115.415,0.000461586,0.047941,21.015,499.163,-0.150084,0.0,0.0
1152,287.75,33.342,34.7624,140.013,113.481,115.129,0.000670997,0.0478079,21.0156,499.153,-0.128225,0.0,0.0
1170,292.25,33.1034,34.4026,141.952,113.492,115.798,0.000522261,0.0479439,21.0168,499.173,-0.178846,0.0,0.0
1188,296.75,33.1626,34.5187,138.837,113.492,115.974,0.000556737,0.0478582,21.0183,499.163,-0.192414,0.0,0.0
1206,301.25,32.834,34.5171,137.001,113.483,116.004,0.000416939,0.0478441,21.0192,499.183,-0.195352,0.0,0.0
1224,305.75,33.0103,34.8598,139.024,113.489,115.55,0.000304045,0.0478902,21.0193,499.173,-0.160029,0.0,0.0
1242,310.25,32.9684,34.5017,140.788,113.473,115.068,0.000566458,0.0479551,21.0194,499.163,-0.124122,0.0,0.0
1260,314.75,32.9294,34.5196,140.842,113.478,114.846,0.000567736,0.0478661,21.0186,499.153,-0.106587,0.0,0.0
1278,319.25,32.9382,34.732,136.218,113.466,115.805,0.000441011,0.0477731,21.018,499.153,-0.181418,0.0,0.0
1296,323.75,33.6638,34.6791,140.243,113.481,115.585,0.000600586,0.0476285,21.0173,499.143,-0.163406,0.0,0.0
1314,328.25,33.2929,34.8423,139.222,113.454,115.175,0.000565787,0.0477327,21.0171,499.143,-0.133819,0.0,0.0
1332,332.75,32.9297,34.5577,139.602,113.432,115.514,0.00068733,0.0478173,21.0168,499.143,-0.161695,0.0,0.0
1350,337.25,33.6123,34.7686,141.118,113.436,115.744,0.000606779,0.0478391,21.018,499.153,-0.17908,0.0,0.0
1368,341.75,33.4357,34.8994,140.889,113.395,115.084,0.000747165,0.0477863,21.0171,499.133,-0.131414,0.0,0.0
1386,346.25,33.3479,34.7967,137.913,113.394,115.721,0.000507173,0.0477625,21.0172,499.123,-0.180665,0.0,0.0
1404,350.75,33.2886,35.2187,137.395,113.345,115.796,0.000377327,0.0476418,21.0172,499.143,-0.190245,0.0,0.0
1422,355.25,33.1538,35.3673,139.008,113.344,115.205,0.000502886,0.0477913,21.0169,499.153,-0.14481,0.0,0.0
1440,359.75,33.2034,34.8459,138.217,113.313,115.404,0.000544124,0.0479903,21.0176,499.133,-0.162633,0.0,0.0
1458,364.25,33.2795,34.8438,138.966,113.306,115.274,0.000499006,0.0481055,21.0177,499.143,-0.153136,0.0,0.0
1476,368.75,32.9743,34.6754,138.051,113.264,114.732,0.000502501,0.048085,21.0177,499.143,-0.114517,0.0,0.0
1494,373.25,33.7136,34.834,139.871,113.222,114.967,0.000416361,0.0483474,21.0176,499.143,-0.136008,0.0,0.0
1512,377.75,34.0456,34.8868,141.275,113.187,114.851,0.000320297,0.0483357,21.0177,499.123,-0.129823,0.0,0.0
1530,382.25,33.4995,34.7369,140.393,113.126,115.503,0.000481481,0.0480981,21.0157,499.123,-0.184937,0.0,0.0
1548,386.75,33.9286,35.2224,138.188,113.076,115.222,0.000572319,0.0479742,21.0149,499.133,-0.167235,0.0,0.0
1566,391.25,33.6235,34.8414,139.049,112.976,115.031,0.000518072,0.0478877,21.0155,499.143,-0.160284,0.0,0.0
1584,395.75,33.6838,35.1759,141.38,112.9,114.716,0.000419175,0.0478619,21.0147,499.133,-0.141895,0.0,0.0
1602,400.25,33.4364,34.5345,137.863,112.797,115.128,0.000425405,0.0478129,21.0146,499.133,-0.181896,0.0,0.0
1620,404.75,33.3047,34.4957,138.437,112.683,114.708,0.000641976,0.04771,21.0158,499.133,-0.158386,0.0,0.0
1638,409.25,33.8367,34.42,136.867,112.531,114.665,0.000571927,0.0478386,21.016,499.123,-0.167036,0.0,0.0
1656,413.75,33.753,34.8056,139.141,112.399,114.145,0.000502755,0.0480714,21.016,499.123,-0.137059,0.0,0.0
1674,418.25,33.907,34.7497,141.517,112.271,113.954,0.000610745,0.0481343,21.016,499.113,-0.132283,0.0,0.0
1692,422.75,33.5831,35.2431,137.92,112.16,114.556,0.000678639,0.0483074,21.016,499.113,-0.18792,0.0,0.0
1710,427.25,33.6145,35.1547,142.456,112.018,113.848,0.000722982,0.0481508,21.0181,499.113,-0.14413,0.0,0.0
1728,431.75,33.8002,34.8545,139.083,111.877,113.586,0.000484859,0.0481036,21.0166,499.123,-0.13483,0.0,0.0
1746,436.25,33.9953,35.3371,140.183,111.776,114.219,0.000693323,0.0480584,21.0181,499.113,-0.192305,0.0,0.0
1764,440.75,33.2809,34.649,141.418,111.67,113.373,0.00049827,0.0480319,21.0186,499.093,-0.134591,0.0,0.0
1782,445.25,33.9038,34.8126,135.572,111.559,113.603,0.000365804,0.0479626,21.0168,499.113,-0.161483,0.0,0.0
1800,449.75,33.7901,35.0404,141.359,111.503,113.465,0.000475829,0.0480114,21.0181,499.093,-0.155102,0.0,0.0
1818,454.25,34.093,35.1321,139.559,111.421,114.176,0.000452459,0.048105,21.0186,499.113,-0.217199,0.0,0.0
1836,458.75,33.6888,35.0037,139.523,111.387,112.888,0.000550822,0.0480652,21.0187,499.093,-0.11908,0.0,0.0
1854,463.25,33.8862,34.8775,140.336,111.342,113.15,0.000563987,0.0481473,21.017,499.093,-0.143221,0.0,0.0
1872,467.75,33.5107,35.0089,138.933,111.315,113.302,0.000415691,0.0480383,21.0164,499.083,-0.157329,0.0,0.0
1890,472.25,33.8654,34.8147,140.251,111.291,112.954,0.000307549,0.048251,21.0167,499.083,-0.131884,0.0,0.0
1908,476.75,34.1916,35.656,142.078,111.264,113.155,-4.0714e-05,0.0480877,21.0173,499.093,-0.149888,0.0,0.0
1926,481.25,33.6455,35.037,138.006,111.257,112.529,0.000187341,0.0480077,21.017,499.073,-0.101131,0.0,0.0
1944,485.75,33.8018,35.6099,140.604,111.257,112.784,0.000425144,0.0479793,21.017,499.093,-0.121152,0.0,0.0
1962,490.25,34.1849,35.4905,138.731,111.262,114.397,0.000343726,0.048042,21.0189,499.093,-0.247112,0.0,0.0
1980,494.75,33.7898,35.0148,139.359,111.288,113.307,0.000413243,0.0478263,21.0177,499.093,-0.159901,0.0,0.0
1998,499.25,34.2742,35.403,141.66,111.326,113.03,0.000611971,0.0479707,21.0184,499.073,-0.13513,0.0,0.0
2016,503.75,33.7593,35.6378,141.545,111.387,113.602,0.000367292,0.0481038,21.0186,499.073,-0.175149,0.0,0.0
2034,508.25,34.1233,35.7763,139.231,111.473,113.252,0.000165705,0.0480056,21.0171,499.073,-0.140745,0.0,0.0
2052,512.75,34.4987,35.0803,141.398,111.518,113.472,6.54092e-05,0.047948,21.0171,499.083,-0.154466,0.0,0.0
2070,517.25,34.3704,35.8135,136.355,111.623,113.481,0.000356619,0.0478908,21.017,499.083,-0.14687,0.0,0.0
2088,521.75,33.5779,35.1899,140.54,111.726,113.502,0.000127128,0.0480257,21.0161,499.073,-0.14027,0.0,0.0
2106,526.25,34.1713,35.5128,139.292,111.823,114.114,0.000123652,0.0479286,21.017,499.083,-0.1804,0.0,0.0
2124,530.75,33.8969,35.5833,135.894,111.936,113.616,0.000268325,0.048048,21.0164,499.083,-0.132453,0.0,0.0
2142,535.25,34.563,35.4728,136.974,112.025,114.012,0.000485659,0.0479428,21.0175,499.083,-0.156327,0.0,0.0
2160,539.75,33.844,35.2594,140.498,112.156,114.332,0.000634246,0.0480057,21.0179,499.073,-0.170904,0.0,0.0
2178,544.25,34.2564,35.2698,138.452,112.249,114.121,0.000510284,0.0479852,21.0169,499.073,-0.147081,0.0,0.0
2196,548.75,34.2581,35.144,140.6,112.339,114.363,0.000451315,0.0481293,21.0182,499.073,-0.158766,0.0,0.0
2214,553.25,34.3488,35.8624,139.067,112.411,114.345,0.000587283,0.0480289,21.0179,499.073,-0.151748,0.0,0.0
2232,557.75,33.6809,35.0259,144.47,112.491,114.082,0.000573629,0.0481544,21.0188,499.073,-0.124944,0.0,0.0
2250,562.25,34.2909,35.3973,139.699,112.55,114.48,0.00078611,0.0481491,21.019,499.073,-0.151174,0.0,0.0
2268,566.75,34.4674,35.2335,137.469,112.572,114.548,0.000866358,0.04812,21.0177,499.083,-0.154817,0.0,0.0
2286,571.25,34.2578,35.457,135.307,112.625,114.711,0.000893725,0.0481002,21.0174,499.073,-0.163168,0.0,0.0
2304,575.75,33.9934,35.6243,139.707,112.629,114.669,0.000601946,0.0482256,21.0173,499.063,-0.159615,0.0,0.0
2322,580.25,34.5007,35.1108,137.316,112.681,114.73,0.000621654,0.048037,21.0173,499.073,-0.160302,0.0,0.0
2340,584.75,34.7613,35.5047,140.703,112.687,114.014,0.00048833,0.048251,21.0173,499.053,-0.104122,0.0,0.0
2358,589.25,34.0945,35.4946,142.245,112.717,114.613,0.000375671,0.0481859,21.0189,499.053,-0.148296,0.0,0.0
2376,593.75,34.4621,35.4484,139.444,112.714,114.273,0.000458814,0.0485505,21.0192,499.053,-0.122204,0.0,0.0
2394,598.25,33.6335,35.5015,137.763,112.726,114.443,0.000538687,0.0485479,21.0193,499.043,-0.134476,0.0,0.0
2412,602.75,34.4394,35.9665,136.863,112.728,114.208,0.000526969,0.0485214,21.0193,499.053,-0.115959,0.0,0.0
2430,607.25,34.1396,36.0731,140.162,112.72,114.939,0.00038225,0.0482983,21.0193,499.053,-0.173325,0.0,0.0
2448,611.75,34.5786,35.6338,141.013,112.731,115.082,0.000397346,0.0482913,21.0188,499.053,-0.183508,0.0,0.0
2466,616.25,33.8999,35.6599,140.817,112.722,114.558,0.00039402,0.0484426,21.0175,499.043,-0.143679,0.0,0.0
2484,620.75,34.322,35.5153,138.335,112.728,114.055,0.000296338,0.0485408,21.0172,499.053,-0.10404,0.0,0.0
2502,625.25,34.6145,35.9212,140.359,112.702,114.564,0.000231723,0.0484955,21.0177,499.063,-0.145726,0.0,0.0
2520,629.75,34.2081,35.7715,139.874,112.702,114.614,0.000397117,0.0487023,21.0178,499.053,-0.149595,0.0,0.0
2538,634.25,34.2466,35.9567,140.172,112.68,114.684,0.000444535,0.0488899,21.0163,499.063,-0.156753,0.0,0.0
2556,638.75,34.0746,36.0035,140.324,112.663,114.417,0.000518675,0.0489691,21.016,499.053,-0.137436,0.0,0.0
2574,643.25,34.1077,35.701,139.066,112.668,114.36,0.000549056,0.0489431,21.0153,499.053,-0.132581,0.0,0.0
2592,647.75,34.4803,35.8965,140.221,112.65,113.901,0.000503644,0.049112,21.0159,499.053,-0.0982528,0.0,0.0
2610,652.25,34.9334,36.1336,135.418,112.635,114.933,0.000487434,0.0490558,21.0144,499.053,-0.179581,0.0,0.0
2628,656.75,34.6783,35.6105,141.769,112.593,114.163,0.000430337,0.048969,21.0143,499.053,-0.123178,0.0,0.0
2646,661.25,34.0809,35.9051,135.99,112.581,114.053,0.000403465,0.0489796,21.0154,499.063,-0.115551,0.0,0.0
2664,665.75,34.5403,35.5881,136.492,112.554,114.444,0.00036154,0.0489082,21.0158,499.053,-0.148084,0.0,0.0
2682,670.25,34.231,35.5098,137.954,112.516,114.874,0.000209258,0.0489055,21.0159,499.063,-0.184439,0.0,0.0
2700,674.75,34.3177,36.1626,138.406,112.504,114.179,0.000284736,0.0488776,21.0166,499.043,-0.131389,0.0,0.0
2718,679.25,35.2555,35.5028,136.827,112.455,113.804,0.000499943,0.0491611,21.0166,499.043,-0.106006,0.0,0.0
2736,683.75,34.5003,35.9121,136.935,112.431,114.411,0.000408668,0.0489767,21.0173,499.053,-0.155235,0.0,0.0
2754,688.25,34.4879,35.3573,137.139,112.38,113.945,0.000405203,0.04889,21.0174,499.043,-0.122989,0.0,0.0
2772,692.75,34.3134,35.9123,137.129,112.339,113.842,0.000376391,0.0489124,21.0169,499.053,-0.11824,0.0,0.0
2790,697.25,34.4028,35.8505,136.231,112.291,114.212,0.000115541,0.0488619,21.0175,499.053,-0.150862,0.0,0.0
2808,701.75,34.1826,35.8016,141.209,112.247,114.339,0.000186234,0.0489678,21.0182,499.053,-0.164194,0.0,0.0
2826,706.25,34.4784,35.8633,137.299,112.202,114.254,0.000477256,0.0491052,21.0188,499.063,-0.161112,0.0,0.0
2844,710.75,34.2957,35.7498,138.004,112.156,114.162,0.00036355,0.0490497,21.0185,499.053,-0.157616,0.0,0.0
2862,715.25,34.5335,35.8074,139.302,112.142,114.479,0.000474616,0.049004,21.0163,499.053,-0.183399,0.0,0.0
2880,719.75,34.3608,35.4552,141.526,112.161,113.711,0.000401558,0.0490007,21.0159,499.053,-0.122074,0.0,0.0
2898,724.25,34.4018,35.7087,136.592,112.35,113.993,0.000343844,0.049086,21.0182,499.033,-0.129125,0.0,0.0
2916,728.75,34.2632,35.0578,142.894,112.55,114.24,0.000317321,0.0490675,21.0178,499.043,-0.132557,0.0,0.0
2934,733.25,34.4838,35.1463,136.959,112.689,115.254,0.000747197,0.0492299,21.0154,499.043,-0.200142,0.0,0.0
2952,737.75,34.5159,35.0796,135.753,112.787,115.156,0.000813183,0.0492712,21.0146,499.043,-0.184841,0.0,0.0
2970,742.25,34.8765,36.0063,136.767,112.87,114.742,0.000625931,0.0493592,21.0159,499.063,-0.146258,0.0,0.0
2988,746.75,34.5709,36.1025,140.627,112.97,114.599,0.000756581,0.0491398,21.0166,499.053,-0.127291,0.0,0.0
3006,751.25,34.1687,35.9585,137.177,113.027,114.859,0.000627354,0.0490143,21.0159,499.053,-0.142999,0.0,0.0
3024,755.75,34.4746,35.8068,139.416,113.084,114.999,0.000426156,0.048992,21.016,499.043,-0.149318,0.0,0.0
3042,760.25,34.3343,35.4302,137.055,113.101,115.191,0.000401687,0.0491104,21.016,499.043,-0.16288,0.0,0.0
3060,764.75,34.5897,35.8889,133.014,113.119,114.872,0.00042246,0.0489311,21.016,499.053,-0.136707,0.0,0.0
3078,769.25,34.8844,35.9886,138.94,113.097,114.923,0.000421014,0.0488205,21.016,499.053,-0.142387,0.0,0.0
3096,773.75,34.7079,35.8589,140.412,113.076,114.609,0.000326064,0.0487387,21.0168,499.043,-0.119767,0.0,0.0
3114,778.25,35.0546,36.03,141.336,113.014,114.788,0.000465471,0.0486811,21.0172,499.043,-0.138562,0.0,0.0
3132,782.75,35.3057,35.9275,139.378,112.946,115.212,0.000598178,0.048887,21.0173,499.053,-0.176616,0.0,0.0
3150,787.25,35.0717,36.0471,138.698,112.873,114.15,0.000356759,0.0487892,21.0173,499.053,-0.100079,0.0,0.0
3168,791.75,34.553,35.7267,140.902,112.758,114.957,0.000235396,0.0488484,21.0173,499.043,-0.171696,0.0,0.0
3186,796.25,34.7058,35.8599,139.351,112.664,114.849,0.000340566,0.0488909,21.0165,499.043,-0.170874,0.0,0.0
3204,800.75,34.828,35.7795,142.81,112.559,114.6,0.000615183,0.0488245,21.0157,499.053,-0.159805,0.0,0.0
3222,805.25,34.4495,35.8434,138.807,112.545,114.319,0.000381635,0.0487777,21.0156,499.053,-0.139084,0.0,0.0
3240,809.75,34.2588,35.9779,141.516,112.58,114.215,0.000410133,0.0487981,21.0156,499.043,-0.128215,0.0,0.0
3258,814.25,34.7287,36.3006,137.802,112.62,114.479,0.000374323,0.0488468,21.0156,499.043,-0.145618,0.0,0.0
3276,818.75,35.018,36.0594,135.959,112.67,114.658,0.000166258,0.0489934,21.0152,499.033,-0.155602,0.0,0.0
3294,823.25,34.4175,36.1395,134.596,112.738,114.787,0.000385786,0.0489376,21.0144,499.033,-0.160201,0.0,0.0
3312,827.75,34.4493,35.9478,136.346,112.825,114.48,0.000757247,0.0490115,21.0162,499.043,-0.129524,0.0,0.0
3330,832.25,34.4226,36.0468,140.277,112.883,114.389,0.000464406,0.0492717,21.0158,499.053,-0.117884,0.0,0.0
3348,836.75,34.7512,36.221,140.082,112.949,114.77,0.000287356,0.049234,21.0145,499.053,-0.142213,0.0,0.0
3366,841.25,34.4899,36.0037,139.361,113.025,114.583,0.000290334,0.0492667,21.0145,499.043,-0.121715,0.0,0.0
3384,845.75,35.1084,36.1212,137.467,113.113,114.665,0.000448281,0.0492297,21.0149,499.043,-0.121179,0.0,0.0
3402,850.25,34.4411,36.374,138.336,113.176,115.342,0.000320447,0.0492425,21.0149,499.033,-0.168608,0.0,0.0
3420,854.75,34.4198,35.8827,136.574,113.252,115.147,0.000543347,0.049518,21.0158,499.043,-0.147566,0.0,0.0
3438,859.25,34.7968,36.0286,141.172,113.318,115.278,0.000456305,0.0496179,21.016,499.033,-0.152525,0.0,0.0
3456,863.75,34.8517,36.1374,139.535,113.371,115.155,0.000421476,0.049851,21.0159,499.023,-0.13887,0.0,0.0
3474,868.25,34.5249,35.6741,138.169,113.412,115.189,0.000325285,0.0499304,21.0162,499.023,-0.138299,0.0,0.0
3492,872.75,34.2246,35.6587,139.289,113.432,115.593,0.000399326,0.0498757,21.0163,499.023,-0.167831,0.0,0.0
3510,877.25,34.5242,35.4954,139.959,113.467,114.892,0.000554828,0.0497115,21.0147,499.033,-0.110941,0.0,0.0
3528,881.75,34.2968,35.6668,141.461,113.459,115.037,0.000393054,0.0498118,21.0141,499.023,-0.122898,0.0,0.0
3546,886.25,34.3851,35.6591,138.421,113.468,115.153,0.000483089,0.0498001,21.014,499.023,-0.131101,0.0,0.0
3564,890.75,34.6481,36.1104,139.978,113.454,115.233,0.000424369,0.0497884,21.0146,499.003,-0.138362,0.0,0.0
3582,895.25,34.8835,35.7779,140.299,113.434,115.433,0.000305056,0.0496223,21.0157,499.033,-0.155329,0.0,0.0
3600,899.75,34.4648,35.9544,137.595,113.427,115.354,0.000412927,0.0495254,21.016,499.033,-0.149867,0.0,0.0
3618,904.25,34.8367,36.0248,139.766,113.391,115.219,0.00034456,0.0495414,21.0146,499.023,-0.142174,0.0,0.0
3636,908.75,34.5055,35.7941,136.981,113.356,115.117,0.000423631,0.0495867,21.0158,499.023,-0.13706,0.0,0.0
3654,913.25,34.9981,35.8821,138.276,113.312,115.001,0.000458636,0.04955,21.0142,499.023,-0.131596,0.0,0.0
3672,917.75,34.6578,36.3536,141.763,113.273,115.223,0.000293951,0.0492955,21.014,499.043,-0.151814,0.0,0.0
3690,922.25,34.2873,35.7021,136.578,113.239,115.289,0.000318871,0.0493267,21.0135,499.043,-0.159617,0.0,0.0
3708,926.75,34.6599,35.4286,137.973,113.206,114.946,0.000284813,0.0491321,21.0131,499.033,-0.135682,0.0,0.0
3726,931.25,34.9898,35.2265,137.007,113.134,114.749,0.000144943,0.0491364,21.0148,499.023,-0.12604,0.0,0.0
3744,935.75,34.7945,35.6052,140.362,113.086,114.885,0.000448411,0.0491397,21.0163,499.023,-0.140372,0.0,0.0
3762,940.25,34.987,35.6928,143.017,113.036,114.513,0.000506163,0.0491486,21.0168,499.023,-0.115453,0.0,0.0
3780,944.75,34.211,35.5778,136.393,112.947,114.852,0.000402165,0.0490891,21.015,499.023,-0.148804,0.0,0.0
3798,949.25,34.5121,35.6284,137.408,112.885,114.69,0.000187617,0.0491608,21.0147,499.013,-0.14106,0.0,0.0
3816,953.75,34.9578,35.9256,139.756,112.819,114.778,-0.000110463,0.0490256,21.016,499.013,-0.153095,0.0,0.0
3834,958.25,34.6976,35.8918,140.394,112.767,114.636,0.00016413,0.0492421,21.0156,499.013,-0.146211,0.0,0.0
3852,962.75,34.6911,35.7265,135.868,112.68,114.634,0.000343951,0.0492582,21.0164,499.023,-0.15289,0.0,0.0
3870,967.25,34.7031,35.731,137.494,112.617,114.34,0.000314072,0.0489364,21.0168,499.023,-0.134971,0.0,0.0
3888,971.75,35.0782,35.9966,135.271,112.524,114.296,0.000522251,0.0488509,21.0167,499.043,-0.139025,0.0,0.0
3906,976.25,34.3914,36.2241,137.521,112.439,113.986,0.000415568,0.0489645,21.0164,499.003,-0.121577,0.0,0.0
3924,980.75,34.439,35.8987,135.824,112.335,114.147,0.000427009,0.0489921,21.0152,499.023,-0.142238,0.0,0.0
3942,985.25,34.7861,35.877,139.12,112.189,114.204,0.000630774,0.0489647,21.0152,499.023,-0.158353,0.0,0.0
3960,989.75,34.5141,36.1264,132.676,112.086,113.699,0.000564589,0.0490941,21.0152,499.023,-0.127094,0.0,0.0
3978,994.25,34.5109,35.7666,138.707,111.978,113.673,0.000522817,0.0489031,21.0152,499.043,-0.13363,0.0,0.0
3996,998.75,34.6734,35.8272,137.295,111.865,113.894,0.000100036,0.0488339,21.0145,499.033,-0.159842,0.0,0.0
4014,1003.25,34.89,35.9358,135.624,111.774,113.402,0.000414891,0.048964,21.0138,499.033,-0.128594,0.0,0.0
4032,1007.75,34.4551,35.6571,138.53,111.687,113.56,0.0002244,0.0487789,21.0149,499.013,-0.147877,0.0,0.0
4050,1012.25,34.8986,36.0641,139.963,111.603,113.297,0.000187522,0.0488379,21.0154,499.033,-0.134032,0.0,0.0
4068,1016.75,34.7398,36.3412,140.511,111.511,113.083,0.000348657,0.0486915,21.0148,499.023,-0.124525,0.0,0.0
4086,1021.25,34.6111,35.8595,139.452,111.448,113.363,2.58371e-05,0.0486676,21.0146,499.013,-0.151506,0.0,0.0
4104,1025.75,34.7086,36.4882,143.983,111.378,113.237,0.000128402,0.0486411,21.0128,499.023,-0.147228,0.0,0.0
4122,1030.25,34.3062,35.3945,140.735,111.346,113.206,0.000361367,0.0486086,21.0134,499.033,-0.147324,0.0,0.0
4140,1034.75,34.5061,35.4772,138.007,111.317,113.592,0.000450853,0.0483182,21.0136,499.033,-0.179855,0.0,0.0
4158,1039.25,34.2412,35.8402,139.044,111.289,112.686,0.000256972,0.0482064,21.0156,499.043,-0.110995,0.0,0.0
4176,1043.75,34.3966,35.9883,139.56,111.279,113.191,0.000320751,0.0482001,21.0159,499.053,-0.151487,0.0,0.0
4194,1048.25,34.3464,35.8153,135.858,111.277,113.232,0.000237245,0.0481264,21.0176,499.013,-0.15487,0.0,0.0
4212,1052.75,34.4332,36.0038,138.17,111.287,112.833,0.000415991,0.0481455,21.0163,499.033,-0.122723,0.0,0.0
4230,1057.25,34.3389,35.9515,137.126,111.297,112.947,0.000590667,0.0483106,21.0165,499.023,-0.130853,0.0,0.0
4248,1061.75,34.5497,35.5928,137.794,111.322,113.13,0.000408933,0.0481976,21.0164,499.043,-0.143217,0.0,0.0
4266,1066.25,34.9613,35.9336,139.528,111.342,113.077,0.000313166,0.0481521,21.0167,499.023,-0.137544,0.0,0.0
4284,1070.75,34.6644,35.6266,140.859,111.393,113.263,0.000310206,0.0480341,21.0168,499.023,-0.148104,0.0,0.0
4302,1075.25,34.4453,36.3304,141.799,111.428,112.93,0.000183288,0.0481837,21.0155,499.023,-0.119144,0.0,0.0
4320,1079.75,34.6391,35.9653,138.866,111.459,113.478,0.000138408,0.048119,21.0143,499.023,-0.159606,0.0,0.0
4338,1084.25,34.318,35.9741,137.06,111.503,113.705,0.000393784,0.0480787,21.0141,499.013,-0.173918,0.0,0.0
4356,1088.75,34.8137,36.0348,136.304,111.522,112.994,0.000500585,0.0480403,21.0143,499.023,-0.116624,0.0,0.0
4374,1093.25,34.503,36.0854,138.726,111.548,113.09,0.000504883,0.0480279,21.0156,499.013,-0.122116,0.0,0.0
4392,1097.75,34.5768,35.7622,140.247,111.563,113.608,0.000505912,0.0482205,21.0158,499.023,-0.161591,0.0,0.0
4410,1102.25,34.7861,35.8379,140.82,111.587,113.697,0.000506573,0.0483294,21.0172,499.003,-0.166558,0.0,0.0
4428,1106.75,34.727,35.9436,138.709,111.602,112.991,0.000976504,0.0481011,21.0174,499.013,-0.110019,0.0,0.0
4446,1111.25,34.4253,35.5103,136.19,111.633,113.323,0.000816283,0.0482099,21.0174,499.013,-0.133569,0.0,0.0
4464,1115.75,35.0145,35.9391,142.656,111.64,112.933,0.000656672,0.0481199,21.0174,499.033,-0.102388,0.0,0.0
4482,1120.25,34.7425,36.1584,140.198,111.653,113.708,0.000504187,0.0482847,21.0176,499.023,-0.162234,0.0,0.0
4500,1124.75,34.276,35.9262,138.052,111.671,113.706,0.00041041,0.0480864,21.0178,499.003,-0.160555,0.0,0.0
4518,1129.25,34.6599,35.4213,140.418,111.666,113.545,0.000192488,0.0479827,21.0179,499.023,-0.148379,0.0,0.0
4536,1133.75,34.3104,35.8573,141.385,111.705,113.42,0.000197108,0.0479084,21.0172,499.003,-0.135517,0.0,0.0
4554,1138.25,34.5524,36.1316,138.756,111.743,113.184,0.000218345,0.0477065,21.017,499.013,-0.113938,0.0,0.0
4572,1142.75,34.8051,36.3664,134.101,111.756,113.677,0.000192579,0.047777,21.017,499.003,-0.151575,0.0,0.0
4590,1147.25,34.7574,36.0177,139.273,111.798,113.746,0.00062463,0.0476859,21.0197,498.992,-0.153585,0.0,0.0
4608,1151.75,34.4505,36.0526,136.981,111.825,113.434,0.000499342,0.0478732,21.0201,498.992,-0.127032,0.0,0.0
4626,1156.25,34.3445,36.6626,136.848,111.866,113.888,0.000544091,0.0479658,21.0202,499.003,-0.159333,0.0,0.0
4644,1160.75,34.9842,36.2996,137.647,111.903,113.953,0.000780991,0.0478116,21.0202,499.003,-0.161456,0.0,0.0
4662,1165.25,35.0786,36.4224,135.482,111.96,113.952,0.000507526,0.0479665,21.0202,499.003,-0.156834,0.0,0.0
4680,1169.75,34.8277,36.1583,135.796,112.012,114.004,0.000216486,0.0479133,21.0189,499.003,-0.156701,0.0,0.0
4698,1174.25,34.7274,36.013,138.835,112.093,113.648,0.000352938,0.0480774,21.0186,499.013,-0.122543,0.0,0.0
4716,1178.75,34.8093,36.4079,138.953,112.108,114.099,0.000453837,0.0483191,21.0185,499.013,-0.156594,0.0,0.0
4734,1183.25,34.5987,36.082,136.194,112.168,113.657,0.000434073,0.0480474,21.0185,499.033,-0.117209,0.0,0.0
4752,1187.75,35.1203,36.0343,141.233,112.188,113.746,0.000560031,0.0478824,21.0185,499.003,-0.122659,0.0,0.0
4770,1192.25,34.8224,36.0512,134.309,112.221,114.719,0.000738361,0.0479509,21.0164,499.023,-0.195833,0.0,0.0
4788,1196.75,34.8166,36.3763,137.12,112.266,113.9,0.000590213,0.047991,21.0162,499.023,-0.128505,0.0,0.0
4806,1201.25,35.2822,36.0687,138.603,112.306,113.874,0.000362447,0.0480536,21.0162,499.023,-0.123289,0.0,0.0
4824,1205.75,35.0381,35.7647,137.593,112.374,114.272,0.000594516,0.0480356,21.0162,499.033,-0.148962,0.0,0.0
4842,1210.25,34.5528,35.8387,138.291,112.422,113.882,0.000669563,0.0479187,21.0162,499.013,-0.114697,0.0,0.0
4860,1214.75,34.3107,36.0027,136.99,112.489,114.092,0.000634237,0.0479856,21.0156,499.003,-0.125801,0.0,0.0
4878,1219.25,34.949,35.7716,136.612,112.553,113.836,0.000358404,0.0479187,21.0153,499.023,-0.100797,0.0,0.0
4896,1223.75,35.0927,35.5991,138.831,112.609,114.655,0.000368102,0.0480453,21.0152,498.992,-0.160162,0.0,0.0
4914,1228.25,35.28,36.8331,138.509,112.648,114.37,0.000480805,0.0478673,21.0178,498.992,-0.134868,0.0,0.0
4932,1232.75,34.7733,36.7448,140.056,112.673,115.07,0.000485906,0.0478888,21.0183,499.003,-0.18722,0.0,0.0
4950,1237.25,35.0303,36.0417,137.19,112.698,114.484,0.000380645,0.0476234,21.0192,498.992,-0.139892,0.0,0.0
4968,1241.75,35.2314,36.1917,136.977,112.706,114.424,0.000287215,0.0476555,21.0197,498.982,-0.134553,0.0,0.0
4986,1246.25,34.6965,36.3174,135.935,112.723,114.314,0.000548031,0.0477459,21.0201,499.013,-0.12458,0.0,0.0
5004,1250.75,35.5029,36.4897,138.255,112.724,114.238,0.000643865,0.047973,21.0206,498.992,-0.118691,0.0,0.0
5022,1255.25,35.1265,36.5646,133.272,112.723,114.107,0.000638791,0.0482407,21.0195,499.023,-0.10851,0.0,0.0
5040,1259.75,34.8684,36.4401,137.093,112.715,114.515,0.000504354,0.0480989,21.018,499.013,-0.14094,0.0,0.0
5058,1264.25,35.1854,36.0469,138.366,112.713,114.412,0.000460408,0.0481423,21.0187,499.003,-0.133069,0.0,0.0
5076,1268.75,34.4232,36.7113,135.79,112.706,114.835,0.000286588,0.0482287,21.0173,498.982,-0.166445,0.0,0.0
5094,1273.25,34.145,37.0652,138.249,112.695,114.697,0.000141438,0.0482436,21.0169,499.003,-0.156557,0.0,0.0
5112,1277.75,35.0522,36.1025,141.259,112.708,114.58,0.000423208,0.0482204,21.0169,499.003,-0.146563,0.0,0.0
5130,1282.25,35.0769,36.464,140.892,112.701,113.975,0.000246162,0.0480457,21.0171,499.013,-0.0999996,0.0,0.0
5148,1286.75,35.5815,36.5476,140.304,112.714,114.08,0.000136737,0.0479804,21.0204,498.982,-0.107202,0.0,0.0
5166,1291.25,35.0943,36.6402,138.976,112.683,114.753,0.000292671,0.0480672,21.021,499.023,-0.161896,0.0,0.0
5184,1295.75,34.9994,36.0454,138.141,112.699,114.389,0.00012414,0.0479876,21.0211,498.992,-0.132396,0.0,0.0
5202,1300.25,35.5738,35.6922,136.34,112.7,114.05,0.000345953,0.04779,21.0194,498.992,-0.105901,0.0,0.0
5220,1304.75,35.0681,36.7309,136.28,112.704,114.422,0.000356572,0.0479037,21.0189,498.992,-0.134499,0.0,0.0
5238,1309.25,34.9541,36.3595,145.732,112.676,114.599,0.000129019,0.0481511,21.0183,499.013,-0.150527,0.0,0.0
5256,1313.75,34.8425,36.0159,141.228,112.653,114.493,0.00023751,0.0480865,21.0182,499.003,-0.144071,0.0,0.0
5274,1318.25,35.3792,36.8095,137.364,112.645,114.634,0.000260688,0.0480503,21.0182,498.992,-0.155646,0.0,0.0
5292,1322.75,34.7768,36.2424,141.427,112.61,115.194,0.000300946,0.0480045,21.0189,498.982,-0.201778,0.0,0.0
5310,1327.25,34.7567,36.4814,140.539,112.593,114.57,0.000343911,0.0481083,21.019,499.003,-0.154791,0.0,0.0
5328,1331.75,35.1128,36.9191,136.757,112.559,114.473,0.000489889,0.0480676,21.018,499.003,-0.149904,0.0,0.0
5346,1336.25,34.9539,36.0957,137.691,112.538,114.18,0.000281846,0.0479392,21.0169,498.992,-0.12878,0.0,0.0
5364,1340.75,34.8653,36.1976,136.981,112.519,114.192,0.00034872,0.0481259,21.0175,499.003,-0.13131,0.0,0.0
5382,1345.25,34.9472,36.2176,137.96,112.467,114.336,0.000445446,0.0478181,21.0176,499.003,-0.14659,0.0,0.0
5400,1349.75,34.372,36.2453,137.73,112.456,114.224,0.000269542,0.0478695,21.0176,499.003,-0.138675,0.0,0.0
5418,1354.25,35.4296,36.8405,139.199,112.419,114.626,0.000370874,0.0480193,21.0173,499.003,-0.172932,0.0,0.0
5436,1358.75,34.9186,36.3405,138.114,112.408,114.322,0.000483353,0.0477408,21.0172,498.992,-0.150149,0.0,0.0
5454,1363.25,35.3416,36.6521,146.262,112.377,114.113,0.000366355,0.0476822,21.0178,498.992,-0.136322,0.0,0.0
5472,1367.75,35.166,36.4393,140.163,112.358,113.694,0.000326522,0.0477085,21.018,498.982,-0.105101,0.0,0.0
5490,1372.25,35.1961,36.5668,138.058,112.316,114.159,0.000363759,0.0477383,21.0174,498.982,-0.144696,0.0,0.0
5508,1376.75,34.7781,36.4459,135.456,112.304,114.656,0.000388311,0.0476251,21.0178,498.972,-0.184337,0.0,0.0
5526,1381.25,35.2558,36.1787,140.266,112.303,114.397,0.000271649,0.0476222,21.0192,498.992,-0.164284,0.0,0.0
5544,1385.75,35.1079,36.0323,136.197,112.258,113.961,0.000581486,0.0477169,21.0187,498.982,-0.13384,0.0,0.0
5562,1390.25,35.0866,36.2269,141.229,112.251,113.878,0.000584779,0.0476829,21.0174,498.992,-0.127913,0.0,0.0
5580,1394.75,35.1397,35.7781,136.941,112.227,113.848,0.000355065,0.0476643,21.0172,498.992,-0.127587,0.0,0.0
5598,1399.25,34.846,36.6454,137.266,112.216,114.071,0.00061616,0.0477236,21.0172,498.972,-0.145783,0.0,0.0
5616,1403.75,35.1173,36.301,136.397,112.189,113.762,0.000491768,0.0478568,21.0167,498.982,-0.123819,0.0,0.0
5634,1408.25,34.99,36.1616,136.425,112.167,113.613,0.000367046,0.0479284,21.0164,498.982,-0.113897,0.0,0.0
5652,1412.75,34.7742,35.8951,135.651,112.148,114.006,0.000530922,0.0480198,21.0157,498.982,-0.146177,0.0,0.0
5670,1417.25,35.2279,36.2856,139.312,112.121,113.999,0.000475822,0.0480358,21.0159,498.992,-0.147669,0.0,0.0
5688,1421.75,35.3822,36.5086,142.722,112.115,114.18,0.000503654,0.0481878,21.0163,498.972,-0.162274,0.0,0.0
5706,1426.25,34.6794,36.4368,134.723,112.087,113.99,0.000459855,0.048087,21.0165,498.982,-0.149729,0.0,0.0
5724,1430.75,34.8813,36.7585,141.64,112.086,113.681,0.00043406,0.0480708,21.0165,498.992,-0.125587,0.0,0.0
5742,1435.25,34.9944,36.2574,136.379,112.056,113.965,0.000670053,0.0479886,21.0183,498.992,-0.150193,0.0,0.0
5760,1439.75,35.6692,36.2684,137.854,112.064,113.652,0.000534533,0.0478362,21.017,498.982,-0.12516,0.0,0.0
5778,1444.25,35.0568,36.2824,137.609,112.086,114.094,0.000310326,0.0480842,21.0164,498.972,-0.157889,0.0,0.0
5796,1448.75,34.9256,36.5032,135.385,112.198,113.741,0.00037762,0.048169,21.0151,498.982,-0.12151,0.0,0.0
5814,1453.25,35.1646,36.4545,140.321,112.312,114.478,0.000645466,0.0482442,21.0167,498.982,-0.169886,0.0,0.0
5832,1457.75,34.8395,36.2822,139.637,112.452,113.534,0.000536768,0.0481043,21.0171,499.003,-0.0851407,0.0,0.0
5850,1462.25,34.5414,36.1927,136.485,112.587,114.451,0.000566934,0.0479468,21.0172,498.972,-0.146057,0.0,0.0
5868,1466.75,35.1557,36.2271,137.002,112.664,114.861,0.000540217,0.0478702,21.0172,498.982,-0.17174,0.0,0.0
5886,1471.25,35.4635,36.4193,138.498,112.749,114.441,0.000457326,0.047903,21.0201,498.982,-0.132418,0.0,0.0
5904,1475.75,35.3537,35.9425,136.293,112.804,114.423,0.000319111,0.0480348,21.022,498.982,-0.126749,0.0,0.0
5922,1480.25,35.297,36.7171,137.132,112.853,114.332,0.000364985,0.0480142,21.0217,498.992,-0.115777,0.0,0.0
5940,1484.75,35.3578,36.4422,136.769,112.926,114.627,0.000744847,0.04804,21.0209,498.982,-0.132962,0.0,0.0
5958,1489.25,35.4102,36.6158,138.244,112.951,114.514,0.000396112,0.048147,21.0215,498.972,-0.122242,0.0,0.0
5976,1493.75,35.307,36.3615,138.085,112.998,114.755,0.000383696,0.0481054,21.0204,498.962,-0.137216,0.0,0.0
5994,1498.25,35.2811,36.5709,139.613,113.037,115.066,0.000381037,0.0479509,21.0202,498.992,-0.158217,0.0,0.0
6012,1502.75,35.3956,36.8635,139.69,113.061,114.755,0.000334205,0.0479597,21.0201,498.972,-0.132257,0.0,0.0
6030,1507.25,35.4297,36.4543,140.269,113.05,114.951,0.000314437,0.0480477,21.0201,498.982,-0.148298,0.0,0.0
6048,1511.75,35.0381,36.683,135.367,113.077,114.837,0.000412614,0.0479518,21.0194,499.003,-0.137344,0.0,0.0
6066,1516.25,35.3088,36.2256,136.471,113.069,115.372,0.000532147,0.0478476,21.0203,498.992,-0.179257,0.0,0.0
6084,1520.75,35.0241,36.6749,141.038,113.032,114.54,0.00038496,0.0480303,21.0207,498.972,-0.117826,0.0,0.0
6102,1525.25,34.9695,36.3568,139.636,113.022,114.252,0.000286155,0.0479698,21.0208,498.982,-0.0962116,0.0,0.0
6120,1529.75,35.0274,36.6933,142.291,112.966,114.728,3.05866e-05,0.0478633,21.0208,498.972,-0.137624,0.0,0.0
6138,1534.25,35.5191,36.876,139.318,112.933,114.545,-3.51628e-06,0.0478258,21.0208,499.003,-0.126112,0.0,0.0
6156,1538.75,35.1761,36.6082,145.383,112.879,114.809,8.79206e-05,0.047988,21.0194,498.972,-0.150744,0.0,0.0
6174,1543.25,35.0541,36.4249,141.433,112.836,114.318,0.000203095,0.0476909,21.0187,498.972,-0.116032,0.0,0.0
6192,1547.75,34.8546,36.1539,140.034,112.784,115.54,0.000338092,0.0477945,21.018,498.972,-0.214714,0.0,0.0
6210,1552.25,35.402,36.3157,137.977,112.713,114.34,0.000431565,0.0480697,21.0204,498.972,-0.127493,0.0,0.0
6228,1556.75,35.1091,36.8408,138.177,112.616,114.846,0.000391503,0.0479494,21.0209,498.972,-0.174361,0.0,0.0
6246,1561.25,34.9572,36.2727,136.253,112.536,114.964,0.000506269,0.0478155,21.0214,498.982,-0.189826,0.0,0.0
6264,1565.75,35.4208,36.6342,138.879,112.508,114.45,0.000638743,0.0477298,21.0209,498.972,-0.152217,0.0,0.0
6282,1570.25,35.4029,36.5699,136.148,112.552,114.536,0.000707545,0.0478983,21.0209,498.972,-0.155447,0.0,0.0
6300,1574.75,35.4952,36.3251,137.247,112.614,114.197,0.000436866,0.047799,21.0219,498.962,-0.124182,0.0,0.0
6318,1579.25,35.1496,36.3841,137.335,112.662,114.473,0.000183681,0.0478295,21.0205,498.972,-0.141851,0.0,0.0
6336,1583.75,35.317,36.8987,141.007,112.727,114.141,0.000249777,0.0478061,21.0215,498.962,-0.110842,0.0,0.0
6354,1588.25,35.1964,36.4878,138.879,112.765,114.502,0.000277468,0.0479751,21.0203,498.972,-0.135944,0.0,0.0
6372,1592.75,35.2665,36.6746,135.627,112.833,114.62,0.00039774,0.0481247,21.0187,498.962,-0.13973,0.0,0.0
6390,1597.25,35.0214,36.259,140.215,112.883,114.576,0.000526593,0.0479345,21.0199,498.962,-0.132373,0.0,0.0
6408,1601.75,35.0853,36.5532,137.719,112.916,115.089,0.000564673,0.0478855,21.0191,498.982,-0.169475,0.0,0.0
6426,1606.25,35.4186,36.9268,142.027,112.972,114.818,0.000415638,0.0480846,21.0181,498.982,-0.144133,0.0,0.0
6444,1610.75,35.3394,36.6352,137.88,112.995,114.403,0.000369572,0.0479819,21.0184,498.992,-0.110168,0.0,0.0
6462,1615.25,35.529,36.6493,140.111,113.062,115.021,0.000403719,0.0478775,21.0185,498.992,-0.152759,0.0,0.0
6480,1619.75,34.85,36.6776,135.17,113.089,115.039,0.000299154,0.0479564,21.0185,498.992,-0.151995,0.0,0.0
6498,1624.25,34.6805,36.6642,138.676,113.12,114.957,0.000222395,0.0476244,21.0185,498.962,-0.143279,0.0,0.0
6516,1628.75,35.3322,36.5412,139.556,113.15,115.4,0.000278889,0.047624,21.0185,498.972,-0.17514,0.0,0.0
6534,1633.25,35.1055,36.71,139.405,113.204,114.601,0.000124694,0.0476327,21.0185,498.982,-0.109124,0.0,0.0
6552,1637.75,35.1977,36.2942,137.75,113.26,115.274,0.000497885,0.0477673,21.0185,498.992,-0.156732,0.0,0.0
6570,1642.25,35.2468,36.4378,137.783,113.317,115.327,0.000629934,0.0477014,21.0185,498.972,-0.156283,0.0,0.0
6588,1646.75,35.2611,36.7936,142.673,113.363,114.871,0.000344101,0.0478443,21.0191,498.972,-0.117545,0.0,0.0
6606,1651.25,35.1174,36.6889,138.413,113.392,115.127,0.000419416,0.0477628,21.0193,498.962,-0.135001,0.0,0.0
6624,1655.75,35.4992,36.7198,137.421,113.434,114.929,0.000472167,0.0477044,21.0182,498.982,-0.116446,0.0,0.0
6642,1660.25,35.1886,36.5083,138.056,113.448,115.761,0.000604718,0.0475835,21.0188,498.972,-0.179483,0.0,0.0
6660,1664.75,35.5542,37.0068,133.977,113.446,114.901,0.000528742,0.0475036,21.0199,498.972,-0.113359,0.0,0.0
6678,1669.25,35.2001,36.7911,136.619,113.442,114.915,0.000726504,0.0476376,21.0201,498.972,-0.114744,0.0,0.0
6696,1673.75,34.5653,36.7631,136.387,113.433,115.669,0.000519979,0.0476132,21.0193,498.972,-0.173583,0.0,0.0
6714,1678.25,35.4178,36.4651,138.061,113.418,115.021,0.000291693,0.0476325,21.019,498.972,-0.124805,0.0,0.0
6732,1682.75,35.3562,36.8556,138.248,113.391,115.48,0.000168735,0.0477129,21.0206,498.962,-0.162422,0.0,0.0
6750,1687.25,34.9858,36.5336,138.732,113.375,115.01,0.00063938,0.0475569,21.0213,498.992,-0.127354,0.0,0.0
6768,1691.75,35.303,36.6735,140.309,113.345,115.321,0.000797823,0.0476787,21.0195,498.972,-0.153757,0.0,0.0
6786,1696.25,35.6561,36.8512,133.588,113.321,115.22,0.000474953,0.047718,21.0199,498.972,-0.147766,0.0,0.0
6804,1700.75,35.5518,36.7516,135.896,113.292,115.31,0.000160226,0.0477369,21.019,498.962,-0.157059,0.0,0.0
6822,1705.25,35.7381,36.7326,141.731,113.27,114.8,7.10235e-05,0.0477829,21.0191,498.972,-0.119291,0.0,0.0
6840,1709.75,35.4297,36.8812,140.214,113.24,114.596,8.51557e-05,0.0479087,21.0191,498.972,-0.105916,0.0,0.0
6858,1714.25,35.9114,36.5134,140.103,113.193,114.614,0.000159464,0.0479056,21.0191,498.962,-0.110926,0.0,0.0
6876,1718.75,35.5891,36.2528,134.155,113.182,115.171,7.3766e-05,0.0478727,21.0191,498.952,-0.154931,0.0,0.0
6894,1723.25,35.9516,36.7542,136.948,113.125,115.039,0.000252642,0.0478466,21.0191,498.972,-0.149253,0.0,0.0
6912,1727.75,35.502,36.6136,139.607,113.084,114.385,0.000362121,0.0477805,21.0191,498.972,-0.101793,0.0,0.0
6930,1732.25,34.3668,36.5291,142.098,113.018,114.768,0.000225084,0.0477595,21.0191,498.982,-0.136666,0.0,0.0
6948,1736.75,35.247,36.7361,138.658,112.994,114.457,0.000118079,0.0477537,21.0191,498.972,-0.114386,0.0,0.0
6966,1741.25,35.305,36.7057,137.88,112.913,114.505,0.000369366,0.0478825,21.0191,498.972,-0.124531,0.0,0.0
6984,1745.75,35.4379,36.753,138.574,112.854,114.656,0.000416752,0.0477758,21.0191,498.972,-0.140924,0.0,0.0
7002,1750.25,34.4296,36.9203,138.188,112.832,114.57,0.000243843,0.0477869,21.0197,498.962,-0.135901,0.0,0.0
7020,1754.75,35.4995,37.072,138.823,112.751,114.474,0.000428755,0.0478289,21.0197,498.952,-0.134882,0.0,0.0
7038,1759.25,34.9021,36.33,138.305,112.693,114.364,0.00038613,0.0478532,21.0196,498.952,-0.13085,0.0,0.0
7056,1763.75,34.9859,36.24,138.453,112.603,114.012,0.000639118,0.0478882,21.0174,498.932,-0.110625,0.0,0.0
7074,1768.25,34.9817,37.0521,140.972,112.564,115.089,0.000793699,0.04793,21.0169,498.962,-0.19723,0.0,0.0
7092,1772.75,34.3448,36.6844,141.133,112.5,114.693,0.000581052,0.0479029,21.0179,498.952,-0.171681,0.0,0.0
7110,1777.25,35.6174,37.2796,142.582,112.439,114.149,0.000611374,0.0476754,21.0195,498.972,-0.134219,0.0,0.0
7128,1781.75,35.4436,36.6584,135.473,112.383,114.182,0.000488037,0.0479137,21.0205,498.962,-0.141201,0.0,0.0
7146,1786.25,35.8262,36.3565,139.344,112.339,113.876,0.000180493,0.04778,21.0203,498.972,-0.120788,0.0,0.0
7164,1790.75,35.6583,36.6274,136.9,112.27,113.863,0.000248597,0.0476491,21.0197,498.952,-0.125364,0.0,0.0
7182,1795.25,35.331,36.5624,139.664,112.233,113.783,0.000404547,0.0478753,21.017,498.972,-0.121961,0.0,0.0
7200,1799.75,35.4759,36.3523,140.08,112.197,113.911,0.000435347,0.047851,21.0163,498.962,-0.134839,0.0,0.0
7218,1804.25,35.2501,36.2568,139.112,112.139,113.544,0.000546962,0.0478474,21.0162,498.962,-0.110718,0.0,0.0
7236,1808.75,35.6952,36.8889,137.328,112.104,113.466,0.000472172,0.0481826,21.015,498.952,-0.107392,0.0,0.0
7254,1813.25,34.3622,36.7961,139.566,112.061,113.442,0.000705441,0.0481407,21.0151,498.972,-0.108934,0.0,0.0
7272,1817.75,35.2673,36.8445,138.166,112.038,113.527,0.000830685,0.0482418,21.0154,498.952,-0.117348,0.0,0.0
7290,1822.25,34.1899,36.8877,140.76,112.007,113.821,0.00048681,0.0482529,21.0163,498.982,-0.142927,0.0,0.0
7308,1826.75,35.64,36.6031,143.764,111.978,113.717,0.000245087,0.0481308,21.0171,498.962,-0.137087,0.0,0.0
7326,1831.25,35.0603,36.7875,139.859,111.968,113.91,0.000379058,0.0481372,21.0162,498.972,-0.15293,0.0,0.0
7344,1835.75,35.3097,36.7506,137.366,111.926,113.914,0.000387458,0.048067,21.0171,498.972,-0.156601,0.0,0.0
7362,1840.25,35.5922,36.3261,137.531,111.929,113.542,0.000511399,0.0482025,21.0166,498.972,-0.12726,0.0,0.0
7380,1844.75,34.9996,36.7181,136.9,111.875,113.781,0.00044387,0.0481555,21.0168,498.962,-0.150273,0.0,0.0
7398,1849.25,35.4491,36.5621,139.464,111.837,113.629,0.00015812,0.0481713,21.0166,498.962,-0.141377,0.0,0.0
7416,1853.75,35.6648,36.6564,139.635,111.797,113.581,0.00021431,0.0483352,21.0181,498.992,-0.140775,0.0,0.0
7434,1858.25,35.1334,36.8996,136.452,111.767,113.561,0.000410319,0.0483674,21.0175,498.962,-0.141563,0.0,0.0
7452,1862.75,35.593,36.6865,136.361,111.74,113.892,0.00029316,0.0481307,21.0167,498.962,-0.169674,0.0,0.0
7470,1867.25,34.8977,35.7953,139.42,111.7,113.608,0.00032734,0.0479324,21.0165,498.962,-0.150682,0.0,0.0
7488,1871.75,35.399,36.25,136.345,111.677,113.424,0.000453043,0.0480768,21.0182,498.962,-0.138075,0.0,0.0
7506,1876.25,35.3229,36.361,139.099,111.639,113.511,0.0003584,0.0480347,21.0179,498.952,-0.147883,0.0,0.0
7524,1880.75,35.6543,37.092,139.257,111.603,113.198,0.00028146,0.0480736,21.0162,498.972,-0.126211,0.0,0.0
7542,1885.25,35.5331,36.4979,136.813,111.542,113.844,0.000370951,0.0479139,21.0174,498.952,-0.181692,0.0,0.0
7560,1889.75,35.2187,36.8469,142.626,111.506,112.838,0.000340389,0.047989,21.0188,498.962,-0.105603,0.0,0.0
7578,1894.25,35.0852,36.7211,136.706,111.455,113.673,0.000481529,0.0479061,21.019,498.942,-0.175252,0.0,0.0
7596,1898.75,35.3593,36.601,137.327,111.428,113.441,0.000318383,0.0478964,21.0184,498.942,-0.159232,0.0,0.0
7614,1903.25,35.5175,36.8657,143.29,111.401,113.62,0.000247769,0.0478969,21.0189,498.962,-0.175379,0.0,0.0
7632,1907.75,35.5641,36.7924,141.867,111.369,112.662,0.000219913,0.0481274,21.019,498.962,-0.102695,0.0,0.0
7650,1912.25,35.5513,36.8858,136.402,111.36,113.102,0.000562355,0.0479447,21.0183,498.972,-0.138017,0.0,0.0
7668,1916.75,35.4213,37.0061,135.151,111.335,113.507,0.000409601,0.047867,21.0182,498.952,-0.171795,0.0,0.0
7686,1921.25,35.0433,36.7257,137.625,111.324,113.379,0.000189525,0.0478911,21.0174,498.952,-0.162701,0.0,0.0
7704,1925.75,34.212,34.7872,135.736,111.308,113.123,0.000566171,0.0478808,21.0167,498.972,-0.143821,0.0,0.0
7722,1930.25,33.5335,35.1218,140.636,111.307,113.427,0.000669112,0.0478147,21.0158,498.982,-0.167792,0.0,0.0
7740,1934.75,33.7955,34.7439,135.274,111.295,113.086,0.000396653,0.0478779,21.0153,498.922,-0.141991,0.0,0.0
7758,1939.25,33.7988,35.0678,138.378,111.283,113.027,0.000528057,0.0477295,21.0165,498.972,-0.138336,0.0,0.0
7776,1943.75,33.6414,35.1754,139.476,111.299,113.302,0.000544216,0.0477004,21.0173,498.952,-0.158636,0.0,0.0
7794,1948.25,34.1359,35.5018,141.34,111.285,112.574,0.000729192,0.0477615,21.0175,498.952,-0.102418,0.0,0.0
7812,1952.75,33.7083,35.4505,140.126,111.315,112.734,0.000420711,0.047943,21.015,498.952,-0.112662,0.0,0.0
7830,1957.25,34.0466,34.5876,140.762,111.303,112.602,0.000274597,0.0477556,21.0178,498.952,-0.103175,0.0,0.0
7848,1961.75,34.1285,35.74,136.942,111.321,113.047,0.000280881,0.0478195,21.0193,498.952,-0.136815,0.0,0.0
7866,1966.25,33.5662,34.8521,139.655,111.337,112.912,0.000523243,0.0476681,21.0196,498.952,-0.124868,0.0,0.0
7884,1970.75,33.8691,35.1093,137.735,111.376,113.014,0.000134417,0.0478303,21.0196,498.972,-0.129835,0.0,0.0
7902,1975.25,33.2176,35.3213,141.731,111.395,113.473,6.43943e-05,0.047678,21.0196,498.962,-0.16431,0.0,0.0
7920,1979.75,34.0429,35.3657,138.48,111.417,113.132,0.000280828,0.0476398,21.0182,498.992,-0.135846,0.0,0.0
7938,1984.25,33.7655,35.2623,138.446,111.45,113.278,0.00029543,0.0475405,21.0174,498.952,-0.144625,0.0,0.0
7956,1988.75,34.0979,35.3816,140.668,111.467,113.126,0.000519651,0.0476542,21.0173,498.962,-0.131349,0.0,0.0
7974,1993.25,34.062,34.8725,140.933,111.489,113.146,0.000395435,0.0476299,21.0179,498.932,-0.131251,0.0,0.0
7992,1997.75,34.2796,34.8504,137.003,111.505,113.599,0.000566812,0.0475542,21.0181,498.932,-0.165467,0.0,0.0
8010,2002.25,33.9008,34.6201,135.176,111.546,113.113,0.000628004,0.0475743,21.0186,498.972,-0.124098,0.0,0.0
8028,2006.75,34.2442,35.45,140.672,111.547,113.092,0.000223761,0.0475017,21.0188,498.952,-0.122271,0.0,0.0
8046,2011.25,33.6974,35.7406,137.583,111.573,113.632,0.000407276,0.0475962,21.0188,498.962,-0.162589,0.0,0.0
8064,2015.75,33.6581,34.7683,138.089,111.593,113.27,0.000332876,0.0475453,21.0188,498.952,-0.132673,0.0,0.0
8082,2020.25,33.9769,34.7172,138.43,111.603,113.69,0.000370387,0.0475609,21.0188,498.942,-0.164813,0.0,0.0
8100,2024.75,34.3996,35.1754,138.702,111.608,112.944,0.000592183,0.0476136,21.0183,498.952,-0.105756,0.0,0.0
8118,2029.25,33.7463,34.912,140.134,111.63,113.835,0.000430102,0.047642,21.018,498.952,-0.173967,0.0,0.0
8136,2033.75,33.6217,34.7904,139.854,111.654,113.818,,,,498.952,-0.170666,0.0,0.0
8154,2038.25,34.1913,35.2172,135.042,111.69,113.374,,,,498.952,-0.133079,0.0,0.0
8167,2041.5,33.6571,35.1284,138.802,111.718,113.614,,,,498.942,-0.149678,0.0,0.0