File: 01_Data/Fiberglass_Insulation_R30/Cone/R30_Fiberglass_Insulation_Cone_HF75Scan_220503_R3.csv
Names,Time,Stack TC,Smoke TC,Exh Press,Smoke Comp,Smoke Meas,CO Meter,CO2 Meter,O2 Meter,Sample Mass,Ext Coeff,Start Test,Flame Verif
Chan Gain,,500,500,1,1,1,1,1,1,1,1,1.0,1.0
Offset,,0,0,0.135741,0,0,0,0,0,0,0,0.0,0.0
Gain,,1,1,25.011,14.8585,16.6522,1,1,1,1.00087,1.0138,1.0,1.0
Units,sec,C,C,Pa,%,%,%,%,%,g,/m,,
Baseline,,45.6288,47.2011,132.334,112.264,118.192,0.000418569,0.0481087,21.0109,-4.3732,-0.457478,,
7,1.5,43.2253,44.6498,133.442,112.074,118.333,0.00106744,0.0566059,21.0014,497.591,-0.483297,0.0,0.0
14,3.25,43.2731,44.4952,130.918,112.099,117.926,0.00167996,0.0578132,20.999,497.571,-0.450637,0.0,0.0
21,5,43.6457,45.4579,130.406,112.101,119.149,0.00235751,0.0594687,20.9959,497.471,-0.542225,0.0,0.0
28,6.75,43.719,44.8514,133.274,112.098,118.609,0.0028629,0.0609254,20.9944,497.451,-0.502102,0.0,0.0
35,8.5,44.2269,45.2608,133.114,112.09,117.736,0.00322694,0.0618777,20.9936,497.451,-0.437012,0.0,0.0
42,10.25,44.2941,45.2416,131.739,112.076,117.288,0.00351953,0.0625116,20.9921,497.411,-0.40417,0.0,0.0
49,12,43.9672,45.7892,127.476,112.106,118.037,0.00386394,0.0630349,20.9913,497.381,-0.458486,0.0,0.0
56,13.75,44.469,45.7003,128.178,112.095,118.366,0.00416279,0.0634542,20.9909,497.361,-0.484088,0.0,0.0
63,15.5,44.8605,46.4064,128.166,112.092,118.561,0.00446417,0.063982,20.9896,497.361,-0.498913,0.0,0.0
70,17.25,44.8134,45.7442,132.288,112.107,118.122,0.00469056,0.0643929,20.9877,497.331,-0.464769,0.0,0.0
77,19,44.8772,46.2107,129.405,112.109,118.975,0.00483246,0.0650959,20.9868,497.291,-0.528594,0.0,0.0
84,20.75,44.864,46.4872,127.1,112.108,118.548,0.00483252,0.0659367,20.9867,497.311,-0.496702,0.0,0.0
91,22.5,45.3629,46.5236,130.474,112.111,118.672,0.00472501,0.0664949,20.987,497.321,-0.505746,0.0,0.0
98,24.25,44.8777,47.052,132.328,112.115,117.427,0.00465123,0.06671,20.9871,497.301,-0.411739,0.0,0.0
105,26,45.5131,46.7197,128.548,112.116,118.111,0.00447266,0.0669022,20.9872,497.331,-0.463208,0.0,0.0
112,27.75,45.9263,46.9587,132.513,112.153,118.431,0.00411012,0.0667241,20.9879,497.311,-0.48433,0.0,0.0
119,29.5,45.8971,47.2013,129.996,112.135,118.351,0.00355765,0.0654667,20.9906,497.321,-0.479778,0.0,0.0
126,31.25,46.4244,47.9433,129.83,112.135,117.019,0.00309787,0.0636238,20.9936,497.341,-0.379162,0.0,0.0
133,33,45.8965,47.4204,131.795,112.135,118.781,0.00273104,0.0616665,20.9951,497.351,-0.512022,0.0,0.0
140,34.75,45.7906,47.4972,129.174,112.164,118.516,0.00234504,0.0600002,20.9958,497.361,-0.489915,0.0,0.0
147,36.5,45.9612,47.5963,132.622,112.159,117.65,0.00196018,0.0584506,20.998,497.361,-0.425093,0.0,0.0
154,38.25,45.5062,47.0467,133.291,112.161,119.232,0.00173039,0.0570121,20.9997,497.361,-0.543697,0.0,0.0
161,40,45.5975,47.3623,132.727,112.168,119.571,0.00160766,0.0555774,21.0012,497.371,-0.568401,0.0,0.0
168,41.75,46.0459,47.6972,129.561,112.19,118.769,0.00152651,0.05436,21.0036,497.361,-0.506835,0.0,0.0
175,43.5,46.4805,47.3878,132.449,112.192,119.014,0.00146255,0.0532757,21.0047,497.381,-0.524902,0.0,0.0
182,45.25,46.027,48.1696,130.087,112.199,118.088,0.00136819,0.0526249,21.0049,497.381,-0.454907,0.0,0.0
189,47,46.3243,47.8937,126.662,112.203,117.848,0.001218,0.0518174,21.0055,497.361,-0.436499,0.0,0.0
196,48.75,46.2436,47.9674,131.636,112.217,117.821,0.00108283,0.0510986,21.0065,497.341,-0.433315,0.0,0.0
203,50.5,46.2017,47.7194,130.702,112.25,118.664,0.000978262,0.0506199,21.007,497.371,-0.494175,0.0,0.0
210,52.25,46.1918,48.1724,130.077,112.241,118.833,0.00096102,0.0501626,21.0072,497.361,-0.507529,0.0,0.0
217,54,46.1796,48.0979,132.241,112.246,117.697,0.000985146,0.049983,21.0073,497.361,-0.421688,0.0,0.0
224,55.75,46.5832,47.6344,129.923,112.265,118.158,0.000998873,0.049898,21.0074,497.361,-0.454974,0.0,0.0
231,57.5,46.2403,47.9583,133.296,112.283,118.738,0.00101185,0.0496281,21.0074,497.351,-0.497112,0.0,0.0
238,59.25,46.4742,48.2913,131.49,112.3,118.97,0.00100558,0.0494137,21.0074,497.361,-0.513086,0.0,0.0
245,61,46.4418,47.4857,130.199,112.311,118.812,0.00100476,0.0492712,21.0074,497.341,-0.500403,0.0,0.0
252,62.75,46.0176,48.095,128.899,112.321,118.978,0.000952755,0.0492464,21.0074,497.341,-0.512078,0.0,0.0
259,64.5,46.2711,47.8049,128.299,112.343,118.273,0.000810995,0.049265,21.0074,497.361,-0.457477,0.0,0.0
266,66.25,45.7783,47.7922,129.859,112.369,118.157,0.000701874,0.0492123,21.0074,497.341,-0.446604,0.0,0.0
273,68,46.5035,48.2939,129.189,112.391,118.959,0.000714156,0.0491365,21.008,497.341,-0.50507,0.0,0.0
280,69.75,46.2504,47.998,133.227,112.397,118.086,0.00074673,0.0490369,21.0084,497.351,-0.4391,0.0,0.0
287,71.5,46.1801,47.9278,131.686,112.405,118.517,0.000695088,0.0488484,21.0086,497.331,-0.47092,0.0,0.0
294,73.25,46.2621,47.8806,129.297,112.44,117.794,0.000563574,0.0488854,21.0087,497.331,-0.413656,0.0,0.0
301,75,46.8369,47.5362,128.903,112.449,117.951,0.000434025,0.0487313,21.0087,497.331,-0.424825,0.0,0.0
308,76.75,46.2498,48.2495,129.928,112.456,119.372,0.000390561,0.048537,21.0087,497.331,-0.530775,0.0,0.0
315,78.5,46.2976,48.2425,130.372,112.5,117.69,0.000392775,0.0484946,21.0087,497.331,-0.40102,0.0,0.0
322,80.25,46.4965,47.8521,131.324,112.504,120.497,0.00042942,0.0485287,21.0087,497.331,-0.610402,0.0,0.0
329,82,46.301,47.8527,129.292,112.524,117.968,0.000451765,0.0485232,21.0087,497.351,-0.4201,0.0,0.0
336,83.75,46.7434,48.4147,131.303,112.537,118.978,0.00043577,0.0484024,21.0087,497.351,-0.494969,0.0,0.0
343,85.5,46.519,48.0468,133.343,112.536,118.903,0.000430566,0.0482457,21.0087,497.331,-0.48938,0.0,0.0
350,87.25,46.6313,48.5492,133.483,112.564,119.089,0.000459755,0.0483117,21.0087,497.321,-0.501094,0.0,0.0
357,89,46.5321,48.3105,129.121,112.588,119.214,0.000495973,0.0483086,21.0087,497.311,-0.508527,0.0,0.0
364,90.75,46.7194,48.1357,131.339,112.579,119.353,0.000562861,0.0483507,21.0087,497.311,-0.519626,0.0,0.0
371,92.5,46.7156,48.2744,132.038,112.616,118.259,0.000651158,0.0483057,21.0087,497.341,-0.434752,0.0,0.0
378,94.25,45.8831,48.4564,130.635,112.625,117.916,0.000750937,0.0482123,21.0087,497.321,-0.408275,0.0,0.0
385,96,46.0127,48.4019,130.006,112.635,118.255,0.000817716,0.0481814,21.0087,497.311,-0.432979,0.0,0.0
392,97.75,46.6431,48.2331,126.771,112.652,119.753,0.000810585,0.0481905,21.0087,497.331,-0.543611,0.0,0.0
399,99.5,46.1999,48.4179,131.012,112.655,119.99,0.000710581,0.0481452,21.0092,497.331,-0.560929,0.0,0.0
406,101.25,46.6636,48.3708,137.418,112.674,119.448,0.000604694,0.048064,21.0102,497.331,-0.519257,0.0,0.0
413,103,46.9966,48.3311,128.117,112.694,119.039,0.000520545,0.0481481,21.0106,497.301,-0.487137,0.0,0.0
420,104.75,46.1587,48.1009,127.937,112.717,119.705,0.000432975,0.0482642,21.0108,497.321,-0.534943,0.0,0.0
427,106.5,46.6079,48.2217,134.7,112.723,119.746,0.000339229,0.0482806,21.011,497.301,-0.537427,0.0,0.0
434,108.25,46.4506,48.5274,129.19,112.729,118.836,0.000233132,0.0483159,21.0106,497.291,-0.469109,0.0,0.0
441,110,46.3446,48.5195,132.307,112.753,118.571,0.000203096,0.0482415,21.0094,497.321,-0.447488,0.0,0.0
448,111.75,46.4424,48.3131,127.853,112.778,119.024,0.000204872,0.0482172,21.0086,497.321,-0.479381,0.0,0.0
455,113.5,46.2531,47.9296,131.651,112.772,120.323,0.000181749,0.048176,21.0093,497.301,-0.576405,0.0,0.0
462,115.25,46.6456,48.1303,134.778,112.803,118.705,0.000134933,0.0482612,21.0105,497.321,-0.45354,0.0,0.0
469,117,46.4491,48.1982,132.09,112.811,118.578,0.000128157,0.048189,21.0112,497.311,-0.443336,0.0,0.0
476,118.75,46.7844,48.84,132.095,112.828,119.081,0.000196792,0.0481133,21.0114,497.311,-0.479664,0.0,0.0
483,120.5,46.507,48.4043,130.247,112.838,119.975,0.000260972,0.0480301,21.0116,497.331,-0.545459,0.0,0.0
490,122.25,47.1385,48.3674,132.157,112.839,119.372,0.000363591,0.0480031,21.0117,497.331,-0.500525,0.0,0.0
497,124,46.9528,47.8733,127.475,112.838,118.518,0.000534409,0.0481047,21.0117,497.311,-0.436802,0.0,0.0
504,125.75,46.6873,48.2031,131.905,112.855,119.462,0.000617744,0.0481894,21.0125,497.291,-0.5059,0.0,0.0
511,127.5,46.7377,48.7742,132.67,112.852,118.997,0.000545682,0.0480526,21.0121,497.321,-0.471542,0.0,0.0
518,129.25,46.5931,48.6535,130.939,112.858,119.004,0.000393947,0.0479646,21.013,497.311,-0.471573,0.0,0.0
525,131,47.2098,48.1628,132.466,112.864,118.904,0.000401212,0.0480228,21.0128,497.301,-0.463587,0.0,0.0
532,132.75,46.8139,48.1145,130.177,112.875,118.793,0.00052334,0.0480198,21.0127,497.291,-0.454442,0.0,0.0
539,134.5,46.9295,48.4524,130.173,112.892,119.279,0.000673271,0.0480298,21.0126,497.271,-0.489416,0.0,0.0
546,136.25,46.5838,48.3728,130.284,112.917,119.279,0.00069213,0.0480768,21.0126,497.271,-0.487448,0.0,0.0
553,138,46.7683,48.8063,130.529,112.904,119.233,0.000545232,0.0479779,21.0125,497.251,-0.485002,0.0,0.0
560,139.75,46.922,48.0206,129.304,112.929,119.366,0.000371868,0.0479488,21.0124,497.271,-0.492925,0.0,0.0
567,141.5,46.8783,48.7974,132.847,112.946,120.47,0.000210179,0.0480235,21.0124,497.251,-0.573536,0.0,0.0
574,143.25,47.0757,48.7809,132.533,112.973,118.674,0.000162924,0.0481464,21.0124,497.281,-0.437857,0.0,0.0
581,145,46.4602,48.4837,135.805,112.966,120.206,0.00017609,0.0481613,21.0124,497.291,-0.552434,0.0,0.0
588,146.75,46.8419,48.6275,134.091,112.98,119.718,0.000150318,0.0482033,21.0124,497.311,-0.5152,0.0,0.0
595,148.5,46.6628,47.9189,131.324,113.011,118.695,0.000127579,0.0482506,21.0124,497.301,-0.436419,0.0,0.0
602,150.25,46.5436,48.5211,131.67,113.038,119.668,0.000179738,0.0482602,21.0124,497.291,-0.506932,0.0,0.0
609,152,46.4241,48.59,132.121,113.064,119.266,0.00024498,0.0483541,21.0124,497.291,-0.474903,0.0,0.0
616,153.75,46.8058,48.5188,130.159,113.074,118.63,0.000264001,0.0484238,21.0124,497.281,-0.426549,0.0,0.0
623,155.5,47.1349,47.8771,126.046,113.107,119.329,0.000247877,0.0484276,21.0124,497.311,-0.476286,0.0,0.0
630,157.25,46.787,48.6158,131.061,113.113,120.095,0.000206897,0.0483424,21.0124,497.281,-0.53264,0.0,0.0
637,159,46.8916,48.2528,134.704,113.129,120.243,0.000168113,0.0482522,21.0124,497.291,-0.542301,0.0,0.0
644,160.75,46.5924,48.4896,134.156,113.14,119.471,0.00030174,0.0481619,21.012,497.271,-0.484206,0.0,0.0
651,162.5,46.7071,49.027,131.342,113.172,119.812,0.000522303,0.0480467,21.0119,497.321,-0.507024,0.0,0.0
658,164.25,46.7826,48.7835,132.263,113.187,120.476,0.000602338,0.0480833,21.0118,497.321,-0.555047,0.0,0.0
665,166,46.7863,48.8732,128.394,113.21,119.164,0.000535993,0.0480435,21.0117,497.301,-0.455771,0.0,0.0
672,167.75,46.8382,48.2232,129.103,113.211,119.743,0.000431848,0.0481847,21.0117,497.271,-0.498827,0.0,0.0
679,169.5,46.4365,48.9245,130.122,113.22,120.002,0.000421712,0.0482019,21.0117,497.271,-0.517415,0.0,0.0
686,171.25,46.831,48.2516,131.089,113.237,119.967,0.000475047,0.047991,21.0117,497.261,-0.513389,0.0,0.0
693,173,47.1822,48.4245,130.231,113.251,119.02,0.000490444,0.047876,21.0117,497.271,-0.441788,0.0,0.0
700,174.75,46.9185,48.6165,132.058,113.268,119.067,0.000510257,0.0477808,21.0117,497.261,-0.444001,0.0,0.0
707,176.5,46.7267,48.192,132.856,113.264,119.462,0.000567529,0.047862,21.0117,497.271,-0.473803,0.0,0.0
714,178.25,46.4244,48.5147,132.733,113.276,119.6,0.00054657,0.048003,21.0117,497.301,-0.48316,0.0,0.0
721,180,46.8294,48.842,126.774,113.297,120.942,0.000487217,0.0480341,21.0117,497.281,-0.580726,0.0,0.0
728,181.75,46.3335,48.9862,129.116,113.302,119.802,0.00043915,0.048043,21.0117,497.271,-0.49612,0.0,0.0
735,183.5,46.5659,48.2955,128.954,113.311,119.197,0.000428307,0.0480852,21.0124,497.271,-0.450405,0.0,0.0
742,185.25,46.5582,48.9628,132.872,113.31,119.085,0.000473142,0.0480496,21.0129,497.261,-0.442057,0.0,0.0
749,187,46.6326,49.0385,131.968,113.327,120.322,0.000550129,0.0480073,21.0143,497.271,-0.532672,0.0,0.0
756,188.75,46.9781,48.6984,134.198,113.345,119.521,0.000609085,0.0479317,21.0142,497.261,-0.471781,0.0,0.0
763,190.5,46.5628,48.6708,130.619,113.376,119.011,0.000656678,0.04778,21.0137,497.241,-0.431321,0.0,0.0
770,192.25,46.6053,48.9966,130.417,113.361,119.482,0.000662873,0.0477483,21.0134,497.271,-0.467627,0.0,0.0
777,194,46.6985,49.3104,130.524,113.364,118.847,0.000608148,0.0478331,21.0129,497.251,-0.420045,0.0,0.0
784,195.75,46.8822,48.8028,131.925,113.373,119.756,0.000550584,0.04788,21.0127,497.261,-0.487101,0.0,0.0
791,197.5,46.804,48.5778,129.335,113.396,120.206,0.00056749,0.0477807,21.0126,497.271,-0.518587,0.0,0.0
798,199.25,46.558,49.2948,134.795,113.403,118.503,0.000596867,0.0478074,21.0125,497.271,-0.391166,0.0,0.0
805,201,46.6135,49.4096,130.13,113.409,119.089,0.000589626,0.047766,21.0114,497.301,-0.434641,0.0,0.0
812,202.75,46.8844,48.504,133.579,113.402,119.819,0.000662856,0.0478135,21.0109,497.291,-0.489503,0.0,0.0
819,204.5,47.1935,49.3702,132.585,113.419,120.236,0.000749578,0.0478027,21.0114,497.281,-0.5191,0.0,0.0
826,206.25,47.2475,49.1705,133.925,113.43,119.803,0.000706178,0.0478783,21.0119,497.301,-0.486129,0.0,0.0
833,208,47.0528,48.9124,133.028,113.431,119.097,0.000584176,0.0478934,21.0119,497.281,-0.433468,0.0,0.0
840,209.75,46.7015,48.8493,132.569,113.441,120.086,0.000465852,0.0478105,21.012,497.281,-0.506225,0.0,0.0
847,211.5,47.0414,48.6992,128.743,113.447,119.411,0.000421718,0.0478458,21.012,497.271,-0.455644,0.0,0.0
854,213.25,47.331,48.9217,130.758,113.449,119.592,0.000411384,0.0479019,21.012,497.291,-0.468965,0.0,0.0
861,215,47.0831,49.0272,130.774,113.45,119.111,0.000371038,0.0479815,21.012,497.271,-0.433041,0.0,0.0
868,216.75,47.0049,49.0068,130.177,113.455,120.66,0.000383355,0.047979,21.012,497.281,-0.547513,0.0,0.0
875,218.5,47.207,48.875,133.511,113.451,120.16,0.000469854,0.0479302,21.012,497.251,-0.510938,0.0,0.0
882,220.25,47.3455,49.0208,132.515,113.472,119.453,0.000582144,0.0479471,21.0108,497.251,-0.456795,0.0,0.0
889,222,47.0105,48.7841,130.351,113.455,119.739,0.000651587,0.0481286,21.0102,497.261,-0.479382,0.0,0.0
896,223.75,46.9614,48.8998,129.871,113.468,119.304,0.000655013,0.0482286,21.0106,497.261,-0.446023,0.0,0.0
903,225.5,46.8772,49.1123,132.535,113.47,119.27,0.000598743,0.0482508,21.0113,497.271,-0.443306,0.0,0.0
910,227.25,46.8419,48.727,134.66,113.481,118.736,0.000544956,0.0481288,21.0117,497.261,-0.402541,0.0,0.0
917,229,47.6019,49.1864,129.829,113.476,120.266,0.000576071,0.0480596,21.0126,497.291,-0.516801,0.0,0.0
924,230.75,47.2896,48.7411,131.344,113.468,120.561,0.000673734,0.0480158,21.0135,497.261,-0.539246,0.0,0.0
931,232.5,46.6621,49.4536,129.866,113.484,118.91,0.000747815,0.0479425,21.0139,497.261,-0.415373,0.0,0.0
938,234.25,47.3227,48.7073,131.667,113.499,119.223,0.000676809,0.0479033,21.0151,497.271,-0.437508,0.0,0.0
945,236,47.2974,48.7326,128.461,113.485,119.135,0.000519373,0.0479317,21.0154,497.281,-0.432049,0.0,0.0
952,237.75,46.5164,48.4955,130.326,113.479,120.85,0.000356408,0.0478807,21.0145,497.271,-0.559663,0.0,0.0
959,239.5,47.3455,48.8859,132.498,113.474,119.46,0.000298297,0.0478812,21.014,497.271,-0.457109,0.0,0.0
966,241.25,46.9738,48.4923,129.513,113.485,119.275,0.000301304,0.0478604,21.0137,497.261,-0.442475,0.0,0.0
973,243,47.5736,49.1003,127.761,113.487,118.647,0.000356162,0.0477947,21.0136,497.281,-0.395415,0.0,0.0
980,244.75,46.8631,48.3506,133.737,113.506,119.572,0.000446947,0.0478024,21.0135,497.261,-0.463052,0.0,0.0
987,246.5,47.0667,48.6564,129.437,113.485,121.056,0.000486943,0.047925,21.0128,497.241,-0.574297,0.0,0.0
994,248.25,46.8681,48.9401,131.227,113.473,120.289,0.000423626,0.0479052,21.0124,497.261,-0.518815,0.0,0.0
1001,250,47.0208,48.4858,129.986,113.478,120.683,0.000329435,0.0478299,21.0122,497.281,-0.547459,0.0,0.0
1008,251.75,46.842,48.5106,133.095,113.48,119.234,0.000262433,0.0478341,21.0135,497.261,-0.439835,0.0,0.0
1015,253.5,47.3871,48.7227,131.715,113.475,118.557,0.000304712,0.0478505,21.0143,497.251,-0.389556,0.0,0.0
1022,255.25,46.6321,49.1138,132.308,113.474,118.838,0.000371525,0.0478944,21.0146,497.261,-0.410683,0.0,0.0
1029,257,46.8268,48.4316,133.085,113.468,119.43,0.000376209,0.0478273,21.0148,497.251,-0.455338,0.0,0.0
1036,258.75,47.3544,48.8266,133.922,113.487,120,0.000300644,0.0478543,21.0149,497.241,-0.496276,0.0,0.0
1043,260.5,46.8716,48.816,130.781,113.481,120.002,0.000283972,0.0478956,21.0149,497.261,-0.496924,0.0,0.0
1050,262.25,47.2831,48.7925,130.663,113.466,120.307,0.000327192,0.0478278,21.015,497.261,-0.520628,0.0,0.0
1057,264,46.8809,49.1116,127.072,113.47,119.849,0.000375016,0.0480243,21.015,497.261,-0.486396,0.0,0.0
1064,265.75,47.2918,48.9687,129.885,113.476,119.844,0.000402664,0.0481402,21.015,497.281,-0.485595,0.0,0.0
1071,267.5,47.4055,49.4944,130.154,113.466,119.23,0.000426015,0.0479629,21.015,497.251,-0.44067,0.0,0.0
1078,269.25,46.9926,49.1342,130.496,113.47,119.728,0.000385725,0.0479192,21.015,497.261,-0.477455,0.0,0.0
1085,271,47.079,48.5856,125.486,113.469,120.726,0.000299383,0.0478753,21.015,497.251,-0.551351,0.0,0.0
1092,272.75,47.3085,48.5538,128.733,113.46,118.417,0.000214624,0.0477987,21.015,497.251,-0.380276,0.0,0.0
1099,274.5,47.4172,48.7498,128.781,113.475,119.385,0.000166719,0.0478583,21.0148,497.241,-0.45151,0.0,0.0
1106,276.25,47.1239,49.1554,127.501,113.468,119.615,0.000146753,0.0478892,21.0144,497.241,-0.46914,0.0,0.0
1113,278,47.0817,49.1399,128.381,113.458,120.077,0.000142386,0.0479476,21.0139,497.251,-0.504271,0.0,0.0
1120,279.75,46.7544,49.1098,131.073,113.466,119.629,0.000138606,0.0480034,21.0127,497.241,-0.470375,0.0,0.0
1127,281.5,47.0566,48.9695,130.303,113.454,120.443,0.000129892,0.0479818,21.0122,497.251,-0.531576,0.0,0.0
1134,283.25,47.5111,49.3908,131.967,113.458,120.15,0.0001862,0.0479315,21.0119,497.251,-0.509651,0.0,0.0
1141,285,47.0576,49.3442,129.655,113.456,119.42,0.000316099,0.0479218,21.0118,497.271,-0.45558,0.0,0.0
1148,286.75,47.7707,49.1875,130.183,113.445,119.653,0.000526833,0.0479461,21.0117,497.261,-0.473821,0.0,0.0
1155,288.5,47.2008,49.1669,129.575,113.438,119.41,0.000719095,0.0479665,21.0117,497.261,-0.456244,0.0,0.0
1162,290.25,47.1633,48.953,130.329,113.444,118.304,0.000712428,0.0479592,21.0117,497.271,-0.373043,0.0,0.0
1169,292,47.2731,49.1324,129.072,113.43,119.588,0.000511997,0.0480834,21.0117,497.271,-0.470158,0.0,0.0
1176,293.75,47.7812,48.7916,129.693,113.425,120.469,0.000292467,0.0481402,21.0117,497.271,-0.535802,0.0,0.0
1183,295.5,47.392,49.3668,125.418,113.417,120.547,0.000231422,0.0481451,21.0117,497.241,-0.542178,0.0,0.0
1190,297.25,47.1445,49.3464,131.999,113.433,120.872,0.000242129,0.0482348,21.0117,497.261,-0.564895,0.0,0.0
1197,299,47.295,49.3086,130.635,113.42,121.196,0.000251079,0.0481525,21.0131,497.251,-0.58964,0.0,0.0
1204,300.75,47.8119,49.153,128.829,113.392,120.145,0.000220935,0.0481212,21.0134,497.241,-0.51443,0.0,0.0
1211,302.5,47.8118,49.6748,131.533,113.396,119.572,0.000185123,0.0480205,21.0136,497.251,-0.471615,0.0,0.0
1218,304.25,47.4874,49.33,130.354,113.39,119.691,0.000206691,0.0480353,21.0137,497.281,-0.480953,0.0,0.0
1225,306,47.6754,49.6646,130.499,113.396,118.981,0.000219736,0.0480614,21.0131,497.271,-0.42755,0.0,0.0
1232,307.75,46.8629,49.1959,127.903,113.379,119.987,0.000170403,0.0481234,21.0132,497.241,-0.503793,0.0,0.0
1239,309.5,47.8056,49.5396,128.57,113.379,120.03,0.000100652,0.048102,21.0133,497.241,-0.506956,0.0,0.0
1246,311.25,47.3671,49.0319,132.695,113.371,119.515,6.39776e-05,0.0480687,21.0128,497.261,-0.469373,0.0,0.0
1253,313,46.9457,49.3332,133.884,113.376,119.983,0.000101444,0.0480861,21.0125,497.271,-0.50374,0.0,0.0
1260,314.75,47.6579,49.3773,128.978,113.368,120.065,0.000227186,0.0480928,21.0135,497.271,-0.510407,0.0,0.0
1267,316.5,47.5043,49.7723,127.611,113.349,119.322,0.000290921,0.0481097,21.0141,497.281,-0.456737,0.0,0.0
1274,318.25,47.6995,49.2943,131.945,113.329,119.159,0.000307774,0.0481489,21.0144,497.251,-0.446137,0.0,0.0
1281,320,47.7735,49.0257,130.686,113.347,119.521,0.00032239,0.0480996,21.0145,497.251,-0.471675,0.0,0.0
1288,321.75,47.4493,49.4091,135.851,113.343,119.617,0.00039562,0.0480565,21.0142,497.261,-0.479103,0.0,0.0
1295,323.5,47.7537,49.1067,129.172,113.337,120.497,0.000500763,0.0480315,21.0133,497.251,-0.544836,0.0,0.0
1302,325.25,47.3895,49.9038,131.798,113.308,119.674,0.000576999,0.0480435,21.0123,497.261,-0.486073,0.0,0.0
1309,327,47.4987,49.7017,131.664,113.299,119.173,0.00057141,0.0481637,21.0118,497.231,-0.449548,0.0,0.0
1316,328.75,47.5747,49.1059,128.47,113.31,119.449,0.000496983,0.0481293,21.0118,497.241,-0.469188,0.0,0.0
1323,330.5,47.2761,48.9544,133.229,113.294,119.399,0.000499736,0.0482024,21.0127,497.251,-0.466725,0.0,0.0
1330,332.25,47.7169,49.07,128.665,113.284,120.139,0.000590336,0.0483299,21.0128,497.221,-0.52241,0.0,0.0
1337,334,47.9281,49.2811,131.745,113.277,119.097,0.000634497,0.0483,21.012,497.231,-0.445564,0.0,0.0
1344,335.75,47.5428,49.6953,128.752,113.274,119.805,0.000652371,0.0483363,21.0106,497.221,-0.498518,0.0,0.0
1351,337.5,47.3651,49.7031,128.154,113.262,118.815,0.0006605,0.0484321,21.0098,497.241,-0.425692,0.0,0.0
1358,339.25,47.022,49.7759,132.247,113.255,118.935,0.000618063,0.0485493,21.0094,497.251,-0.435198,0.0,0.0
1365,341,47.6345,49.2057,131.55,113.246,119.702,0.000514095,0.0485171,21.0092,497.241,-0.493103,0.0,0.0
1372,342.75,47.7033,49.7888,130.957,113.242,118.978,0.000443065,0.0484195,21.0091,497.231,-0.439422,0.0,0.0
1379,344.5,47.867,49.3742,134.017,113.232,118.729,0.000433923,0.048378,21.0095,497.221,-0.421573,0.0,0.0
1386,346.25,47.7276,49.3208,130.704,113.21,119.441,0.000418704,0.0485106,21.0104,497.231,-0.476454,0.0,0.0
1393,348,47.4474,49.4206,130.895,113.205,118.812,0.000360356,0.0485153,21.0109,497.231,-0.42995,0.0,0.0
1400,349.75,47.904,49.8588,130.929,113.19,120.719,0.000276234,0.0484632,21.0111,497.231,-0.572673,0.0,0.0
1407,351.5,47.3154,49.3689,131.019,113.184,118.734,0.000237877,0.0484088,21.0124,497.231,-0.425694,0.0,0.0
1414,353.25,47.438,49.5448,132.447,113.164,119.249,0.000222873,0.048355,21.0131,497.231,-0.465771,0.0,0.0
1421,355,47.1599,49.2625,128.992,113.14,118.529,0.000198614,0.0483113,21.0129,497.241,-0.41376,0.0,0.0
1428,356.75,47.536,49.524,128.943,113.135,118.861,0.000235286,0.0482903,21.0121,497.241,-0.439091,0.0,0.0
1435,358.5,47.5744,49.4734,132.623,113.115,119.028,0.000305529,0.0482731,21.0117,497.271,-0.453122,0.0,0.0
1442,360.25,47.3655,49.2513,128.952,113.096,119.34,0.000317198,0.048284,21.0115,497.231,-0.477901,0.0,0.0
1449,362,47.3045,49.149,130.151,113.085,119.356,0.000338053,0.0483707,21.0114,497.241,-0.479966,0.0,0.0
1456,363.75,47.4766,49.3046,131.773,113.069,118.331,0.000402543,0.0484189,21.0114,497.231,-0.404515,0.0,0.0
1463,365.5,47.8031,49.7491,137.537,113.067,120.173,0.000451734,0.0483871,21.0113,497.251,-0.542071,0.0,0.0
1470,367.25,47.2678,49.4,133.23,113.052,119.585,0.000417692,0.0483722,21.0111,497.261,-0.49963,0.0,0.0
1477,369,47.6406,49.0295,131.013,113.04,120.092,0.000287487,0.0482321,21.01,497.221,-0.538156,0.0,0.0
1484,370.75,47.3328,49.6369,129.51,113.015,118.411,0.000179996,0.0483133,21.0095,497.221,-0.414826,0.0,0.0
1491,372.5,47.2107,49.3519,130.964,112.996,119.447,0.000177096,0.0484419,21.0092,497.231,-0.493734,0.0,0.0
1498,374.25,47.8164,49.4587,131.53,112.997,119.713,0.000270718,0.0484448,21.0091,497.241,-0.513465,0.0,0.0
1505,376,47.2403,49.2629,129.513,112.987,118.551,0.000407189,0.0484726,21.0086,497.251,-0.42753,0.0,0.0
1512,377.75,47.4903,49.4903,129.104,112.961,119.928,0.000516934,0.0485152,21.0076,497.231,-0.532202,0.0,0.0
1519,379.5,47.613,49.4541,133.068,112.972,119.994,0.000509307,0.0484928,21.0083,497.261,-0.536245,0.0,0.0
1526,381.25,47.6271,49.7038,132.467,112.933,118.851,0.000360501,0.048451,21.0087,497.251,-0.454277,0.0,0.0
1533,383,47.6036,49.0161,132.894,112.936,118.681,0.000193801,0.0483754,21.0088,497.261,-0.441206,0.0,0.0
1540,384.75,47.0858,49.5814,131.759,112.908,119.02,0.000127403,0.0483768,21.0089,497.261,-0.468821,0.0,0.0
1547,386.5,47.8414,49.1722,131.103,112.903,119.453,0.000150667,0.0483593,21.009,497.251,-0.50158,0.0,0.0
1554,388.25,47.5763,49.4099,131.472,112.899,118.734,0.000165011,0.0483901,21.009,497.281,-0.448206,0.0,0.0
1561,390,47.2388,49.7654,131.66,112.901,119.033,0.000167857,0.0483461,21.009,497.241,-0.470306,0.0,0.0
1568,391.75,47.7928,49.4884,126.756,112.889,118.346,0.000230224,0.0482861,21.0096,497.241,-0.419826,0.0,0.0
1575,393.5,47.5097,49.554,135.168,112.884,119.902,0.000352847,0.0483083,21.009,497.231,-0.536387,0.0,0.0
1582,395.25,47.5407,49.4026,129.89,112.867,119.339,0.000401566,0.0483467,21.0095,497.211,-0.49585,0.0,0.0
1589,397,47.1958,49.6914,130.686,112.86,118.651,0.000429763,0.0483449,21.0101,497.231,-0.444997,0.0,0.0
1596,398.75,47.6014,49.7004,129.864,112.863,119.746,0.00050032,0.0484434,21.0104,497.241,-0.526489,0.0,0.0
1603,400.5,47.7223,49.6908,134.726,112.845,119.32,0.000569938,0.0485162,21.0105,497.251,-0.496197,0.0,0.0
1610,402.25,47.9491,49.468,132.117,112.835,119.857,0.000623446,0.0485752,21.0106,497.211,-0.536928,0.0,0.0
1617,404,47.8251,49.5072,131.088,112.853,118.795,0.000637358,0.0485059,21.0102,497.231,-0.456342,0.0,0.0
1624,405.75,47.5582,49.7552,130.19,112.849,118.387,0.000634001,0.0484956,21.0092,497.231,-0.426027,0.0,0.0
1631,407.5,47.8905,49.8809,132.243,112.829,119.128,0.000628547,0.0485738,21.0088,497.251,-0.483158,0.0,0.0
1638,409.25,47.472,49.285,132.731,112.822,117.78,0.000610782,0.0485417,21.0085,497.231,-0.382436,0.0,0.0
1645,411,47.7181,49.442,129.283,112.825,118.542,0.000528028,0.0485748,21.0084,497.241,-0.439592,0.0,0.0
1652,412.75,47.1355,49.6134,130.53,112.826,119.121,0.000434745,0.0486672,21.0084,497.241,-0.482876,0.0,0.0
1659,414.5,47.5574,49.4193,132.502,112.829,118.628,0.000394145,0.048663,21.0083,497.281,-0.445676,0.0,0.0
1666,416.25,47.3833,49.6352,129.171,112.817,118.335,0.000337187,0.0485844,21.0078,497.241,-0.424708,0.0,0.0
1673,418,47.5475,49.3635,129.407,112.8,118.529,0.000247635,0.0486084,21.0076,497.231,-0.440569,0.0,0.0
1680,419.75,47.4887,49.2841,132.789,112.817,119.181,0.000165631,0.0486345,21.0074,497.241,-0.487995,0.0,0.0
1687,421.5,47.7994,48.9463,126.354,112.818,119.551,0.000162861,0.0486318,21.0074,497.201,-0.515486,0.0,0.0
1694,423.25,47.8714,49.2777,131.342,112.824,119.41,0.000259356,0.0485541,21.0074,497.221,-0.504507,0.0,0.0
1701,425,47.4706,49.0316,130.562,112.791,119.46,0.000409355,0.0486458,21.0073,497.241,-0.510789,0.0,0.0
1708,426.75,47.2318,49.0749,130.363,112.801,118.585,0.000524556,0.0486694,21.0063,497.261,-0.444655,0.0,0.0
1715,428.5,47.0498,49.7932,129.311,112.794,119.666,0.0005434,0.0486859,21.0056,497.251,-0.525956,0.0,0.0
1722,430.25,47.9152,49.6536,135.712,112.792,119.367,0.000482576,0.0487709,21.0053,497.261,-0.503865,0.0,0.0
1729,432,47.2657,49.426,132.579,112.775,118.465,0.000387495,0.0488411,21.0052,497.231,-0.437766,0.0,0.0
1736,433.75,47.562,49.4609,129.114,112.753,119.436,0.000292695,0.0488632,21.0051,497.251,-0.512052,0.0,0.0
1743,435.5,47.6983,49.6683,129.92,112.753,119.785,0.000274484,0.0488261,21.0051,497.271,-0.538007,0.0,0.0
1750,437.25,47.4744,49.2031,132.434,112.752,118.113,0.000344666,0.0487865,21.0052,497.231,-0.413113,0.0,0.0
1757,439,47.7649,49.0913,130.105,112.741,119.454,0.000471814,0.048862,21.0061,497.251,-0.514377,0.0,0.0
1764,440.75,47.4615,49.3488,130.174,112.733,118.565,0.000573114,0.0489009,21.0066,497.241,-0.448494,0.0,0.0
1771,442.5,47.8771,49.1501,130.696,112.715,118.384,0.000631966,0.0489765,21.0068,497.231,-0.43642,0.0,0.0
1778,444.25,47.372,49.372,130.921,112.737,118.656,0.000728297,0.0490829,21.0069,497.241,-0.455103,0.0,0.0
1785,446,47.2701,49.7968,130.202,112.699,118.824,0.000853716,0.0491363,21.0069,497.231,-0.47067,0.0,0.0
1792,447.75,47.1768,49.9156,132.491,112.681,117.057,0.00088821,0.0491335,21.007,497.261,-0.338828,0.0,0.0
1799,449.5,47.782,49.1499,131.736,112.674,118.476,0.000863708,0.0490603,21.007,497.231,-0.446509,0.0,0.0
1806,451.25,47.3929,49.1928,131.342,112.661,119.721,0.000790218,0.0491406,21.007,497.221,-0.540479,0.0,0.0
1813,453,47.4493,49.0563,130.022,112.653,118.761,0.000633399,0.0492216,21.007,497.261,-0.469567,0.0,0.0
1820,454.75,47.828,49.2862,131.642,112.642,118.766,0.000492994,0.0493104,21.007,497.231,-0.470807,0.0,0.0
1827,456.5,47.4345,49.2892,129.002,112.641,118.328,0.000397289,0.0493119,21.0066,497.251,-0.438088,0.0,0.0
1834,458.25,47.6095,49.2757,134.343,112.636,119.549,0.000357797,0.0493447,21.0063,497.251,-0.52968,0.0,0.0
1841,460,47.1797,49.3209,130.367,112.64,118.405,0.000386253,0.0493332,21.0062,497.221,-0.443926,0.0,0.0
1848,461.75,47.6119,49.4856,129.145,112.634,117.866,0.000489021,0.0493165,21.0074,497.261,-0.403804,0.0,0.0
1855,463.5,47.7403,49.2729,132.279,112.643,118.303,0.000468937,0.0493146,21.008,497.221,-0.436038,0.0,0.0
1862,465.25,47.2121,49.3681,133.68,112.681,118.005,0.000313257,0.0492617,21.0083,497.231,-0.410543,0.0,0.0
1869,467,47.8645,49.2665,129.339,112.723,119.266,0.000267569,0.0491288,21.0088,497.221,-0.501799,0.0,0.0
1876,468.75,47.5085,49.2326,131.717,112.737,118.955,0.000385673,0.0491219,21.0092,497.231,-0.477472,0.0,0.0
1883,470.5,47.6836,49.913,132.157,112.759,118.308,0.000451736,0.0491678,21.0103,497.221,-0.427148,0.0,0.0
1890,472.25,47.4459,49.2754,130.761,112.799,119.199,0.00045046,0.049247,21.0111,497.211,-0.49079,0.0,0.0
1897,474,47.0818,49.2855,131.212,112.831,119.447,0.000421777,0.0492353,21.0115,497.241,-0.506733,0.0,0.0
1904,475.75,47.6924,49.268,130.88,112.86,119.558,0.000383184,0.0492469,21.0117,497.211,-0.51269,0.0,0.0
1911,477.5,47.8049,49.5243,131.036,112.879,119.4,0.000365164,0.0491235,21.0107,497.231,-0.499462,0.0,0.0
1918,479.25,47.7997,49.3456,135.765,112.904,119.201,0.000385899,0.049118,21.0101,497.231,-0.482614,0.0,0.0
1925,481,47.4496,49.3593,131.021,112.938,119.519,0.000416254,0.0491455,21.0098,497.241,-0.503674,0.0,0.0
1932,482.75,47.649,49.7155,130.648,112.951,119.739,0.000450254,0.0492296,21.0096,497.211,-0.518958,0.0,0.0
1939,484.5,47.6947,49.3164,132.808,112.988,118.546,0.000512422,0.0492232,21.0092,497.221,-0.42704,0.0,0.0
1946,486.25,47.2697,49.3042,131.371,112.981,119.385,0.000564338,0.0491575,21.0089,497.241,-0.49033,0.0,0.0
1953,488,47.1769,49.2632,130.165,113.003,119.345,0.000543682,0.0490639,21.0088,497.251,-0.485592,0.0,0.0
1960,489.75,47.7076,49.4701,134.231,113.023,119.085,0.000428423,0.0490879,21.0083,497.231,-0.464649,0.0,0.0
1967,491.5,47.215,49.8305,125.382,113.044,119.448,0.000242331,0.049015,21.008,497.251,-0.490027,0.0,0.0
1974,493.25,47.6792,49.283,130.072,113.04,119.435,0.000117996,0.048982,21.0079,497.241,-0.489329,0.0,0.0
1981,495,47.4718,49.5044,130.726,113.049,118.332,0.000143371,0.0490295,21.0078,497.241,-0.406196,0.0,0.0
1988,496.75,47.3356,49.6383,130.805,113.054,119.729,0.000162339,0.0490247,21.0078,497.251,-0.510176,0.0,0.0
1995,498.5,47.2036,49.3537,129.128,113.075,118.4,0.000123583,0.04902,21.008,497.241,-0.409168,0.0,0.0
2002,500.25,47.2937,49.202,130.193,113.069,119.083,7.37234e-05,0.0490788,21.0084,497.231,-0.460856,0.0,0.0
2009,502,47.2302,49.2364,130.671,113.068,119.089,0.000115119,0.0491081,21.0085,497.251,-0.461385,0.0,0.0
2016,503.75,47.5313,49.4571,130.543,113.081,118.456,0.000162403,0.0489865,21.0086,497.251,-0.413014,0.0,0.0
2023,505.5,47.7024,49.0853,133.791,113.098,118.931,0.000167465,0.0490277,21.0086,497.231,-0.447148,0.0,0.0
2030,507.25,47.4344,49.3885,133.151,113.099,119.678,0.000218615,0.048966,21.0086,497.221,-0.502797,0.0,0.0
2037,509,47.1789,49.3515,130.609,113.106,119.416,0.000363141,0.048944,21.0086,497.211,-0.482793,0.0,0.0
2044,510.75,47.147,48.9755,128.409,113.099,119.107,0.000419845,0.0489671,21.0086,497.221,-0.460289,0.0,0.0
2051,512.5,47.392,49.1653,128.523,113.123,119.23,0.000305261,0.0488624,21.0086,497.221,-0.467614,0.0,0.0
2058,514.25,47.1606,49.2782,129.722,113.136,118.055,0.00018474,0.0487551,21.0086,497.231,-0.378548,0.0,0.0
2065,516,47.5103,48.699,128.783,113.136,119.13,0.000105152,0.048804,21.0086,497.211,-0.459073,0.0,0.0
2072,517.75,47.37,49.4518,129.809,113.147,118.406,4.51243e-05,0.0488569,21.0086,497.221,-0.403958,0.0,0.0
2079,519.5,47.7333,48.9648,131.179,113.147,119.787,3.4727e-05,0.0488889,21.0086,497.221,-0.507134,0.0,0.0
2086,521.25,47.861,49.5713,130.582,113.195,119.333,8.14956e-05,0.048816,21.0086,497.251,-0.469602,0.0,0.0
2093,523,46.9909,49.4987,129.918,113.191,118.734,0.000163579,0.0488346,21.0086,497.241,-0.425162,0.0,0.0
2100,524.75,47.068,48.5553,132.503,113.207,119.491,0.00030761,0.0488918,21.0086,497.241,-0.48041,0.0,0.0
2107,526.5,47.2333,49.0393,132.034,113.197,118.135,0.000432239,0.0488317,21.0086,497.251,-0.379746,0.0,0.0
2114,528.25,47.436,49.5087,128.89,113.202,118.512,0.000493529,0.0488371,21.0086,497.261,-0.40762,0.0,0.0
2121,530,47.7598,49.2271,131.54,113.216,118.993,0.000466086,0.0487087,21.0088,497.241,-0.442553,0.0,0.0
2128,531.75,47.1414,49.1834,133.334,113.201,119.405,0.000407964,0.0487064,21.0094,497.241,-0.474512,0.0,0.0
2135,533.5,47.2744,49.2673,130.061,113.214,119.386,0.000388297,0.0487328,21.0097,497.251,-0.472117,0.0,0.0
2142,535.25,46.9656,49.4631,131.69,113.227,118.871,0.000335882,0.0488525,21.0098,497.261,-0.432616,0.0,0.0
2149,537,47.6733,49.6967,130.283,113.233,120.249,0.000253042,0.0488505,21.0099,497.221,-0.534629,0.0,0.0
2156,538.75,47.503,49.1946,132.788,113.24,118.936,0.000121785,0.0488834,21.0099,497.221,-0.436375,0.0,0.0
2163,540.5,46.8354,49.5911,129.851,113.249,119.047,-5.28846e-06,0.0490272,21.0099,497.241,-0.444016,0.0,0.0
2170,542.25,47.3531,49.1635,131.741,113.253,118.643,-1.49365e-06,0.0492218,21.0099,497.201,-0.413499,0.0,0.0
2177,544,47.2418,49.085,128.101,113.263,120.326,0.000132672,0.0492413,21.0099,497.221,-0.537989,0.0,0.0
2184,545.75,47.3563,48.7291,129.263,113.278,119.37,0.000251658,0.0492313,21.0095,497.251,-0.465813,0.0,0.0
2191,547.5,47.1327,49.4758,129.932,113.274,119.718,0.000283564,0.0491328,21.0085,497.231,-0.492101,0.0,0.0
2198,549.25,47.5834,48.8908,130.469,113.271,120.033,0.000264179,0.0490976,21.0081,497.231,-0.515688,0.0,0.0
2205,551,47.4394,49.1784,131.785,113.295,119.354,0.000235438,0.0489993,21.0078,497.231,-0.463358,0.0,0.0
2212,552.75,47.825,49.405,131.972,113.32,119.249,0.00025995,0.048944,21.0074,497.241,-0.453521,0.0,0.0
2219,554.5,46.7481,48.7937,132.664,113.32,119.024,0.000322167,0.0489668,21.0075,497.211,-0.436681,0.0,0.0
2226,556.25,47.4199,49.5059,131.59,113.347,118.973,0.000340486,0.0489722,21.0078,497.251,-0.43082,0.0,0.0
2233,558,47.3013,49.1176,131.612,113.346,119.97,0.000345484,0.0489057,21.0083,497.221,-0.505146,0.0,0.0
2240,559.75,46.8335,48.9323,129.05,113.371,118.622,0.000375688,0.048915,21.009,497.231,-0.40265,0.0,0.0
2247,561.5,47.5374,49.4854,130.744,113.38,118.948,0.000391862,0.0489289,21.0095,497.221,-0.426363,0.0,0.0
2254,563.25,47.5235,49.1023,132.182,113.382,119.06,0.000372046,0.0488858,21.0102,497.221,-0.434503,0.0,0.0
2261,565,47.1571,49.3576,129.56,113.393,119.237,0.000347582,0.0488369,21.0105,497.261,-0.446922,0.0,0.0
2268,566.75,47.8622,49.0744,129.458,113.419,120.058,0.000350422,0.0486547,21.0107,497.241,-0.505861,0.0,0.0
2275,568.5,47.6456,49.119,133.404,113.432,120.259,0.000361035,0.0485532,21.0107,497.241,-0.519725,0.0,0.0
2282,570.25,47.6746,50.0893,130.438,113.427,119.312,0.000417328,0.048606,21.0108,497.231,-0.449827,0.0,0.0
2289,572,47.5568,49.3996,131.396,113.432,119.48,0.000536515,0.0486436,21.0108,497.251,-0.461963,0.0,0.0
2296,573.75,47.545,49.656,136.994,113.444,118.112,0.000616871,0.0486672,21.0108,497.241,-0.358595,0.0,0.0
2303,575.5,47.5853,49.3969,130.441,113.452,119.607,0.000597077,0.0487902,21.0105,497.231,-0.46985,0.0,0.0
2310,577.25,47.9697,49.3761,131.939,113.46,118.686,0.000473826,0.0487923,21.009,497.231,-0.400442,0.0,0.0
2317,579,47.3835,49.3734,129.074,113.46,119.854,0.00039201,0.0487164,21.0083,497.221,-0.487557,0.0,0.0
2324,580.75,47.3609,49.1165,134.892,113.453,119.056,0.000286063,0.048692,21.008,497.231,-0.428726,0.0,0.0
2331,582.5,47.8587,49.6878,128.82,113.454,119.573,0.000203978,0.0488064,21.0078,497.221,-0.467142,0.0,0.0
2338,584.25,47.5723,49.7427,129.588,113.461,118.978,0.000132387,0.0488285,21.0077,497.251,-0.422241,0.0,0.0
2345,586,47.5426,49.2638,133.738,113.451,119.164,4.14231e-05,0.0487842,21.0081,497.251,-0.436914,0.0,0.0
2352,587.75,47.6555,49.2787,130.277,113.449,120.429,-1.9225e-05,0.0486175,21.0091,497.241,-0.530988,0.0,0.0
2359,589.5,47.5651,49.5516,131.028,113.45,120.967,3.71755e-06,0.0484534,21.0095,497.231,-0.570535,0.0,0.0
2366,591.25,47.2864,49.318,130.712,113.446,119.397,2.94127e-05,0.0483755,21.0098,497.221,-0.454656,0.0,0.0
2373,593,47.7185,49.6305,132.913,113.457,119.444,9.85892e-06,0.0483844,21.0092,497.201,-0.457287,0.0,0.0
2380,594.75,47.726,49.4795,129.907,113.448,118.873,-1.78797e-05,0.0483968,21.0084,497.211,-0.415405,0.0,0.0
2387,596.5,47.7271,49.6453,130.104,113.434,120.125,2.19967e-05,0.0482696,21.008,497.241,-0.509728,0.0,0.0
2394,598.25,47.6135,49.6785,131.551,113.423,119.891,0.000165465,0.0481784,21.0079,497.221,-0.493222,0.0,0.0
2401,600,47.3064,49.0708,128.822,113.414,119.236,0.000278922,0.0482778,21.0081,497.231,-0.445175,0.0,0.0
2408,601.75,46.2352,47.5899,129.474,113.412,119.877,0.000414336,0.0483745,21.0082,497.231,-0.493057,0.0,0.0
2415,603.5,45.8167,47.6981,131.347,113.405,120.683,0.000505375,0.0483591,21.0082,497.211,-0.553217,0.0,0.0
2422,605.25,45.5202,47.2816,131.812,113.41,119.562,0.000583479,0.0482336,21.0081,497.231,-0.469757,0.0,0.0
2429,607,45.2991,47.021,129.871,113.4,118.955,0.000655819,0.0481005,21.009,497.241,-0.425296,0.0,0.0
2436,608.75,45.5466,47.6787,128.922,113.402,119.57,0.000727328,0.0481116,21.0094,497.241,-0.471002,0.0,0.0
2443,610.5,45.8295,47.9702,132.61,113.391,119.61,0.000781682,0.0482296,21.0096,497.241,-0.474841,0.0,0.0
2450,612.25,45.7845,47.4805,133.579,113.379,119.575,0.000723608,0.0482869,21.0094,497.231,-0.473194,0.0,0.0
2457,614,45.0478,47.7013,128.835,113.391,120.08,0.000597011,0.0483734,21.0092,497.231,-0.509649,0.0,0.0
2464,615.75,45.7821,47.5257,132.969,113.371,119.216,0.000546903,0.0484686,21.0083,497.251,-0.44704,0.0,0.0
2471,617.5,45.6987,47.4913,136.469,113.359,119.379,0.000569869,0.0484149,21.0078,497.241,-0.460122,0.0,0.0
2478,619.25,46.0226,48.0786,130.494,113.352,120.103,0.000527964,0.0483378,21.0076,497.211,-0.514511,0.0,0.0
2485,621,45.8771,47.9127,129.393,113.362,120.074,0.000412404,0.048249,21.0075,497.221,-0.511511,0.0,0.0
2492,622.75,45.5554,47.6106,127.93,113.364,120.265,0.000334058,0.04826,21.008,497.221,-0.525507,0.0,0.0
2499,624.5,45.0516,47.5154,131.986,113.345,118.769,0.000329743,0.0483262,21.0084,497.231,-0.415681,0.0,0.0
2506,626.25,46.0659,47.8624,131.79,113.33,120.453,0.000364404,0.0484194,21.0091,497.251,-0.542033,0.0,0.0
2513,628,44.8604,47.3009,130.787,113.339,119.157,0.000437195,0.0483978,21.0105,497.241,-0.445165,0.0,0.0
2520,629.75,45.6868,47.9567,131.114,113.329,119.919,0.000498441,0.0484213,21.0112,497.221,-0.502621,0.0,0.0
2527,631.5,45.8646,47.5161,133.156,113.342,118.58,0.000540742,0.048379,21.0115,497.221,-0.401764,0.0,0.0
2534,633.25,45.8143,47.7178,131.123,113.313,119.43,0.000593756,0.048285,21.0117,497.231,-0.467575,0.0,0.0
2541,635,45.8238,47.6221,133.221,113.305,118.186,0.000640565,0.0482496,21.0118,497.251,-0.375022,0.0,0.0
2548,636.75,45.7351,47.4194,129.036,113.315,119.94,0.00063417,0.0484363,21.0118,497.241,-0.505343,0.0,0.0
2555,638.5,45.7051,47.2115,131.273,113.308,119.902,0.000537508,0.0485161,21.0107,497.251,-0.50305,0.0,0.0
2562,640.25,45.923,47.303,130.552,113.303,118.943,0.00032488,0.0485518,21.0101,497.211,-0.431959,0.0,0.0
2569,642,45.6236,47.5439,126.895,113.291,119.733,0.000153966,0.0485024,21.0098,497.251,-0.491807,0.0,0.0
2576,643.75,45.9323,47.732,130.503,113.284,118.945,8.98373e-05,0.0486069,21.0096,497.261,-0.433644,0.0,0.0
2583,645.5,45.6215,47.2659,129.38,113.291,120.295,0.000137096,0.0486367,21.0095,497.261,-0.533491,0.0,0.0
2590,647.25,45.7155,47.6356,128.898,113.267,118.827,0.000133886,0.0486162,21.0094,497.231,-0.426212,0.0,0.0
2597,649,45.7033,47.604,128.053,113.271,120.389,7.52742e-05,0.0486742,21.0093,497.231,-0.541969,0.0,0.0
2604,650.75,45.4448,47.6249,129.044,113.273,119.009,6.26667e-05,0.048585,21.0093,497.251,-0.439355,0.0,0.0
2611,652.5,45.8439,47.2566,132.483,113.255,119.069,5.84729e-05,0.0485214,21.0093,497.221,-0.44515,0.0,0.0
2618,654.25,45.8639,47.6771,127.988,113.25,119.912,-1.08511e-05,0.0485038,21.0093,497.241,-0.508361,0.0,0.0
2625,656,45.4523,47.3937,131.683,113.231,118.421,-4.10286e-05,0.0484706,21.0093,497.251,-0.398512,0.0,0.0
2632,657.75,45.6603,47.4336,131.707,113.22,119.097,-1.18458e-05,0.0484491,21.0089,497.251,-0.449979,0.0,0.0
2639,659.5,45.4708,48.0673,130.448,113.215,120.218,2.51913e-05,0.0484682,21.0087,497.241,-0.533798,0.0,0.0
2646,661.25,45.7066,47.6534,128.106,113.214,119.991,0.000151515,0.0485101,21.0085,497.221,-0.516976,0.0,0.0
2653,663,45.5946,47.6601,132.56,113.202,118.775,0.000323777,0.0485045,21.0085,497.211,-0.427349,0.0,0.0
2660,664.75,45.7284,47.5654,129.534,113.176,120.488,0.000486567,0.0484545,21.0085,497.211,-0.5568,0.0,0.0
2667,666.5,45.5624,47.7526,127.245,113.17,118.567,0.000589919,0.0484753,21.0085,497.221,-0.414305,0.0,0.0
2674,668.25,45.6007,47.5624,130.262,113.2,119.733,0.000580116,0.048543,21.0087,497.231,-0.499038,0.0,0.0
2681,670,45.6703,47.5118,131.622,113.17,119.083,0.000522698,0.048578,21.0088,497.241,-0.452906,0.0,0.0
2688,671.75,45.7989,47.6818,133.512,113.159,119.64,0.000497417,0.0486191,21.0089,497.251,-0.495296,0.0,0.0
2695,673.5,45.8253,47.6667,132.778,113.158,118.98,0.000457699,0.0486636,21.0089,497.231,-0.446128,0.0,0.0
2702,675.25,45.9559,47.327,131.419,113.168,118.632,0.000388737,0.0486309,21.0089,497.241,-0.419323,0.0,0.0
2709,677,45.2637,47.1238,131.66,113.171,118.58,0.000334443,0.0486564,21.0089,497.221,-0.415187,0.0,0.0
2716,678.75,45.9292,47.2114,130.977,113.133,119.514,0.000360649,0.0485726,21.0089,497.211,-0.487955,0.0,0.0
2723,680.5,45.8821,47.5396,130.777,113.125,119.724,0.00044352,0.0484033,21.0089,497.231,-0.504202,0.0,0.0
2730,682.25,45.7344,47.3432,128.138,113.135,118.304,0.00049708,0.0483579,21.0089,497.241,-0.397322,0.0,0.0
2737,684,46.1063,47.5322,131.077,113.141,119.793,0.000480399,0.0484625,21.0089,497.261,-0.508087,0.0,0.0
2744,685.75,45.6197,47.451,132.594,113.143,118.73,0.000411008,0.0485235,21.0089,497.231,-0.42867,0.0,0.0
2751,687.5,45.5815,48.1985,131.037,113.119,119.297,0.000396677,0.0485103,21.0089,497.231,-0.472864,0.0,0.0
2758,689.25,45.5717,47.3764,128.886,113.127,118.04,0.000450556,0.0485336,21.0089,497.251,-0.378112,0.0,0.0
2765,691,45.3837,47.6645,129.339,113.129,120.077,0.000556366,0.0485177,21.0093,497.221,-0.530003,0.0,0.0
2772,692.75,46.2027,47.9072,126.633,113.132,119.621,0.00064951,0.0485021,21.0096,497.231,-0.496002,0.0,0.0
2779,694.5,46.2381,48.3443,132.937,113.114,118.996,0.000720842,0.0485714,21.0098,497.221,-0.450798,0.0,0.0
2786,696.25,45.6098,47.355,129.724,113.118,119.022,0.000753504,0.0485997,21.0099,497.201,-0.452414,0.0,0.0
2793,698,45.6794,47.9598,128.778,113.107,118.909,0.000766696,0.0486535,21.0099,497.211,-0.444872,0.0,0.0
2800,699.75,45.9045,47.5648,131.387,113.112,119.642,0.000712394,0.0487249,21.0099,497.241,-0.499081,0.0,0.0
2807,701.5,45.7697,47.5785,133.278,113.103,118.048,0.000587882,0.0487895,21.0099,497.211,-0.380576,0.0,0.0
2814,703.25,45.6438,47.9702,128.188,113.075,119.752,0.000486344,0.0487738,21.0099,497.241,-0.510236,0.0,0.0
2821,705,46.4049,47.4538,131.281,113.075,119.598,0.000417167,0.0488506,21.0099,497.231,-0.498794,0.0,0.0
2828,706.75,46.0788,47.7019,131.843,113.068,118.32,0.000345106,0.0487657,21.0099,497.231,-0.403744,0.0,0.0
2835,708.5,45.9609,47.977,128.637,113.05,118.563,0.00027346,0.0487488,21.0099,497.241,-0.423447,0.0,0.0
2842,710.25,45.9897,47.5017,132.421,113.033,118.97,,0.0487467,,497.221,-0.45521,0.0,0.0
2849,712,45.948,47.7641,130.533,113.027,118.886,,0.0487999,,497.211,-0.449403,0.0,0.0
2856,713.75,45.8516,47.7063,132.732,113.044,119.858,,,,497.241,-0.520508,0.0,0.0
2863,715.5,45.94,47.6315,131.235,113.03,118.829,,,,497.231,-0.444933,0.0,0.0
2870,717.25,45.6693,47.2796,131.514,113.005,118.443,,,,497.261,-0.417979,0.0,0.0
2877,719,45.8106,47.8878,132.95,113.011,118.668,,,,497.241,-0.434403,0.0,0.0
2884,720.75,45.6658,47.3191,131.829,112.996,119.249,,,,497.241,-0.478968,0.0,0.0