File: 01_Data/Fiberglass_Insulation_R30/Cone/R30_Fiberglass_Insulation_Cone_HF75Scan_220503_R1.csv
Names,Time,Stack TC,Smoke TC,Exh Press,Smoke Comp,Smoke Meas,CO Meter,CO2 Meter,O2 Meter,Sample Mass,Ext Coeff,Start Test,Flame Verif
Chan Gain,,500,500,1,1,1,1,1,1,1,1,1.0,1.0
Offset,,0,0,0.135741,0,0,0,0,0,0,0,0.0,0.0
Gain,,1,1,25.011,14.8585,16.6522,1,1,1,1.00087,1.0138,1.0,1.0
Units,sec,C,C,Pa,%,%,%,%,%,g,/m,,
Baseline,,42.1416,43.7507,134.748,113.441,116.884,0.000746496,0.0485188,21.007,-2.05332,-0.265875,,
17,4,39.932,41.8178,132.538,113.097,115.948,0.00437683,0.0573214,20.9928,498.372,-0.221392,0.0,0.0
34,8.25,40.8795,41.9792,133.688,113.037,116.738,0.00631789,0.0644565,20.9853,498.292,-0.286539,0.0,0.0
51,12.5,41.3309,42.9898,130.422,112.949,117.1,0.00652659,0.0680699,20.9828,498.202,-0.320945,0.0,0.0
68,16.75,41.3738,43.2617,133.538,112.844,116.539,0.0067957,0.0709783,20.9795,498.152,-0.286526,0.0,0.0
85,21,41.7131,43.7298,134.983,112.719,115.824,0.00623533,0.072366,20.9779,498.142,-0.241588,0.0,0.0
102,25.25,42.3631,43.5937,132.878,112.641,116.709,0.00505341,0.0716619,20.9792,498.152,-0.31553,0.0,0.0
119,29.5,42.248,44.469,132.882,112.54,117.163,0.00390633,0.0678809,20.9846,498.172,-0.357991,0.0,0.0
136,33.75,42.4849,43.9474,129.435,112.446,116.345,0.00282633,0.0628064,20.9928,498.192,-0.303205,0.0,0.0
153,38,42.7963,43.9775,134.707,112.386,116.569,0.00200779,0.0591029,20.9978,498.172,-0.324979,0.0,0.0
170,42.25,43.095,43.6484,130.436,112.316,114.948,0.00152939,0.0581608,20.9973,498.182,-0.206,0.0,0.0
187,46.5,42.8262,44.2571,134.367,112.259,115.411,0.00134102,0.0574661,20.9987,498.162,-0.246309,0.0,0.0
204,50.75,42.3151,44.5107,135.845,112.227,115.935,0.00114869,0.055091,21.0019,498.162,-0.289141,0.0,0.0
221,55,43.1422,44.8375,132.64,112.21,116.298,0.00100598,0.0530701,21.0049,498.122,-0.318221,0.0,0.0
238,59.25,43.2503,45.2751,132.419,112.168,114.891,0.000850495,0.0518443,21.0071,498.142,-0.213344,0.0,0.0
255,63.5,43.6818,44.6928,133.444,112.158,116.28,0.000845041,0.0513884,21.0084,498.142,-0.320961,0.0,0.0
272,67.75,43.2914,44.8377,137.864,112.171,115.528,0.000761923,0.0507119,21.0103,498.142,-0.262282,0.0,0.0
289,72,43.0893,45.0892,133.67,112.128,116.391,0.000652246,0.0505159,21.0106,498.132,-0.331835,0.0,0.0
306,76.25,42.8299,44.9443,134.694,112.102,115.504,0.000736939,0.0502571,21.0107,498.122,-0.265874,0.0,0.0
323,80.5,43.0402,45.165,132.202,112.085,116.92,0.000679749,0.0512129,21.0083,498.132,-0.375582,0.0,0.0
340,84.75,43.7059,44.8892,132.407,112.045,115.811,0.000614082,0.0521255,21.0077,498.112,-0.294008,0.0,0.0
357,89,43.6962,45.1322,132.845,112.022,115.517,0.000869639,0.0512628,21.0076,498.092,-0.273182,0.0,0.0
374,93.25,43.4317,45.4091,132.566,111.992,116.647,0.000820256,0.0504777,21.0081,498.072,-0.362219,0.0,0.0
391,97.5,43.3711,45.4093,130.303,111.969,116.839,0.000787484,0.0502024,21.0075,498.062,-0.378613,0.0,0.0
408,101.75,43.5165,45.5131,131.24,111.929,116.766,0.000746393,0.0497985,21.0074,498.072,-0.37625,0.0,0.0
425,106,43.4077,45.6539,131.48,111.904,115.595,0.000724819,0.049693,21.0098,498.072,-0.288608,0.0,0.0
442,110.25,43.5201,45.7632,130.232,111.901,116.816,0.000602486,0.049369,21.0103,498.082,-0.382276,0.0,0.0
459,114.5,43.8505,45.5851,134.824,111.856,116.051,0.000579708,0.0493691,21.0103,498.062,-0.327428,0.0,0.0
476,118.75,43.7723,45.911,132.523,111.818,115.972,0.000652063,0.0494813,21.0103,498.112,-0.324419,0.0,0.0
493,123,43.8094,45.6541,132.073,111.806,116.258,0.000521099,0.0492887,21.0103,498.122,-0.347231,0.0,0.0
510,127.25,43.9932,45.7275,129.42,111.783,116.112,0.000642318,0.0493812,21.0115,498.092,-0.337904,0.0,0.0
527,131.5,44.1757,45.7035,134.407,111.755,115.266,0.00072641,0.0492909,21.0107,498.072,-0.275101,0.0,0.0
544,135.75,44.0584,45.5936,134.787,111.758,115.429,0.000540428,0.0492233,21.0099,498.092,-0.287387,0.0,0.0
561,140,43.86,46.1616,130.315,111.724,115.864,0.000309999,0.049256,21.0099,498.042,-0.323545,0.0,0.0
578,144.25,44.1363,46.2849,134.844,111.702,115.235,0.000375968,0.0491687,21.0096,498.062,-0.276893,0.0,0.0
595,148.5,44.2126,45.9885,132.524,111.691,115.536,0.000418764,0.0490697,21.0103,498.042,-0.300986,0.0,0.0
612,152.75,44.2829,45.9547,130.084,111.679,116.272,0.000314807,0.0491121,21.0107,498.032,-0.358421,0.0,0.0
629,157,44.2786,46.1419,129.289,111.655,115.891,0.000501342,0.0490539,21.0112,498.022,-0.331099,0.0,0.0
646,161.25,43.892,46.4642,130.725,111.622,116.195,0.000469328,0.0492201,21.0109,498.052,-0.3571,0.0,0.0
663,165.5,44.1223,45.9161,131.312,111.614,115.673,0.00044241,0.0492287,21.0107,498.032,-0.31768,0.0,0.0
680,169.75,44.1754,46.1726,131.843,111.595,114.943,0.000327803,0.0492017,21.0102,498.032,-0.262876,0.0,0.0
697,174,43.9647,46.2325,133.413,111.584,115.273,0.000526683,0.0490592,21.0104,498.052,-0.2893,0.0,0.0
714,178.25,44.0548,46.4502,129.143,111.582,115.268,0.000410566,0.0491253,21.011,498.042,-0.289053,0.0,0.0
731,182.5,44.0005,46.577,133.703,111.569,115.098,0.000462495,0.0490842,21.0106,498.042,-0.27692,0.0,0.0
748,186.75,44.2655,45.9671,132.262,111.562,115.476,0.000374472,0.0490551,21.0093,498.022,-0.306667,0.0,0.0
765,191,44.3091,45.972,130.556,111.584,115.477,0.000586324,0.0491533,21.009,498.062,-0.305007,0.0,0.0
782,195.25,44.3154,46.8409,132.882,111.576,115.097,0.000819941,0.0491882,21.0086,498.022,-0.276304,0.0,0.0
799,199.5,44.8262,46.7542,132.404,111.582,116.173,0.000769792,0.04906,21.008,498.012,-0.358607,0.0,0.0
816,203.75,44.5453,46.7245,131.66,111.592,115.585,0.000859215,0.049121,21.0077,498.042,-0.312653,0.0,0.0
833,208,44.6777,46.5465,132.472,111.604,115.462,0.000796854,0.0491331,21.0076,498.042,-0.302247,0.0,0.0
850,212.25,45.0285,46.9681,131.871,111.61,115.42,0.000487802,0.0490442,21.0095,498.002,-0.298489,0.0,0.0
867,216.5,45.1948,47.0007,132.576,111.623,116.062,0.000351114,0.0491004,21.0094,498.002,-0.346871,0.0,0.0
884,220.75,44.5958,46.8255,133.512,111.647,115.495,0.000499906,0.0491814,21.0084,498.012,-0.301356,0.0,0.0
901,225,44.3735,46.2177,130.977,111.649,115.588,0.000784843,0.0490883,21.008,497.982,-0.308333,0.0,0.0
918,229.25,44.6521,46.904,130.811,111.677,116.737,0.000492709,0.0490764,21.0095,498.002,-0.394098,0.0,0.0
935,233.5,44.5962,47.1778,134.001,111.695,115.266,0.000359916,0.0492635,21.0091,498.012,-0.279902,0.0,0.0
952,237.75,44.4255,46.7373,132.163,111.706,115.346,0.000219745,0.0494727,21.0088,498.012,-0.285156,0.0,0.0
969,242,44.7298,46.9252,130.822,111.735,115.531,0.000373733,0.0493891,21.0108,498.002,-0.297132,0.0,0.0
986,246.25,44.795,46.4307,131.486,111.769,115.805,0.000439448,0.0494491,21.0095,498.002,-0.315446,0.0,0.0
1003,250.5,44.8752,46.9325,133.269,111.813,115.215,0.00046609,0.0493531,21.0093,498.002,-0.266523,0.0,0.0
1020,254.75,44.6568,46.4725,133.77,111.848,116.046,0.000414499,0.0492786,21.0097,497.992,-0.327614,0.0,0.0
1037,259,45.069,46.4536,130.82,111.9,115.715,0.000451319,0.0493218,21.0098,497.972,-0.298118,0.0,0.0
1054,263.25,44.7122,47.1659,132.171,111.944,115.804,0.00067779,0.049104,21.0086,497.972,-0.301417,0.0,0.0
1071,267.5,45.3464,47.4044,133.678,111.962,115.967,0.000534931,0.0490616,21.0092,498.002,-0.312605,0.0,0.0
1088,271.75,44.8888,46.9402,131.659,112.017,116.383,0.00020447,0.0490117,21.0093,497.982,-0.339997,0.0,0.0
1105,276,44.9505,47.4113,129.305,112.064,116.405,0.000335666,0.0490324,21.009,497.992,-0.337959,0.0,0.0
1122,280.25,45.0681,47.1488,136.986,112.103,117.106,0.000556959,0.0489076,21.0089,497.982,-0.388282,0.0,0.0
1139,284.5,45.5108,47.1131,130.757,112.132,115.478,0.000847003,0.0487344,21.0094,497.982,-0.261504,0.0,0.0
1156,288.75,44.7911,47.1855,131.798,112.188,115.964,0.000631838,0.0489486,21.0084,497.972,-0.294342,0.0,0.0
1173,293,44.9986,47.2637,134.45,112.245,116.376,0.000281756,0.0489535,21.0082,497.982,-0.321475,0.0,0.0
1190,297.25,44.9091,46.9099,132.231,112.289,116.742,0.000316003,0.048703,21.0081,497.992,-0.345832,0.0,0.0
1207,301.5,45.1503,47.2814,132.569,112.364,117.24,0.000277476,0.0486372,21.0081,497.972,-0.377804,0.0,0.0
1224,305.75,45.5312,47.6128,133.298,112.391,116.566,0.000634472,0.0485989,21.0081,497.982,-0.324427,0.0,0.0
1241,310,45.35,47.2939,130.875,112.435,116.307,0.000757968,0.0485624,21.0101,497.992,-0.301116,0.0,0.0
1258,314.25,45.6234,47.3711,132.307,112.488,117.317,0.000771672,0.0486542,21.0107,497.962,-0.373756,0.0,0.0
1275,318.5,45.119,47.4283,130.345,112.529,116.87,0.000533301,0.0483507,21.0116,497.992,-0.33657,0.0,0.0
1292,322.75,45.3729,47.2071,128.936,112.569,116.894,0.000309153,0.0480388,21.0117,498.002,-0.335272,0.0,0.0
1309,327,45.6807,47.4551,133.979,112.626,116.776,0.000398193,0.0480824,21.0117,497.982,-0.321819,0.0,0.0
1326,331.25,45.2992,47.2968,132.675,112.661,116.193,0.000346716,0.0479975,21.0124,497.972,-0.274526,0.0,0.0
1343,335.5,45.3136,47.2606,133.142,112.689,116.439,0.000340612,0.0479516,21.0133,497.962,-0.291116,0.0,0.0
1360,339.75,45.65,47.2641,137.066,112.717,117.491,0.000121254,0.0480004,21.0132,497.962,-0.368875,0.0,0.0
1377,344,45.646,47.0953,133.279,112.767,116.921,0.000190839,0.0480092,21.0132,497.982,-0.321714,0.0,0.0
1394,348.25,45.6292,47.1395,132.176,112.796,116.915,0.000152942,0.0480158,21.0132,497.972,-0.318929,0.0,0.0
1411,352.5,45.2353,47.3664,132.37,112.818,115.888,0.00022284,0.0480959,21.0132,497.962,-0.238783,0.0,0.0
1428,356.75,45.493,47.2454,131.831,112.868,116.709,0.000337073,0.0481855,21.0131,497.982,-0.29761,0.0,0.0
1445,361,45.313,47.0968,134.36,112.872,116.057,0.000433919,0.0482714,21.0126,497.942,-0.247507,0.0,0.0
1462,365.25,45.4292,47.7854,133.717,112.903,116.685,0.000430033,0.0481368,21.0111,497.952,-0.292968,0.0,0.0
1479,369.5,45.5572,47.3183,127.728,112.921,116.487,0.000380539,0.0482555,21.0108,497.962,-0.276532,0.0,0.0
1496,373.75,45.5073,47.5415,129.965,112.927,117.386,0.000181037,0.048151,21.0108,497.932,-0.344396,0.0,0.0
1513,378,45.5453,47.489,132.866,112.939,117.477,0.000276034,0.048291,21.0108,497.982,-0.350324,0.0,0.0
1530,382.25,45.0742,47.4535,129.032,112.941,117.108,0.000230224,0.0484554,21.0108,497.942,-0.322209,0.0,0.0
1547,386.5,45.0788,47.2176,131.211,112.952,118.021,0.000387457,0.0481299,21.0108,497.972,-0.390356,0.0,0.0
1564,390.75,45.4889,46.9445,137.5,112.957,116.189,0.00067486,0.0482372,21.0108,497.962,-0.250911,0.0,0.0
1581,395,44.7997,46.7948,131.573,112.954,116.694,0.000778893,0.0483858,21.0108,497.942,-0.289701,0.0,0.0
1598,399.25,44.7928,47.4543,129.933,112.965,116.671,0.00045318,0.0483479,21.012,497.952,-0.287063,0.0,0.0
1615,403.5,45.3019,47.3066,131.738,112.962,116.793,0.000119948,0.0483135,21.0134,497.962,-0.296643,0.0,0.0
1632,407.75,45.2116,47.4956,134.976,112.964,116.486,9.11216e-05,0.0483376,21.0125,497.962,-0.273062,0.0,0.0
1649,412,45.4642,47.074,131.679,112.972,116.464,0.000118363,0.0482269,21.0123,497.962,-0.270787,0.0,0.0
1666,416.25,45.4568,47.2982,133.221,112.982,115.871,0.000370283,0.0480594,21.0141,497.972,-0.22453,0.0,0.0
1683,420.5,45.0532,47.68,130.803,112.992,116.252,0.000570111,0.048188,21.0145,497.982,-0.25291,0.0,0.0
1700,424.75,45.372,47.4198,128.062,112.977,118.21,0.000443148,0.0482975,21.0135,497.952,-0.402698,0.0,0.0
1717,429,45.1003,47.3591,132.412,112.993,116.795,0.000305081,0.0480771,21.0123,497.972,-0.294335,0.0,0.0
1734,433.25,45.3477,47.1092,132.091,112.98,116.655,0.000592564,0.048009,21.0126,497.922,-0.284648,0.0,0.0
1751,437.5,45.6001,47.4295,134.987,112.967,117.62,0.00035499,0.048079,21.0128,497.972,-0.358952,0.0,0.0
1768,441.75,45.3464,47.222,130.551,112.974,117.853,0.000478694,0.0480051,21.0141,497.962,-0.375994,0.0,0.0
1785,446,44.885,47.3579,132.513,112.945,118.232,0.000827795,0.0478979,21.0138,497.932,-0.40684,0.0,0.0
1802,450.25,44.908,46.9268,130.857,112.913,117.032,0.000490727,0.0481154,21.0128,497.952,-0.318706,0.0,0.0
1819,454.5,45.4393,47.2111,131.666,112.898,116.89,0.00062533,0.0481769,21.012,497.952,-0.309066,0.0,0.0
1836,458.75,45.4036,47.5507,130.926,112.85,117.656,0.000778239,0.0480614,21.0102,497.942,-0.370855,0.0,0.0
1853,463,45.447,47.3004,130.891,112.809,117.149,0.000505636,0.0480893,21.0101,497.962,-0.335691,0.0,0.0
1870,467.25,45.611,47.0693,131.515,112.767,116.5,0.000307878,0.048186,21.0106,497.932,-0.289615,0.0,0.0
1887,471.5,44.7741,47.0825,134.457,112.728,117.3,0.000359569,0.0483327,21.0104,497.952,-0.353544,0.0,0.0
1904,475.75,44.8112,47.305,129.494,112.657,116.715,0.000285148,0.0483017,21.0108,497.972,-0.314703,0.0,0.0
1921,480,45.5504,47.5384,130.416,112.608,117.089,0.000224128,0.0481939,21.0106,497.952,-0.346988,0.0,0.0
1938,484.25,45.5516,47.1599,132.948,112.59,116.431,0.000196448,0.0480864,21.0104,497.922,-0.298371,0.0,0.0
1955,488.5,45.0503,47.7263,131.25,112.558,115.62,0.000140378,0.0481396,21.0104,497.942,-0.238709,0.0,0.0
1972,492.75,45.7226,47.6928,131.668,112.534,116.282,0.000434731,0.0481454,21.0117,497.912,-0.291396,0.0,0.0
1989,497,45.4661,47.4439,129.397,112.512,116.757,0.000324516,0.0481306,21.0136,497.972,-0.329342,0.0,0.0
2006,501.25,45.7018,47.1823,130.607,112.478,116.487,0.000117829,0.0481513,21.014,497.922,-0.31149,0.0,0.0
2023,505.5,45.2817,47.5092,129.621,112.449,116.123,0.000170898,0.0481953,21.0133,497.912,-0.285888,0.0,0.0
2040,509.75,45.4107,47.9065,131.443,112.431,116.647,0.00017869,0.0480963,21.0132,497.912,-0.327396,0.0,0.0
2057,514,45.6316,47.6835,132.679,112.416,117.328,3.2762e-05,0.0478128,21.0136,497.922,-0.380306,0.0,0.0
2074,518.25,45.7586,47.6145,130.564,112.386,116.639,0.000115971,0.0477355,21.013,497.912,-0.330324,0.0,0.0
2091,522.5,46.008,47.3681,128.21,112.375,116.733,0.000407309,0.0476987,21.0128,497.932,-0.338389,0.0,0.0
2108,526.75,45.6308,47.7792,132.383,112.374,116.743,0.000637633,0.047689,21.012,497.932,-0.339161,0.0,0.0
2125,531,45.7135,47.5635,132.941,112.338,115.848,0.00076927,0.0476012,21.0119,497.932,-0.273599,0.0,0.0
2142,535.25,45.2987,47.3585,131.982,112.326,116.306,0.000629595,0.0476836,21.0124,497.922,-0.309686,0.0,0.0
2159,539.5,45.7653,47.8956,133.786,112.32,116.313,0.000527068,0.0477629,21.0122,497.912,-0.310658,0.0,0.0
2176,543.75,45.907,47.7048,136.464,112.285,115.596,0.000205124,0.0476666,21.0118,497.922,-0.258432,0.0,0.0
2193,548,45.8205,47.7327,131.115,112.267,116.436,0.000237463,0.0475703,21.0117,497.942,-0.324296,0.0,0.0
2210,552.25,45.6791,47.7087,132.003,112.254,116.542,0.000344144,0.0476328,21.0117,497.882,-0.333369,0.0,0.0
2227,556.5,45.3922,47.6627,130.398,112.247,116.481,0.000480317,0.0476407,21.0113,497.912,-0.329217,0.0,0.0
2244,560.75,46.3514,47.266,133.159,112.23,116.193,0.000460081,0.0475915,21.0117,497.922,-0.308631,0.0,0.0
2261,565,45.9943,47.724,130.022,112.249,116.858,0.000426576,0.0475602,21.0139,497.912,-0.357815,0.0,0.0
2278,569.25,46.2324,48.2837,132.886,112.274,116.926,0.000355498,0.047465,21.015,497.902,-0.361095,0.0,0.0
2295,573.5,46.0369,47.8095,128.508,112.317,117.766,0.000278721,0.047569,21.0152,497.942,-0.421271,0.0,0.0
2312,577.75,46.2959,47.764,132.689,112.309,115.853,0.000264858,0.0476293,21.0138,497.922,-0.276287,0.0,0.0
2329,582,46.0838,47.8029,128.033,112.326,117.901,0.000664108,0.0475525,21.0131,497.952,-0.430829,0.0,0.0
2346,586.25,45.8405,48.2797,131.202,112.335,117.285,0.000584876,0.0475103,21.0132,497.912,-0.383493,0.0,0.0
2363,590.5,46.2025,48.3356,129.537,112.331,116.794,0.000329246,0.047719,21.0133,497.912,-0.346477,0.0,0.0
2380,594.75,45.9636,48.1089,129.376,112.349,116.654,0.000284891,0.0475661,21.0134,497.942,-0.334397,0.0,0.0
2397,599,46.5865,47.5976,136.57,112.331,117.342,0.000419236,0.0475884,21.0134,497.942,-0.388133,0.0,0.0
2414,603.25,45.8484,47.8752,132.098,112.346,116.678,0.000314677,0.047539,21.0134,497.942,-0.336429,0.0,0.0
2431,607.5,46.4042,47.8531,131.006,112.347,115.844,0.000387277,0.0475114,21.0134,497.922,-0.272605,0.0,0.0
2448,611.75,45.5662,47.4122,132.265,112.345,116.074,0.000241547,0.0474885,21.0134,497.902,-0.290403,0.0,0.0
2465,616,45.8131,47.6113,130.928,112.339,115.89,0.000175898,0.0473477,21.0151,497.922,-0.2768,0.0,0.0
2482,620.25,45.78,48.0457,128.821,112.323,116.648,0.000315941,0.0473391,21.0137,497.912,-0.336011,0.0,0.0
2499,624.5,44.999,47.1725,127.654,112.308,115.553,0.000373755,0.0472085,21.0134,497.912,-0.253274,0.0,0.0
2516,628.75,44.4689,46.6612,132.682,112.299,116.532,0.00040017,0.0473031,21.0136,497.892,-0.329079,0.0,0.0
2533,633,45.387,46.6727,132.891,112.286,116.616,0.000119382,0.0473734,21.0141,497.912,-0.336481,0.0,0.0
2550,637.25,44.8341,46.8699,133.321,112.315,115.827,-2.63607e-05,0.0473451,21.014,497.902,-0.27383,0.0,0.0
2567,641.5,45.1313,46.9219,129.801,112.324,116.553,-0.000128027,0.0474032,21.014,497.922,-0.328655,0.0,0.0
2584,645.75,44.8209,46.8269,129.632,112.34,115.874,0.000188748,0.0473105,21.0136,497.932,-0.275447,0.0,0.0
2601,650,44.9718,46.9241,130.131,112.365,117.039,0.000315415,0.0473634,21.012,497.932,-0.36238,0.0,0.0
2618,654.25,44.4381,47.0561,128.817,112.377,115.858,0.000296488,0.0472294,21.0131,497.912,-0.271293,0.0,0.0
2635,658.5,45.3673,46.926,130.187,112.357,115.89,0.000313074,0.0473002,21.0151,497.902,-0.275289,0.0,0.0
2652,662.75,45.0337,47.0455,135.523,112.369,116.931,0.000338748,0.0472712,21.0143,497.882,-0.353903,0.0,0.0
2669,667,44.7273,47.2172,132.162,112.383,117.006,0.000466439,0.0473255,21.0149,497.882,-0.358435,0.0,0.0
2686,671.25,45.5465,47.3958,132.588,112.391,116.638,0.000408273,0.0473228,21.0144,497.912,-0.329853,0.0,0.0
2703,675.5,45.4014,46.4897,128.421,112.418,116.377,0.000313898,0.0472582,21.014,497.892,-0.307839,0.0,0.0
2720,679.75,44.7931,46.6404,131.055,112.435,116.883,0.000366671,0.0471688,21.0135,497.892,-0.345028,0.0,0.0
2737,684,45.0582,46.9377,129.417,112.46,116.193,0.000134816,0.0472959,21.0127,497.902,-0.290471,0.0,0.0
2754,688.25,45.211,47.0087,132.638,112.49,116.641,0.000220933,0.0472496,21.0125,497.882,-0.322267,0.0,0.0
2771,692.5,45.1352,47.3707,130.142,112.528,116.394,0.000601072,0.0472886,21.0125,497.872,-0.300444,0.0,0.0
2788,696.75,45.2012,47.0895,131.218,112.588,116.506,0.000596686,0.0472237,21.0125,497.872,-0.304143,0.0,0.0
2805,701,45.4179,47.3757,132.705,112.647,116.307,0.000608665,0.0472307,21.0145,497.862,-0.284347,0.0,0.0
2822,705.25,45.045,47.3326,132.029,112.72,116.586,0.000526132,0.0473765,21.0158,497.902,-0.299853,0.0,0.0
2839,709.5,45.2629,46.8959,132.987,112.773,116.358,0.000165804,0.0473551,21.0161,497.882,-0.278285,0.0,0.0
2856,713.75,44.9715,46.9297,134.703,112.846,116.315,0.000238403,0.0473119,21.0156,497.892,-0.269228,0.0,0.0
2873,718,45.4908,47.0731,132.487,112.903,117.281,0.000220807,0.0473731,21.0144,497.892,-0.338319,0.0,0.0
2890,722.25,45.1936,47.2035,128.336,112.975,116.254,0.000459267,0.0473074,21.0142,497.872,-0.254422,0.0,0.0
2907,726.5,44.8221,46.4171,129.22,113.028,117.361,0.000410943,0.0473941,21.0149,497.882,-0.334553,0.0,0.0
2924,730.75,45.4375,47.0273,134.433,113.076,117.479,0.000480733,0.047384,21.015,497.882,-0.339737,0.0,0.0
2941,735,45.1647,47.0219,132.26,113.102,116.472,0.000489841,0.0473945,21.0144,497.902,-0.26113,0.0,0.0
2958,739.25,45.4869,47.0084,129.287,113.123,116.55,0.000403362,0.0473439,21.0143,497.892,-0.265393,0.0,0.0
2975,743.5,44.8501,47.0563,131.496,113.139,117.457,0.000394605,0.0474483,21.0157,497.892,-0.333088,0.0,0.0
2992,747.75,45.0902,46.9638,132.186,113.175,117.198,0.00057293,0.0474208,21.0142,497.872,-0.310667,0.0,0.0
3009,752,45.4093,47.3225,129.098,113.147,117.92,0.000598063,0.0475615,21.0144,497.892,-0.367394,0.0,0.0
3026,756.25,44.9837,47.1319,127.741,113.138,117.296,0.000641613,0.0472872,21.0148,497.872,-0.320958,0.0,0.0
3043,760.5,45.3419,47.1543,130.968,113.139,118.055,0.000575248,0.0472847,21.0156,497.872,-0.378225,0.0,0.0
3060,764.75,44.7635,46.8276,130.024,113.112,117.828,0.0003265,0.0473172,21.0145,497.892,-0.363309,0.0,0.0
3077,769,45.0139,47.4069,131.096,113.056,117.764,0.000386743,0.0473926,21.0142,497.892,-0.362823,0.0,0.0
3094,773.25,45.2883,47.2729,132.196,113.006,116.483,0.000243879,0.0474167,21.0149,497.892,-0.269471,0.0,0.0
3111,777.5,45.0461,47.4866,128.989,112.94,116.884,0.000370769,0.0475032,21.0147,497.882,-0.305206,0.0,0.0
3128,781.75,45.4382,47.4227,133.373,112.855,116.842,0.000368263,0.0475204,21.014,497.882,-0.308715,0.0,0.0
3145,786,45.4765,47.4282,133.36,112.777,116.342,0.000398835,0.0475672,21.0138,497.892,-0.276721,0.0,0.0
3162,790.25,45.5307,47.1084,133.566,112.674,117.263,0.000465765,0.0476696,21.0127,497.902,-0.355025,0.0,0.0
3179,794.5,45.356,47.2944,132.122,112.643,116.827,0.000675433,0.0476644,21.0134,497.872,-0.324327,0.0,0.0
3196,798.75,45.5775,47.3881,130.748,112.693,117.177,0.000371617,0.0476619,21.0131,497.872,-0.347043,0.0,0.0
3213,803,45.3003,47.104,131.086,112.728,117.202,0.000176481,0.0477272,21.0131,497.882,-0.346142,0.0,0.0
3230,807.25,45.4896,47.2781,135.903,112.749,116.04,0.000327758,0.0477998,21.0129,497.902,-0.255834,0.0,0.0
3247,811.5,44.8783,47.3574,131.829,112.772,116.798,0.000333104,0.0478764,21.0128,497.912,-0.311926,0.0,0.0
3264,815.75,45.56,47.5204,132.234,112.821,117.761,0.000279006,0.0478365,21.0141,497.902,-0.381052,0.0,0.0
3281,820,45.1692,47.6256,133.305,112.845,117.141,0.000330999,0.0478122,21.0153,497.892,-0.332215,0.0,0.0
3298,824.25,45.0769,47.0574,133.405,112.883,116.854,0.000243839,0.0480091,21.0158,497.892,-0.307425,0.0,0.0
3315,828.5,44.9668,47.0839,131.173,112.955,116.669,0.00027115,0.0479087,21.0158,497.872,-0.287694,0.0,0.0
3332,832.75,45.9066,46.9233,130.751,113.012,116.988,0.000237834,0.0479958,21.0152,497.872,-0.307528,0.0,0.0
3349,837,45.3331,47.3058,127.512,113.067,116.651,0.000346822,0.048115,21.015,497.862,-0.277524,0.0,0.0
3366,841.25,44.7625,47.1157,132.328,113.15,117.31,0.000389498,0.0481468,21.0171,497.872,-0.321145,0.0,0.0
3383,845.5,45.126,46.7058,132.249,113.196,116.404,0.000238085,0.0480318,21.0177,497.882,-0.248591,0.0,0.0
3400,849.75,45.0224,47.2269,130.845,113.229,117.825,0.000167589,0.0479777,21.0167,497.872,-0.35385,0.0,0.0
3417,854,45.2209,47.4769,131.448,113.262,117.299,9.27898e-05,0.0480084,21.0168,497.872,-0.311461,0.0,0.0
3434,858.25,45.2673,47.157,132.437,113.321,117.692,0.000190011,0.0479804,21.0159,497.872,-0.336531,0.0,0.0
3451,862.5,45.0742,47.065,131.404,113.335,118.008,0.000209082,0.0479937,21.0147,497.872,-0.359354,0.0,0.0
3468,866.75,44.3775,47.2242,131.346,113.37,116.736,0.000450939,0.0481681,21.0153,497.882,-0.260202,0.0,0.0
3485,871,45.5027,47.4188,137.24,113.427,118.246,0.000554875,0.0480935,21.0161,497.892,-0.370003,0.0,0.0
3502,875.25,45.2058,47.4991,133.554,113.447,117.168,0.000553543,0.0481199,21.0145,497.862,-0.28704,0.0,0.0
3519,879.5,45.2689,47.1453,127.723,113.498,117.059,0.000460829,0.048365,21.0141,497.892,-0.274766,0.0,0.0
3536,883.75,45.6929,47.6443,129.589,113.523,117.555,0.000298379,0.0484078,21.014,497.862,-0.310377,0.0,0.0
3553,888,44.7576,47.406,132.495,113.541,118.506,0.00012712,0.048453,21.014,497.892,-0.380631,0.0,0.0
3570,892.25,45.0416,46.8975,128.551,113.55,116.848,0.000315446,0.0484448,21.0121,497.872,-0.254641,0.0,0.0
3587,896.5,45.2607,47.1548,132.502,113.584,117.741,0.000556843,0.0486124,21.0135,497.862,-0.319639,0.0,0.0
3604,900.75,45.3144,47.3553,131.732,113.6,117.712,0.000429937,0.0484387,21.0139,497.882,-0.316173,0.0,0.0
3621,905,45.3027,47.1952,131.276,113.609,117.58,0.000328402,0.0485254,21.014,497.872,-0.305585,0.0,0.0
3638,909.25,45.2339,46.95,131.157,113.641,117.665,0.000470338,0.0487461,21.0129,497.862,-0.309407,0.0,0.0
3655,913.5,45.3679,47.3628,132.86,113.653,118.054,0.000455741,0.0486194,21.013,497.841,-0.337857,0.0,0.0
3672,917.75,45.4255,47.4142,129.132,113.644,117.523,0.00058452,0.0487736,21.0114,497.872,-0.298546,0.0,0.0
3689,922,45.164,47.4096,128.604,113.651,117.654,0.000534597,0.0487332,21.0109,497.841,-0.307821,0.0,0.0
3706,926.25,45.8951,47.3286,133.727,113.641,117.51,0.000368298,0.0487589,21.0132,497.872,-0.297723,0.0,0.0
3723,930.5,45.2722,47.2242,132.876,113.626,118.262,9.00101e-05,0.0488175,21.0134,497.872,-0.355594,0.0,0.0
3740,934.75,45.4724,47.1987,132.207,113.607,117.906,0.000155284,0.0489036,21.0139,497.831,-0.33033,0.0,0.0
3757,939,45.4909,47.1415,133.604,113.575,117.295,0.000473875,0.048878,21.0144,497.872,-0.286658,0.0,0.0
3774,943.25,45.4155,47.0276,132.028,113.553,116.786,0.000626046,0.0488111,21.0136,497.831,-0.249599,0.0,0.0
3791,947.5,45.612,47.3024,129.933,113.502,117.235,0.000497664,0.0489447,21.0132,497.862,-0.287794,0.0,0.0
3808,951.75,45.7445,47.4778,128.04,113.455,118.157,0.000247621,0.0489163,21.0128,497.852,-0.36107,0.0,0.0
3825,956,45.0947,47.4355,132.627,113.403,119.13,0.00038068,0.048931,21.014,497.852,-0.438103,0.0,0.0
3842,960.25,45.5854,47.7414,133.334,113.342,116.538,0.000326303,0.0487443,21.0145,497.882,-0.247293,0.0,0.0
3859,964.5,45.7593,47.4836,133.128,113.257,116.749,0.000476288,0.0486703,21.0146,497.862,-0.27007,0.0,0.0
3876,968.75,45.5189,47.2924,133.269,113.185,116.837,0.000425908,0.0485852,21.0146,497.872,-0.282427,0.0,0.0
3893,973,45.5463,47.2621,132.157,113.073,116.918,0.000406736,0.0483961,21.0127,497.872,-0.297341,0.0,0.0
3910,977.25,45.4958,47.8048,134.991,112.972,116.862,0.000652542,0.0484975,21.0128,497.882,-0.301048,0.0,0.0
3927,981.5,44.9655,47.7041,129.745,112.901,117.944,0.000912113,0.0485823,21.0129,497.892,-0.388604,0.0,0.0
3944,985.75,45.5871,47.4584,132.633,112.813,116.588,0.000629346,0.0484913,21.013,497.862,-0.292752,0.0,0.0
3961,990,45.9092,47.3739,130.764,112.741,117.317,0.000636305,0.0486703,21.013,497.862,-0.353815,0.0,0.0
3978,994.25,46.0014,47.804,130.664,112.639,116.889,0.000336582,0.0489554,21.013,497.882,-0.329371,0.0,0.0
3995,998.5,46.0563,47.7714,133.429,112.552,117.522,0.000195241,0.0487699,21.0128,497.882,-0.384253,0.0,0.0
4012,1002.75,45.4667,47.6319,131.977,112.489,116.981,0.000331969,0.0487178,21.012,497.892,-0.348224,0.0,0.0
4029,1007,45.7882,47.0557,129.68,112.424,116.676,0.000244793,0.0487314,21.0113,497.872,-0.330139,0.0,0.0
4046,1011.25,45.6475,47.3363,132.218,112.372,116.639,0.000112836,0.0487138,21.0102,497.882,-0.331439,0.0,0.0
4063,1015.5,45.7411,47.6657,136.075,112.302,115.954,0.000100996,0.0484809,21.0129,497.892,-0.284584,0.0,0.0
4080,1019.75,45.5893,47.7069,132.311,112.238,117.251,0.000260802,0.0486209,21.0122,497.862,-0.38856,0.0,0.0
4097,1024,45.4971,47.1861,133.859,112.205,115.586,0.000553634,0.0484076,21.0123,497.872,-0.26397,0.0,0.0
4114,1028.25,45.6566,47.9979,127.865,112.124,116.392,0.00045148,0.0485007,21.0123,497.882,-0.332165,0.0,0.0
4131,1032.5,45.5856,47.5875,127.955,112.082,115.271,0.000203308,0.0484645,21.0129,497.902,-0.24948,0.0,0.0
4148,1036.75,46.02,47.3184,128.813,112.037,115.927,9.64825e-05,0.0483281,21.0124,497.882,-0.303585,0.0,0.0
4165,1041,46.0239,47.4603,136.223,111.993,116.222,0.000240554,0.048319,21.0123,497.872,-0.329623,0.0,0.0
4182,1045.25,45.9113,47.4531,133.104,111.966,114.624,0.000282619,0.0483551,21.0122,497.882,-0.208645,0.0,0.0
4199,1049.5,45.1512,47.4861,131.813,111.9,116.026,0.000551985,0.0482217,21.0109,497.892,-0.321988,0.0,0.0
4216,1053.75,45.5743,47.3863,131.661,111.867,116.016,0.000555615,0.0481586,21.0107,497.872,-0.323801,0.0,0.0
4233,1058,45.4136,47.4647,132.437,111.829,115.982,0.000472161,0.0482063,21.0115,497.882,-0.324255,0.0,0.0
4250,1062.25,45.4646,47.6639,130.919,111.805,116.129,0.000519771,0.0483328,21.012,497.882,-0.337424,0.0,0.0
4267,1066.5,45.2962,47.3297,130.015,111.777,116.048,0.000531504,0.048364,21.0116,497.892,-0.333431,0.0,0.0
4284,1070.75,45.7118,47.3577,135.049,111.74,116.562,0.000653357,0.0482061,21.0116,497.882,-0.375713,0.0,0.0
4301,1075,45.6397,47.3673,134.605,111.732,115.641,0.000540791,0.0484166,21.0127,497.841,-0.305791,0.0,0.0
4318,1079.25,45.4565,47.9613,128.548,111.696,116.526,0.000561807,0.0483639,21.0116,497.882,-0.376501,0.0,0.0
4335,1083.5,45.213,47.4528,129.443,111.684,116.277,0.000518418,0.048507,21.0109,497.872,-0.358451,0.0,0.0
4352,1087.75,45.5489,47.5553,131.346,111.677,115.903,0.000231152,0.0482504,21.0126,497.882,-0.330302,0.0,0.0
4369,1092,45.5934,47.6709,131.107,111.699,114.922,0.000105093,0.0481858,21.0133,497.892,-0.252994,0.0,0.0
4386,1096.25,45.3128,47.3878,133.504,111.712,115.466,0.000253489,0.0482687,21.0139,497.862,-0.293925,0.0,0.0
4403,1100.5,45.4565,46.941,131.831,111.722,115.454,-3.10192e-05,0.0481273,21.0135,497.862,-0.292194,0.0,0.0
4420,1104.75,45.6838,47.3089,131.705,111.753,116.501,0.000124836,0.0481451,21.0139,497.852,-0.370049,0.0,0.0
4437,1109,45.2715,47.6105,132.74,111.78,116.131,0.000344335,0.0480913,21.0144,497.862,-0.339602,0.0,0.0
4454,1113.25,45.2562,47.0375,132.511,111.828,116.097,0.000311836,0.0480598,21.0141,497.872,-0.333132,0.0,0.0
4471,1117.5,45.1508,46.9974,131.931,111.858,116.211,0.000399046,0.0480255,21.0114,497.872,-0.339507,0.0,0.0
4488,1121.75,45.3059,46.8468,132.066,111.902,116.579,0.000333996,0.048062,21.0121,497.862,-0.364121,0.0,0.0
4505,1126,45.1475,47.0625,129.855,111.926,115.95,0.00016747,0.0480477,21.0123,497.841,-0.314051,0.0,0.0
4522,1130.25,45.0043,47.219,131.083,111.955,116.119,0.000167367,0.0483053,21.0123,497.872,-0.324754,0.0,0.0
4539,1134.5,45.1725,47.1586,133.04,112.013,115.571,0.000415132,0.0484426,21.0109,497.862,-0.278051,0.0,0.0
4556,1138.75,44.7037,46.7795,132.782,112.059,116.078,0.000588826,0.0484231,21.0114,497.862,-0.313353,0.0,0.0
4573,1143,45.1997,46.6977,133.57,112.099,116.624,0.000473512,0.0484333,21.0122,497.872,-0.351981,0.0,0.0
4590,1147.25,45.2556,46.8811,132.952,112.18,116.567,0.000345735,0.0483296,21.0123,497.892,-0.341129,0.0,0.0
4607,1151.5,45.0784,46.9727,133.085,112.222,117.208,0.000530128,0.0485744,21.0136,497.852,-0.386577,0.0,0.0
4624,1155.75,45.0151,47.1169,133.969,112.28,117.06,0.000395663,0.0485797,21.0138,497.872,-0.370716,0.0,0.0
4641,1160,44.8465,47.198,133.431,112.333,117.04,-9.8936e-06,0.0486693,21.0127,497.852,-0.36508,0.0,0.0
4658,1164.25,45.4658,47.0376,129.908,112.391,116.651,0.000125942,0.0485427,21.0129,497.852,-0.330862,0.0,0.0
4675,1168.5,44.9918,46.8965,131.479,112.46,116.489,0.0002613,0.0486528,21.013,497.872,-0.313007,0.0,0.0
4692,1172.75,44.7525,46.6754,135.576,112.529,116.044,0.000419703,0.0487814,21.013,497.852,-0.273544,0.0,0.0
4709,1177,45.2684,47.1164,131.799,112.586,116.517,0.000337976,0.0487533,21.013,497.872,-0.30525,0.0,0.0
4726,1181.25,44.9735,46.8174,131.341,112.621,117.293,0.000371201,0.0487678,21.013,497.872,-0.361487,0.0,0.0
4743,1185.5,45.334,47.3554,130.232,112.685,117.054,0.000412942,0.0486443,21.0125,497.862,-0.338274,0.0,0.0
4760,1189.75,44.8602,47.2264,133.547,112.751,116.814,0.000354083,0.0486646,21.0128,497.872,-0.314845,0.0,0.0
4777,1194,45.2816,47.1339,131.946,112.778,117.063,0.000260055,0.0487248,21.0131,497.852,-0.331636,0.0,0.0
4794,1198.25,45.4033,47.1368,131.524,112.839,116.709,0.000213945,0.0485566,21.0134,497.852,-0.299936,0.0,0.0
4811,1202.5,45.3111,47.2509,130.854,112.87,117.416,0.000489096,0.0486028,21.0134,497.882,-0.351096,0.0,0.0
4828,1206.75,45.4457,47.3986,133.318,112.889,117.558,0.000516548,0.0485019,21.0132,497.862,-0.360441,0.0,0.0
4845,1211,45.2729,46.8657,131.166,112.914,117.351,0.000483465,0.0483561,21.0139,497.852,-0.342742,0.0,0.0
4862,1215.25,45.4108,47.2631,132.121,112.947,116.794,0.000560258,0.0483548,21.0143,497.882,-0.297827,0.0,0.0
4879,1219.5,45.079,46.9956,131.725,112.989,116.728,0.000501943,0.0482742,21.0144,497.892,-0.289511,0.0,0.0
4896,1223.75,45.6683,46.9181,131.846,113.013,116.966,0.00051373,0.0484037,21.0144,497.852,-0.30576,0.0,0.0
4913,1228,45.6933,47.6549,132.4,112.996,116.946,0.000454874,0.0482404,21.0135,497.852,-0.305535,0.0,0.0
4930,1232.25,45.5764,47.4328,128.939,113.03,117.116,0.000380173,0.0482554,21.0141,497.862,-0.315866,0.0,0.0
4947,1236.5,45.3424,47.5046,133.421,113.03,116.803,0.000194503,0.0480541,21.0151,497.872,-0.292064,0.0,0.0
4964,1240.75,45.3297,47.0782,131.967,113.058,115.887,0.000162104,0.0481239,21.0157,497.862,-0.219781,0.0,0.0
4981,1245,45.8866,46.8883,133.205,113.07,117.453,0.00049009,0.0480795,21.0162,497.882,-0.338238,0.0,0.0
4998,1249.25,45.6209,47.335,131.908,113.055,118.177,0.000542311,0.0480134,21.0154,497.862,-0.394042,0.0,0.0
5015,1253.5,45.5005,47.4875,133.466,113.069,117.215,0.00033987,0.0479188,21.015,497.852,-0.320282,0.0,0.0
5032,1257.75,45.6381,47.6784,129.45,113.078,116.868,0.000441137,0.0479803,21.0147,497.862,-0.29316,0.0,0.0
5049,1262,45.7343,46.9928,128.748,113.077,118.512,0.000277667,0.0478522,21.0161,497.872,-0.417493,0.0,0.0
5066,1266.25,45.0621,47.1135,129.909,113.069,117.038,7.24728e-05,0.0478263,21.015,497.862,-0.306783,0.0,0.0
5083,1270.5,45.3453,47.294,129.261,113.087,116.558,6.81582e-05,0.0478362,21.014,497.882,-0.268826,0.0,0.0
5100,1274.75,45.7429,47.5486,130.283,113.09,117.121,4.92816e-05,0.0478026,21.0155,497.882,-0.311473,0.0,0.0
5117,1279,45.3004,47.0846,132.398,113.079,117.083,0.000339341,0.0476837,21.0173,497.862,-0.309434,0.0,0.0
5134,1283.25,45.4269,47.3117,131.693,113.069,116.945,0.000224872,0.0477273,21.0173,497.841,-0.299675,0.0,0.0
5151,1287.5,45.8246,46.948,127.726,113.078,117.503,3.05414e-05,0.0476149,21.0156,497.841,-0.341402,0.0,0.0
5168,1291.75,45.8029,47.2794,129.694,113.068,117.879,-2.47609e-05,0.0476529,21.0153,497.882,-0.370529,0.0,0.0
5185,1296,45.1211,46.9498,133.053,113.061,116.683,0.000136117,0.0475762,21.0153,497.872,-0.280428,0.0,0.0
5202,1300.25,45.5894,47.5422,130.2,113.095,117.335,0.000145968,0.0475518,21.0149,497.892,-0.327311,0.0,0.0
5219,1304.5,45.5579,47.398,129.02,113.075,117.239,0.000233053,0.0475567,21.0147,497.882,-0.321633,0.0,0.0
5236,1308.75,45.946,47.4713,131.423,113.062,117.324,0.00028998,0.0475855,21.0146,497.872,-0.329063,0.0,0.0
5253,1313,45.5197,47.2442,134.108,113.077,116.924,0.000432437,0.0475206,21.0134,497.882,-0.297484,0.0,0.0
5270,1317.25,45.9431,47.4846,133.237,113.074,117.451,0.000395978,0.0473968,21.0125,497.852,-0.3378,0.0,0.0
5287,1321.5,45.8055,47.549,132.487,113.063,116.714,0.000397825,0.0473713,21.0143,497.852,-0.282612,0.0,0.0
5304,1325.75,45.1193,47.2078,132.27,113.075,118.124,0.000401866,0.0474964,21.0146,497.872,-0.388418,0.0,0.0
5321,1330,45.9227,47.0446,132.003,113.067,117.084,0.000218522,0.0475778,21.0146,497.892,-0.310509,0.0,0.0
5338,1334.25,45.8659,47.7798,129.981,113.057,117.316,0.000352262,0.047536,21.0146,497.882,-0.328843,0.0,0.0
5355,1338.5,45.8907,47.4012,131.551,113.074,117.222,0.000226518,0.047548,21.0128,497.841,-0.320393,0.0,0.0
5372,1342.75,45.2586,47.6657,133.513,113.051,117.82,0.000105834,0.047463,21.0138,497.862,-0.367436,0.0,0.0
5389,1347,45.3308,47.4635,131.285,113.039,117.159,2.23498e-05,0.0475706,21.0141,497.862,-0.318354,0.0,0.0
5406,1351.25,45.5535,47.0228,128.742,113.039,117.038,7.06018e-05,0.047595,21.0129,497.852,-0.309133,0.0,0.0
5423,1355.5,45.567,47.5897,132.683,113.023,116.174,0.00024117,0.0478442,21.0121,497.862,-0.24457,0.0,0.0
5440,1359.75,45.307,46.9414,134.583,113.006,117.007,0.00030295,0.047818,21.0137,497.872,-0.309383,0.0,0.0
5457,1364,45.3687,47.5815,132.267,112.98,117.698,0.000310739,0.0477256,21.0153,497.872,-0.363866,0.0,0.0
5474,1368.25,45.6054,47.0406,129.05,112.952,117.055,0.000298639,0.0475063,21.0164,497.882,-0.317336,0.0,0.0
5491,1372.5,45.8412,47.3874,129.205,112.915,117.661,0.000507576,0.0474035,21.0151,497.872,-0.366093,0.0,0.0
5508,1376.75,45.3041,47.1283,127.291,112.879,117.113,0.000309624,0.0475488,21.0147,497.831,-0.327523,0.0,0.0
5525,1381,45.3857,47.4115,132.518,112.853,117.169,0.000552766,0.0476675,21.0146,497.872,-0.333803,0.0,0.0
5542,1385.25,45.1545,47.2638,130.516,112.79,117.034,0.000344912,0.047633,21.0146,497.892,-0.328431,0.0,0.0
5559,1389.5,45.3203,47.4041,128.658,112.739,116.711,0.000474247,0.0476487,21.0146,497.831,-0.30792,0.0,0.0
5576,1393.75,45.4714,47.6172,129.761,112.704,115.991,7.56002e-05,0.0477713,21.0146,497.822,-0.255669,0.0,0.0
5593,1398,45.3494,47.0993,130.938,112.624,117.631,0.00035077,0.0478931,21.0146,497.862,-0.386819,0.0,0.0
5610,1402.25,45.2303,46.8083,131.476,112.551,117.15,0.000513738,0.0479054,21.0146,497.872,-0.356205,0.0,0.0
5627,1406.5,45.9086,47.3835,131.383,112.485,115.73,0.000678689,0.0477945,21.0146,497.862,-0.252957,0.0,0.0
5644,1410.75,45.0993,47.4029,129.994,112.436,115.99,0.000655784,0.0479133,21.013,497.841,-0.27669,0.0,0.0
5661,1415,44.9184,47.1956,133.269,112.414,117.111,0.000365733,0.0480127,21.0124,497.852,-0.364022,0.0,0.0
5678,1419.25,45.327,47.571,127.289,112.387,116.658,0.000226124,0.0482257,21.0123,497.882,-0.331689,0.0,0.0
5695,1423.5,45.0655,47.2328,131.447,112.378,116.343,0.0002996,0.0483439,21.0123,497.862,-0.30843,0.0,0.0
5712,1427.75,45.271,46.7082,133.205,112.353,117.008,0.000437912,0.0484038,21.0111,497.852,-0.360994,0.0,0.0
5729,1432,45.6316,47.0193,131.821,112.338,116.902,0.000499632,0.0486808,21.0108,497.852,-0.354176,0.0,0.0
5746,1436.25,45.404,46.9477,131.566,112.32,116.458,0.000320753,0.0487492,21.0102,497.831,-0.321763,0.0,0.0
5763,1440.5,45.1683,47.3323,128.27,112.334,116.287,0.000471569,0.0485687,21.0106,497.852,-0.307563,0.0,0.0
5780,1444.75,45.4065,46.7721,135.139,112.401,116.367,0.000436476,0.0483922,21.0116,497.852,-0.308387,0.0,0.0
5797,1449,45.3722,46.9768,133.346,112.473,116.249,0.000497284,0.048367,21.0127,497.841,-0.29367,0.0,0.0
5814,1453.25,45.284,46.8516,129.993,112.547,116.794,0.000423441,0.0484228,21.0129,497.852,-0.329406,0.0,0.0
5831,1457.5,44.977,47.0583,133.258,112.59,117.088,0.000286378,0.0485873,21.013,497.862,-0.348378,0.0,0.0
5848,1461.75,45.2288,47.3691,132.963,112.633,117.508,7.05828e-05,0.0482866,21.0134,497.862,-0.376801,0.0,0.0
5865,1466,45.1468,47.1389,129.335,112.704,117.586,0.000215753,0.048565,21.0125,497.822,-0.377103,0.0,0.0
5882,1470.25,45.75,46.746,133.205,112.771,117.218,0.000205863,0.0485351,21.0134,497.831,-0.343978,0.0,0.0
5899,1474.5,44.9652,46.4827,130.19,112.84,116.377,0.000173558,0.0485884,21.0142,497.862,-0.274432,0.0,0.0
5916,1478.75,45.2504,46.956,131.183,112.914,117.042,0.000337361,0.0487485,21.0144,497.872,-0.319258,0.0,0.0
5933,1483,45.4072,47.2743,130.529,112.971,116.345,0.000417046,0.048857,21.0144,497.841,-0.261734,0.0,0.0
5950,1487.25,45.1786,47.0639,131.856,113.017,116.579,0.000356292,0.0489038,21.0114,497.862,-0.275909,0.0,0.0
5967,1491.5,45.0207,47.1568,131.181,113.074,117.354,0.000314619,0.0489325,21.0104,497.862,-0.330408,0.0,0.0
5984,1495.75,45.8602,47.4597,134.795,113.122,117.302,0.000233305,0.0489383,21.0113,497.831,-0.322664,0.0,0.0
6001,1500,45.9189,47.2706,130.075,113.145,116.78,0.000189674,0.0489336,21.0119,497.841,-0.281229,0.0,0.0
6018,1504.25,45.7309,47.633,130.877,113.194,118.229,0.000480517,0.0487792,21.0119,497.862,-0.387034,0.0,0.0
6035,1508.5,45.4268,47.6067,132.512,113.208,117.519,0.000309745,0.0488626,21.0124,497.852,-0.33233,0.0,0.0
6052,1512.75,45.707,47.3632,131.725,113.205,117.86,0.000377287,0.0485603,21.013,497.862,-0.35831,0.0,0.0
6069,1517,45.6712,47.5467,130.995,113.218,117.314,0.000507184,0.0483573,21.0143,497.862,-0.315996,0.0,0.0
6086,1521.25,45.9686,47.7385,130.709,113.225,117.082,0.000443919,0.0482394,21.0129,497.841,-0.297914,0.0,0.0
6103,1525.5,45.7527,47.7424,130.48,113.208,117.611,0.000515734,0.0483827,21.014,497.841,-0.339326,0.0,0.0
6120,1529.75,45.8064,47.7249,131.351,113.187,117.031,0.000546826,0.0483902,21.015,497.862,-0.297048,0.0,0.0
6137,1534,45.7559,47.633,131.036,113.192,117.881,0.000450363,0.0482605,21.0136,497.872,-0.36099,0.0,0.0
6154,1538.25,45.6939,47.3529,128.797,113.177,117.818,0.000284796,0.0481655,21.0144,497.862,-0.357371,0.0,0.0
6171,1542.5,46.172,47.3768,131.791,113.146,118.119,0.00038504,0.0481669,21.0151,497.841,-0.38255,0.0,0.0
6188,1546.75,45.5596,47.1283,130.545,113.115,117.007,0.000434371,0.0480957,21.014,497.841,-0.300826,0.0,0.0
6205,1551,45.8097,47.433,134.053,113.093,116.866,0.000249935,0.0481743,21.0134,497.852,-0.291867,0.0,0.0
6222,1555.25,45.5739,47.3087,130.325,113.019,116.926,0.000339009,0.047885,21.0128,497.831,-0.30224,0.0,0.0
6239,1559.5,45.7396,47.8791,133.255,112.986,117.835,0.000250754,0.0480438,21.0116,497.862,-0.373724,0.0,0.0
6256,1563.75,45.8234,48.1644,129.877,112.934,117.841,0.000134145,0.0481876,21.0129,497.852,-0.378218,0.0,0.0
6273,1568,45.7109,47.8267,132.594,112.857,116.895,0.000284508,0.0481158,21.0135,497.852,-0.312632,0.0,0.0
6290,1572.25,45.8671,47.707,131.198,112.78,116.948,0.00040947,0.0480301,21.0136,497.872,-0.322764,0.0,0.0
6307,1576.5,45.7705,47.9943,133.127,112.728,116.887,0.000206641,0.0480175,21.0136,497.872,-0.322238,0.0,0.0
6324,1580.75,45.6101,47.7528,134.294,112.738,117.038,0.000410371,0.0478755,21.0136,497.862,-0.332927,0.0,0.0
6341,1585,45.4851,47.2735,131.486,112.767,116.905,0.000343515,0.0479391,21.0136,497.872,-0.320515,0.0,0.0
6358,1589.25,45.7462,48.0086,131.573,112.798,117.079,0.000178038,0.0479492,21.0149,497.862,-0.331223,0.0,0.0
6375,1593.5,45.6665,47.6535,128.147,112.84,116.608,0.000318128,0.047962,21.0139,497.892,-0.292045,0.0,0.0
6392,1597.75,45.3497,47.4409,131.4,112.886,115.97,0.000382975,0.0479703,21.0137,497.841,-0.239738,0.0,0.0
6409,1602,45.2107,48.0124,131.199,112.925,117.707,0.000406851,0.048022,21.0159,497.841,-0.368802,0.0,0.0
6426,1606.25,45.7192,47.3678,130.868,113.004,117.266,0.000311324,0.0480925,21.0179,497.882,-0.32924,0.0,0.0
6443,1610.5,45.4291,47.0678,128.713,113.02,116.565,8.57735e-05,0.0481858,21.0179,497.892,-0.274613,0.0,0.0
6460,1614.75,45.3417,47.6078,130.411,113.078,117.179,0.000128748,0.0481669,21.0168,497.852,-0.316794,0.0,0.0
6477,1619,45.241,47.2671,130.173,113.146,117.173,2.0898e-05,0.0481665,21.0173,497.852,-0.31102,0.0,0.0
6494,1623.25,45.7476,47.162,131.676,113.186,116.72,0.000396758,0.0480838,21.0156,497.852,-0.273417,0.0,0.0
6511,1627.5,45.533,47.3273,130.29,113.251,117.446,0.000673953,0.0481134,21.014,497.852,-0.323446,0.0,0.0
6528,1631.75,45.3896,46.8266,129.665,113.308,117.401,0.000696266,0.0481956,21.0137,497.862,-0.315535,0.0,0.0
6545,1636,45.4799,47.4492,133.442,113.338,118.016,0.000355403,0.0480895,21.0131,497.852,-0.359679,0.0,0.0
6562,1640.25,45.4686,46.9203,136.156,113.399,117.884,0.000445648,0.0482167,21.0123,497.852,-0.344953,0.0,0.0
6579,1644.5,45.4253,47.6557,128.525,113.457,117.462,0.000588315,0.0481075,21.0134,497.852,-0.308526,0.0,0.0
6596,1648.75,45.5036,47.6212,130.186,113.499,118.279,0.000285326,0.0481226,21.0149,497.852,-0.366833,0.0,0.0
6613,1653,45.4106,47.119,132.182,113.548,117.247,0.000418127,0.0481644,21.015,497.862,-0.285095,0.0,0.0
6630,1657.25,45.3788,47.5382,131.06,113.585,118.654,0.000571238,0.0483657,21.016,497.882,-0.388238,0.0,0.0
6647,1661.5,45.3171,47.3936,132.052,113.613,117.774,0.000604058,0.0483152,21.0153,497.852,-0.319897,0.0,0.0
6664,1665.75,45.5304,47.3025,131.218,113.64,117.649,0.000326893,0.0484353,21.0142,497.852,-0.308362,0.0,0.0
6681,1670,45.3578,47.5885,131.883,113.667,118.231,0.000251017,0.0484308,21.0135,497.862,-0.350108,0.0,0.0
6698,1674.25,45.2522,47.836,133.124,113.702,117.402,0.000301597,0.0485009,21.0133,497.872,-0.284775,0.0,0.0
6715,1678.5,45.7389,47.625,127.157,113.707,117.952,0.000478405,0.0485472,21.0133,497.852,-0.325973,0.0,0.0
6732,1682.75,45.594,47.3882,131.974,113.712,117.887,0.000395843,0.048584,21.0133,497.831,-0.320677,0.0,0.0
6749,1687,45.5673,47.277,131.63,113.747,117.649,0.000164009,0.0485026,21.0133,497.822,-0.299991,0.0,0.0
6766,1691.25,45.3533,47.3362,133.888,113.737,116.965,0.000282546,0.0483351,21.0125,497.841,-0.248842,0.0,0.0
6783,1695.5,45.7972,46.9816,130.782,113.737,117.179,0.000369766,0.0483723,21.0112,497.862,-0.265129,0.0,0.0
6800,1699.75,45.582,47.6477,128.898,113.737,118.104,0.000206583,0.0484389,21.011,497.841,-0.335049,0.0,0.0
6817,1704,45.5136,47.3005,135.523,113.728,118.602,0.000340946,0.0485904,21.0121,497.831,-0.373141,0.0,0.0
6834,1708.25,45.4364,47.4503,131.278,113.73,117.523,0.000462674,0.0486707,21.0131,497.841,-0.291807,0.0,0.0
6851,1712.5,45.5257,47.4193,131.484,113.715,117.941,0.000365905,0.0486636,21.0132,497.852,-0.324492,0.0,0.0
6868,1716.75,45.4999,47.5019,130.056,113.7,118.044,0.000577522,0.0488497,21.0126,497.841,-0.333475,0.0,0.0
6885,1721,45.7528,47.1226,135.349,113.675,117.751,0.000650221,0.0488962,21.0115,497.862,-0.313235,0.0,0.0
6902,1725.25,45.5088,47.9051,130.15,113.669,118.681,0.000264201,0.0488202,21.0113,497.872,-0.383691,0.0,0.0
6919,1729.5,45.5388,47.2976,133.3,113.653,117.79,0.000258113,0.0485845,21.0118,497.872,-0.317893,0.0,0.0
6936,1733.75,45.8697,47.3819,131.849,113.635,117.793,0.000229858,0.048633,21.0133,497.862,-0.319616,0.0,0.0
6953,1738,45.3519,47.1583,129.485,113.634,118.203,5.21154e-05,0.0483686,21.0125,497.852,-0.350592,0.0,0.0
6970,1742.25,45.1893,47.2035,133.75,113.623,118.342,0.000241092,0.0481695,21.0108,497.852,-0.36184,0.0,0.0
6987,1746.5,46.1933,47.92,131.476,113.587,117.516,0.000206882,0.0481607,21.0115,497.862,-0.302406,0.0,0.0
7004,1750.75,45.8917,47.2717,132.074,113.569,118.017,5.13903e-06,0.0480079,21.0124,497.852,-0.341628,0.0,0.0
7021,1755,45.49,47.4994,133.169,113.548,117.845,0.000477025,0.047822,21.0132,497.872,-0.330309,0.0,0.0
7038,1759.25,45.5025,47.8188,130.893,113.526,118.599,0.000400562,0.0477055,21.0139,497.852,-0.388741,0.0,0.0
7055,1763.5,45.8034,47.4639,132.811,113.503,117.206,0.000323067,0.0476795,21.0142,497.831,-0.28556,0.0,0.0
7072,1767.75,45.9645,47.7627,132.54,113.499,118.168,0.00019397,0.0476359,21.0143,497.872,-0.358502,0.0,0.0
7089,1772,45.7515,47.5026,129.778,113.465,117.652,0.000502771,0.0477517,21.0143,497.932,-0.322261,0.0,0.0
7106,1776.25,45.3916,47.4353,128.963,113.445,118.87,0.000566623,0.0477141,21.0143,497.882,-0.415388,0.0,0.0
7123,1780.5,45.624,48.1447,134.672,113.408,118.152,0.000348015,0.0476975,21.0154,497.852,-0.364385,0.0,0.0
7140,1784.75,45.8325,47.3314,132.792,113.395,117.082,0.000306379,0.0477533,21.0155,497.872,-0.284607,0.0,0.0
7157,1789,45.8937,47.5689,129.604,113.348,116.604,0.000100314,0.0479374,21.015,497.852,-0.251835,0.0,0.0
7174,1793.25,45.6634,47.7481,131.468,113.322,117.083,0.000139306,0.0477257,21.0154,497.852,-0.290411,0.0,0.0
7191,1797.5,45.7644,47.1506,132.245,113.317,117.3,0.000148172,0.047727,21.0169,497.822,-0.307159,0.0,0.0
7208,1801.75,44.7365,47.1184,130.753,113.288,117.409,0.000466438,0.0477532,21.0158,497.862,-0.317788,0.0,0.0
7225,1806,45.321,46.8807,132.192,113.262,117.277,0.000539058,0.0479449,21.015,497.822,-0.309804,0.0,0.0
7242,1810.25,44.9451,46.8907,131.615,113.24,117.925,0.00051394,0.0478859,21.0144,497.841,-0.360549,0.0,0.0
7259,1814.5,45.045,46.5765,134.498,113.208,117.182,0.000410194,0.0478827,21.0143,497.892,-0.306833,0.0,0.0
7276,1818.75,45.0512,47.3255,131.078,113.199,117.524,0.000390924,0.0478085,21.0143,497.882,-0.333465,0.0,0.0
7293,1823,45.1135,46.8763,129.393,113.183,117.118,0.000343544,0.047806,21.0143,497.831,-0.303969,0.0,0.0
7310,1827.25,44.8934,46.7025,134.53,113.169,117.626,0.000429973,0.0475604,21.0143,497.872,-0.343466,0.0,0.0
7327,1831.5,44.8532,46.8403,132.62,113.132,117.538,0.00048114,0.047398,21.0148,497.862,-0.339741,0.0,0.0
7344,1835.75,45.0568,46.8568,130.873,113.123,117.494,0.000420349,0.0473426,21.0164,497.882,-0.337145,0.0,0.0
7361,1840,45.2864,46.567,133.765,113.105,116.578,0.000167663,0.0474305,21.0154,497.872,-0.268912,0.0,0.0
7378,1844.25,45.2008,46.4517,131.502,113.07,118.052,0.000390156,0.0473975,21.015,497.882,-0.383452,0.0,0.0
7395,1848.5,44.897,46.5028,132.601,113.045,118.188,0.000443588,0.0475455,21.0149,497.822,-0.395592,0.0,0.0
7412,1852.75,44.9165,46.4511,134.078,113.061,116.825,0.000598054,0.0479078,21.0149,497.862,-0.291267,0.0,0.0
7429,1857,45.0192,46.4499,129.226,113.026,117.011,0.000724982,0.0479737,21.0149,497.872,-0.308159,0.0,0.0
7446,1861.25,44.887,46.7807,132.9,113.004,117.737,0.000396387,0.0479942,21.0147,497.852,-0.364856,0.0,0.0
7463,1865.5,44.8071,46.8476,130.497,113.002,117.688,0.000179897,0.0479619,21.0148,497.841,-0.361275,0.0,0.0
7480,1869.75,44.9905,47.2429,131.409,112.986,117.351,0.00018006,0.0480149,21.0149,497.841,-0.337098,0.0,0.0
7497,1874,45.0858,47.175,130.067,112.948,116.951,0.000127369,0.0478411,21.0165,497.872,-0.309705,0.0,0.0
7514,1878.25,44.8448,46.6748,130.422,112.928,117.854,0.000423345,0.0478939,21.0163,497.841,-0.37968,0.0,0.0
7531,1882.5,44.9231,46.8984,129.996,112.917,117.116,0.000555816,0.0479157,21.0152,497.862,-0.324718,0.0,0.0
7548,1886.75,44.8743,45.8748,128.14,112.887,117.092,0.000435805,0.0478489,21.015,497.862,-0.325262,0.0,0.0
7565,1891,44.9308,46.6197,131.882,112.857,117.706,0.000394459,0.0478987,21.0149,497.822,-0.374122,0.0,0.0
7582,1895.25,44.4952,46.6386,134.807,112.835,117.534,0.000473254,0.0480548,21.0162,497.862,-0.362812,0.0,0.0
7599,1899.5,44.8461,46.4847,132.205,112.79,117.481,0.000474562,0.0478011,21.0149,497.862,-0.362348,0.0,0.0
7616,1903.75,45.2914,46.3629,133.636,112.769,116.94,0.000556674,0.0478472,21.0142,497.822,-0.322968,0.0,0.0
7633,1908,44.5273,47.172,135.525,112.736,117.117,0.000690296,0.0477607,21.0136,497.831,-0.339017,0.0,0.0
7650,1912.25,44.7854,46.8602,129.836,112.721,117.008,,0.0478475,,497.841,-0.331972,0.0,0.0
7667,1916.5,45.1653,46.7798,126.124,112.686,116.828,,,,497.852,-0.321005,0.0,0.0
7684,1920.75,44.6988,46.609,133.165,112.651,116.913,,,,497.862,-0.330221,0.0,0.0
7685,1921,45.1167,47.2666,130.954,112.652,118.44,,,,497.872,-0.445518,0.0,0.0