File: 01_Data/Fiberglass_Insulation_R30/Cone/R30_Fiberglass_Insulation_Cone_HF50Scan_220503_R3.csv
Names,Time,Stack TC,Smoke TC,Exh Press,Smoke Comp,Smoke Meas,CO Meter,CO2 Meter,O2 Meter,Sample Mass,Ext Coeff,Start Test,Flame Verif
Chan Gain,,500,500,1,1,1,1,1,1,1,1,1.0,1.0
Offset,,0,0,0.135741,0,0,0,0,0,0,0,0.0,0.0
Gain,,1,1,25.011,14.8585,16.6522,1,1,1,1.00087,1.0138,1.0,1.0
Units,sec,C,C,Pa,%,%,%,%,%,g,/m,,
Baseline,,34.0231,35.1057,139.8,112.25,113.952,0.000510907,0.0489745,21.0109,-1.24766,-0.133759,,
7,1.5,31.4452,33.0207,140.598,112.085,112.454,0.000429284,0.0542977,21.0048,502.445,-0.029211,0.0,0.0
14,3.25,31.357,32.7808,138.351,112.078,113.6,0.000952462,0.053929,21.0047,502.435,-0.119947,0.0,0.0
21,5,31.7364,32.912,137.173,112.077,113.633,0.00143882,0.05405,21.004,502.335,-0.122605,0.0,0.0
28,6.75,32.4645,32.9288,139.872,112.071,113.69,0.00190484,0.0546615,21.0031,502.325,-0.127526,0.0,0.0
35,8.5,31.7729,32.9077,138.896,112.056,113.535,0.00228151,0.0552583,21.0017,502.255,-0.116657,0.0,0.0
42,10.25,32.5173,33.1364,138.498,112.045,115.472,0.00258286,0.0557667,21.0008,502.235,-0.267978,0.0,0.0
49,12,32.4825,33.438,138.344,112.061,114.143,0.00274369,0.0560475,21.0003,502.215,-0.163705,0.0,0.0
56,13.75,32.4955,33.4284,138.163,112.069,114.516,0.00273935,0.0562012,21.0002,502.185,-0.192111,0.0,0.0
63,15.5,32.5356,33.1275,135.789,112.079,113.82,0.00262501,0.0561733,21,502.165,-0.137085,0.0,0.0
70,17.25,32.6138,33.3965,137.012,112.079,113.896,0.0025129,0.0560294,21.001,502.125,-0.143042,0.0,0.0
77,19,32.9779,33.9134,139.873,112.104,114.219,0.00243045,0.0559761,21.002,502.115,-0.16622,0.0,0.0
84,20.75,32.2339,33.2301,136.253,112.117,114.446,0.00242281,0.055921,21.0025,502.095,-0.18285,0.0,0.0
91,22.5,32.6312,33.9303,136.587,112.131,113.832,0.00246624,0.0557457,21.0027,502.105,-0.133905,0.0,0.0
98,24.25,33.4378,34.0743,136.537,112.124,114.291,0.00249763,0.0556138,21.0028,502.095,-0.170219,0.0,0.0
105,26,33.1052,34.2372,137.748,112.127,114.354,0.00245534,0.0554192,21.0029,502.055,-0.174869,0.0,0.0
112,27.75,33.2982,34.2319,136.009,112.14,114.908,0.00228435,0.0552765,21.003,502.055,-0.216798,0.0,0.0
119,29.5,33.7261,34.466,136.09,112.135,114.604,0.00203557,0.0551757,21.0034,502.045,-0.19368,0.0,0.0
126,31.25,33.8775,34.7747,140.15,112.134,113.564,0.00186458,0.0550275,21.0048,502.045,-0.112698,0.0,0.0
133,33,33.9231,34.7348,134.007,112.136,113.713,0.0019576,0.054857,21.0055,502.035,-0.124171,0.0,0.0
140,34.75,33.6522,34.5346,138.295,112.163,113.999,0.00217123,0.0548372,21.0062,502.015,-0.14436,0.0,0.0
147,36.5,33.8878,34.1325,141.616,112.159,114.324,0.00229596,0.054754,21.0064,502.025,-0.170059,0.0,0.0
154,38.25,33.8778,34.9236,140.033,112.164,114.643,0.00227165,0.0546507,21.0062,501.995,-0.194415,0.0,0.0
161,40,33.6642,34.5736,136.452,112.161,114.437,0.0021845,0.0546009,21.0058,502.005,-0.178611,0.0,0.0
168,41.75,34.0787,34.8438,137.909,112.171,114.319,0.00205389,0.0545779,21.0043,501.995,-0.168729,0.0,0.0
175,43.5,33.8748,35.072,138.803,112.188,114.9,0.00198617,0.0543828,21.0036,501.995,-0.212395,0.0,0.0
182,45.25,34.021,35.377,136.693,112.192,114.528,0.00199539,0.0543449,21.0032,502.005,-0.183309,0.0,0.0
189,47,33.5968,34.9578,136.78,112.21,114.911,0.00199609,0.0543774,21.0031,501.985,-0.211574,0.0,0.0
196,48.75,34.4171,35.4969,140.813,112.191,114.432,0.00194055,0.0542606,21.003,501.985,-0.175844,0.0,0.0
203,50.5,34.0291,35.4631,143.219,112.215,114.231,0.00185467,0.0540248,21.0029,501.995,-0.158361,0.0,0.0
210,52.25,34.6147,35.1936,135.441,112.213,114.539,0.00176657,0.0539825,21.0029,501.965,-0.182451,0.0,0.0
217,54,34.1576,35.1357,140.401,112.191,113.913,0.00166004,0.0539245,21.0029,501.965,-0.135505,0.0,0.0
224,55.75,33.7299,34.6183,135.107,112.21,114.117,0.00155396,0.0538447,21.0029,501.975,-0.149854,0.0,0.0
231,57.5,34.3733,35.1967,137.825,112.228,114.54,0.00147116,0.0536337,21.0029,501.955,-0.181305,0.0,0.0
238,59.25,34.2484,35.3702,134.312,112.233,114.489,0.00140447,0.0535457,21.0029,501.965,-0.177,0.0,0.0
245,61,34.4384,35.4147,138.173,112.235,114.195,0.00130949,0.0535173,21.0029,501.965,-0.153971,0.0,0.0
252,62.75,34.4389,35.6234,140.675,112.216,114.048,0.00123255,0.0533261,21.0029,501.955,-0.144035,0.0,0.0
259,64.5,34.4364,35.5535,138.241,112.234,114.867,0.00122884,0.0531859,21.0063,501.955,-0.206172,0.0,0.0
266,66.25,34.9531,35.172,135.146,112.222,114.082,0.00130162,0.0531059,21.008,501.945,-0.146223,0.0,0.0
273,68,34.3239,35.8009,141.759,112.228,114.266,0.00136091,0.0528986,21.0088,501.965,-0.160049,0.0,0.0
280,69.75,34.7211,35.7646,136.932,112.22,114.777,0.0013946,0.0527223,21.0091,501.955,-0.200319,0.0,0.0
287,71.5,35.2,36.195,132.979,112.238,115.012,0.00143477,0.0525575,21.0093,501.955,-0.217094,0.0,0.0
294,73.25,34.311,35.788,136.919,112.255,114.672,0.00147202,0.0524859,21.0094,501.965,-0.189478,0.0,0.0
301,75,34.7035,35.5027,140.878,112.256,114.527,0.00144845,0.052402,21.0095,501.955,-0.178163,0.0,0.0
308,76.75,34.8119,35.7489,140.965,112.236,114.354,0.00130782,0.0522645,21.0095,501.955,-0.166317,0.0,0.0
315,78.5,34.7937,36.2131,137.364,112.248,114.398,0.00111069,0.0521499,21.0095,501.935,-0.168709,0.0,0.0
322,80.25,35.0977,36.7234,142.037,112.254,114.817,0.00101556,0.0522331,21.0095,501.945,-0.200771,0.0,0.0
329,82,34.8391,35.9723,135.387,112.27,114.103,0.0010602,0.0521572,21.0098,501.955,-0.144038,0.0,0.0
336,83.75,34.6201,36.1805,137.809,112.282,114.052,0.0011327,0.0519914,21.0107,501.945,-0.139071,0.0,0.0
343,85.5,34.4881,35.6757,136.362,112.303,115.102,0.00118286,0.051828,21.0109,501.945,-0.21891,0.0,0.0
350,87.25,34.4951,35.831,135.353,112.304,114.988,0.00123846,0.0517418,21.0093,501.945,-0.210036,0.0,0.0
357,89,34.5801,35.7196,138.122,112.324,114.678,0.0013329,0.051715,21.0085,501.925,-0.184417,0.0,0.0
364,90.75,34.6475,35.9532,141.406,112.333,115.093,0.00133706,0.051724,21.008,501.945,-0.21587,0.0,0.0
371,92.5,34.6962,36.0453,138.732,112.331,114.195,0.00113151,0.0516624,21.0075,501.925,-0.146397,0.0,0.0
378,94.25,34.5446,36.0483,134.507,112.36,114.61,0.000949794,0.051564,21.0072,501.915,-0.176338,0.0,0.0
385,96,34.9732,35.9055,134.999,112.37,114.651,0.000885064,0.051361,21.0071,501.915,-0.178663,0.0,0.0
392,97.75,35.0101,36.4787,135.526,112.403,114.568,0.000903294,0.0514634,21.007,501.905,-0.169616,0.0,0.0
399,99.5,35.1221,36.4064,138.344,112.412,115.235,0.000970312,0.0514991,21.007,501.905,-0.220543,0.0,0.0
406,101.25,34.8284,36.0455,140.199,112.412,114.275,0.00101869,0.0515447,21.007,501.895,-0.146221,0.0,0.0
413,103,35.2573,36.5519,137.855,112.424,114.758,0.000963571,0.0515642,21.007,501.905,-0.182707,0.0,0.0
420,104.75,35.2657,36.2143,139.152,112.428,114.88,0.000839981,0.0516007,21.007,501.905,-0.191831,0.0,0.0
427,106.5,35.5742,36.7622,140.227,112.45,114.484,0.000727515,0.0515632,21.007,501.905,-0.159486,0.0,0.0
434,108.25,34.9539,36.5125,134.036,112.445,115.152,0.000682579,0.0515968,21.007,501.895,-0.211561,0.0,0.0
441,110,35.2109,36.8694,138.128,112.447,114.544,0.000737528,0.0515522,21.0092,501.925,-0.164358,0.0,0.0
448,111.75,35.3794,36.7099,137.057,112.459,114.635,0.000812462,0.0514359,21.0111,501.895,-0.170446,0.0,0.0
455,113.5,35.1882,36.4051,136.747,112.461,114.805,0.00090379,0.0513191,21.0123,501.895,-0.183428,0.0,0.0
462,115.25,34.8625,36.5514,136.939,112.47,114.54,0.00104572,0.0511598,21.0128,501.905,-0.16225,0.0,0.0
469,117,34.9809,36.5755,138.788,112.454,114.874,0.00111843,0.0511754,21.0131,501.925,-0.189389,0.0,0.0
476,118.75,35.3555,36.9748,138.769,112.47,114.54,0.00104814,0.0511545,21.0132,501.905,-0.162139,0.0,0.0
483,120.5,35.0945,36.8475,133.562,112.483,114.674,0.000970194,0.0511141,21.0133,501.905,-0.171581,0.0,0.0
490,122.25,35.4307,37.0199,134.923,112.497,114.457,0.000946919,0.0510395,21.0133,501.895,-0.153586,0.0,0.0
497,124,35.1218,36.5947,138.962,112.506,114.734,0.000981035,0.0510071,21.0133,501.885,-0.174441,0.0,0.0
504,125.75,35.819,37.0276,139.682,112.506,114.499,0.000955799,0.050921,21.0133,501.875,-0.15611,0.0,0.0
511,127.5,35.3676,36.704,141.453,112.534,114.719,0.000888813,0.0509557,21.0133,501.905,-0.170962,0.0,0.0
518,129.25,35.202,36.9608,137.677,112.537,114.54,0.000831392,0.0509376,21.0133,501.865,-0.156906,0.0,0.0
525,131,35.3166,36.5273,142.468,112.535,114.893,0.000792833,0.0508419,21.0133,501.885,-0.184393,0.0,0.0
532,132.75,35.3286,36.8119,138.832,112.528,114.928,0.000773123,0.050701,21.0129,501.895,-0.18768,0.0,0.0
539,134.5,35.7118,36.7753,140.162,112.531,114.339,0.000803245,0.0505618,21.0122,501.885,-0.141733,0.0,0.0
546,136.25,35.6437,36.5636,139.934,112.543,114.68,0.000894462,0.0504521,21.0119,501.885,-0.167323,0.0,0.0
553,138,35.6967,36.9594,135.993,112.552,114.731,0.000975453,0.0504163,21.0117,501.885,-0.170585,0.0,0.0
560,139.75,35.4498,36.3773,136.401,112.545,114.758,0.000925819,0.0504768,21.0117,501.895,-0.173136,0.0,0.0
567,141.5,35.886,37.0213,138.125,112.562,114.222,0.000821582,0.0503779,21.0126,501.855,-0.130205,0.0,0.0
574,143.25,35.8636,36.5332,137.086,112.569,114.807,0.000768245,0.0503597,21.0133,501.865,-0.175052,0.0,0.0
581,145,35.7398,37.0399,137.532,112.594,115.041,0.000801417,0.0502996,21.0136,501.865,-0.19125,0.0,0.0
588,146.75,35.7756,36.9545,138.245,112.581,115.012,0.00090117,0.0502546,21.0138,501.865,-0.19001,0.0,0.0
595,148.5,35.5257,36.7647,134.063,112.575,115.162,0.000946417,0.0502135,21.0138,501.865,-0.202098,0.0,0.0
602,150.25,35.8869,36.8575,138.577,112.587,114.956,0.000933621,0.0501345,21.0139,501.855,-0.185221,0.0,0.0
609,152,36.2336,36.9016,137.145,112.588,114.536,0.000922231,0.0499953,21.0139,501.865,-0.152545,0.0,0.0
616,153.75,35.4789,37.4977,139.769,112.58,114.502,0.000914985,0.0500062,21.0139,501.865,-0.150546,0.0,0.0
623,155.5,35.6469,36.9157,138.563,112.597,115.037,0.000875643,0.0499635,21.014,501.865,-0.190721,0.0,0.0
630,157.25,35.4775,37.1103,137.009,112.601,114.299,0.000860399,0.050004,21.014,501.875,-0.133097,0.0,0.0
637,159,35.6769,37.1686,135.283,112.618,115.384,0.000949613,0.0499429,21.0141,501.875,-0.215794,0.0,0.0
644,160.75,35.6212,37.1656,137.835,112.616,115.287,0.0010787,0.0499221,21.0141,501.855,-0.208524,0.0,0.0
651,162.5,35.7583,36.7649,137.209,112.608,115.334,0.00113586,0.0498856,21.0141,501.875,-0.212739,0.0,0.0
658,164.25,35.7368,37.188,138.154,112.636,114.885,0.00109751,0.0498539,21.0141,501.855,-0.175887,0.0,0.0
665,166,36.0077,37.2536,139.416,112.635,114.8,0.000960404,0.0498529,21.0145,501.875,-0.169273,0.0,0.0
672,167.75,35.9419,37.4602,138.096,112.652,115.074,0.000797081,0.0496888,21.0148,501.865,-0.189181,0.0,0.0
679,169.5,35.4925,36.6611,140.285,112.654,114.558,0.000713148,0.0496125,21.0149,501.865,-0.149011,0.0,0.0
686,171.25,36.0496,37.1113,137.406,112.669,114.799,0.000706088,0.0495941,21.0149,501.865,-0.166509,0.0,0.0
693,173,35.8328,36.9921,134.691,112.667,114.647,0.000725524,0.0494751,21.015,501.865,-0.154949,0.0,0.0
700,174.75,36.0337,37.0821,141.023,112.677,114.877,0.000759177,0.0493724,21.015,501.865,-0.171965,0.0,0.0
707,176.5,35.4575,37.5109,137.425,112.668,114.814,0.000814348,0.0494175,21.0145,501.865,-0.167762,0.0,0.0
714,178.25,35.6041,37.2382,134.43,112.665,114.829,0.000808742,0.0494439,21.0144,501.875,-0.169193,0.0,0.0
721,180,35.8551,37.2704,137.556,112.682,114.732,0.000676608,0.0495061,21.0146,501.865,-0.160351,0.0,0.0
728,181.75,35.7788,37.1494,136.585,112.684,115.008,0.000570608,0.0494138,21.0147,501.845,-0.181572,0.0,0.0
735,183.5,35.5127,37.2099,139.195,112.694,114.646,0.000551392,0.0494789,21.0147,501.855,-0.152719,0.0,0.0
742,185.25,35.5088,37.2345,135.82,112.694,114.427,0.00056476,0.0496107,21.0148,501.835,-0.135716,0.0,0.0
749,187,35.4554,37.2561,136.268,112.699,115.007,0.000536936,0.0494542,21.0148,501.855,-0.180309,0.0,0.0
756,188.75,35.8048,37.0645,136.826,112.734,115.18,0.000442765,0.0493903,21.0148,501.835,-0.190833,0.0,0.0
763,190.5,35.3938,36.8875,137.395,112.731,114.697,0.000355032,0.0492363,21.0148,501.845,-0.15377,0.0,0.0
770,192.25,35.9535,37.183,137.176,112.744,115.54,0.000386425,0.0492832,21.0148,501.845,-0.217896,0.0,0.0
777,194,36.1353,37.2644,133.941,112.746,115.308,0.000574543,0.0493996,21.0148,501.845,-0.199822,0.0,0.0
784,195.75,35.5238,37.0054,134.491,112.751,114.692,0.000726894,0.0493103,21.0148,501.855,-0.151798,0.0,0.0
791,197.5,35.8113,37.1428,135.484,112.764,114.791,0.000749797,0.0493163,21.0148,501.835,-0.158441,0.0,0.0
798,199.25,35.5005,37.2724,135.755,112.788,115.253,0.000626728,0.0492305,21.0148,501.845,-0.192301,0.0,0.0
805,201,35.6291,37.4249,134.139,112.774,114.96,0.000447887,0.0492075,21.0145,501.845,-0.17068,0.0,0.0
812,202.75,35.3413,37.0956,136.498,112.776,114.881,0.000278485,0.0491293,21.0138,501.835,-0.164477,0.0,0.0
819,204.5,35.7586,37.3521,140.724,112.799,115.004,0.000226018,0.0492215,21.0134,501.835,-0.172169,0.0,0.0
826,206.25,35.0849,36.9549,134.001,112.806,114.697,0.000266894,0.0491509,21.0133,501.825,-0.147869,0.0,0.0
833,208,35.6157,37.1766,139.853,112.811,114.981,0.000353708,0.0491399,21.0132,501.815,-0.169474,0.0,0.0
840,209.75,36.0466,37.1324,136.803,112.816,114.513,0.000409138,0.0490935,21.0132,501.825,-0.132772,0.0,0.0
847,211.5,35.3315,36.8688,140.119,112.84,114.83,0.000558426,0.0490958,21.0131,501.835,-0.155502,0.0,0.0
854,213.25,35.6356,37.2024,138.449,112.837,114.571,0.000730027,0.0491316,21.0131,501.825,-0.135622,0.0,0.0
861,215,35.7405,37.1889,143.216,112.854,115.333,0.00075811,0.0491899,21.0131,501.825,-0.193237,0.0,0.0
868,216.75,35.4625,37.1567,135.834,112.852,115.009,0.000617667,0.0491962,21.0131,501.845,-0.168384,0.0,0.0
875,218.5,35.3582,36.8071,136.237,112.857,115.442,0.000478491,0.0492584,21.0135,501.825,-0.201407,0.0,0.0
882,220.25,35.6038,37.0104,139.02,112.885,115.308,0.000446406,0.0492496,21.0137,501.835,-0.188887,0.0,0.0
889,222,35.7527,37.2773,134.07,112.884,114.979,0.000433823,0.0492645,21.0139,501.825,-0.163561,0.0,0.0
896,223.75,36.01,36.8698,137.51,112.869,114.795,0.000408217,0.0492535,21.0142,501.815,-0.150539,0.0,0.0
903,225.5,35.7193,37.0538,138.34,112.869,114.975,0.000384665,0.0492664,21.0148,501.825,-0.164464,0.0,0.0
910,227.25,35.2763,37.4243,138.188,112.894,114.652,0.000365893,0.049224,21.0151,501.825,-0.13743,0.0,0.0
917,229,35.9134,37.0652,142.838,112.9,115.367,0.000313186,0.0490639,21.0151,501.835,-0.192253,0.0,0.0
924,230.75,36.0656,37.0241,135.019,112.906,115.129,0.000231231,0.0491546,21.0148,501.825,-0.173362,0.0,0.0
931,232.5,35.7198,37.2356,138.839,112.893,115.193,0.000252867,0.0491779,21.0147,501.835,-0.179417,0.0,0.0
938,234.25,35.8836,37.2734,135.113,112.899,114.766,0.000320482,0.0491656,21.0146,501.815,-0.145865,0.0,0.0
945,236,35.3114,37.2081,135.988,112.914,115.073,0.000406436,0.0491947,21.0146,501.825,-0.168475,0.0,0.0
952,237.75,35.8082,37.1757,138.06,112.923,114.964,0.000488741,0.0492333,21.0146,501.835,-0.159309,0.0,0.0
959,239.5,35.7373,37.2111,140.611,112.913,114.478,0.000610312,0.0491454,21.015,501.815,-0.122399,0.0,0.0
966,241.25,35.7662,37.1891,141.265,112.927,116.094,0.000724377,0.0490761,21.0152,501.835,-0.245991,0.0,0.0
973,243,35.9709,37.202,136.439,112.926,114.69,0.000778031,0.0491395,21.0153,501.805,-0.13785,0.0,0.0
980,244.75,35.819,36.8631,135.849,112.946,114.941,0.000807338,0.0491532,21.0154,501.815,-0.155684,0.0,0.0
987,246.5,35.4745,37.1688,135.124,112.929,115.162,0.000875459,0.0492343,21.0154,501.815,-0.174092,0.0,0.0
994,248.25,35.7774,37.0537,141.327,112.934,114.847,0.000934613,0.049303,21.015,501.795,-0.149411,0.0,0.0
1001,250,35.8734,37.2977,136.872,112.941,115.502,0.000934149,0.0492094,21.0137,501.815,-0.199414,0.0,0.0
1008,251.75,35.6089,37.5678,135.33,112.951,114.912,0.000903871,0.0491041,21.0129,501.835,-0.153089,0.0,0.0
1015,253.5,36.1517,37.2389,140.611,112.959,114.803,0.000869933,0.0490541,21.0137,501.815,-0.144023,0.0,0.0
1022,255.25,35.5139,36.8683,138.531,112.956,114.63,0.000809254,0.0490393,21.0141,501.795,-0.130878,0.0,0.0
1029,257,35.6567,37.1784,136.313,112.951,115.013,0.000736462,0.0490576,21.0144,501.805,-0.160948,0.0,0.0
1036,258.75,35.7081,37.2045,137.275,112.986,114.934,0.000664095,0.0489054,21.0145,501.815,-0.151992,0.0,0.0
1043,260.5,36.17,37.3813,139.479,112.977,115.201,0.000569689,0.0488778,21.0145,501.795,-0.173365,0.0,0.0
1050,262.25,35.9136,37.495,135.825,112.96,115.052,0.000530651,0.0488371,21.0145,501.805,-0.16318,0.0,0.0
1057,264,35.5709,37.1139,135.703,112.966,115.002,0.000570334,0.0487877,21.0146,501.805,-0.158905,0.0,0.0
1064,265.75,36.0909,37.2814,138.341,112.972,114.797,0.000592351,0.0487401,21.0146,501.815,-0.142518,0.0,0.0
1071,267.5,36.0544,37.2539,136.996,112.99,115.16,0.000634661,0.0487354,21.0146,501.815,-0.169191,0.0,0.0
1078,269.25,35.5022,37.2353,137.445,112.984,115.406,0.000725524,0.0487892,21.0146,501.795,-0.188589,0.0,0.0
1085,271,36.2597,36.9396,133.861,112.967,115.534,0.000786704,0.0488081,21.015,501.815,-0.199772,0.0,0.0
1092,272.75,35.5219,37.2685,137.256,112.995,115.301,0.000813042,0.04885,21.0152,501.815,-0.179698,0.0,0.0
1099,274.5,35.5744,37.2341,138.657,112.997,115.288,0.000807631,0.0488692,21.0153,501.825,-0.178503,0.0,0.0
1106,276.25,35.4533,37.209,138.862,113.001,115.283,0.00074098,0.0487953,21.0154,501.815,-0.177751,0.0,0.0
1113,278,35.4928,37.6151,139.117,112.992,115.237,0.000644587,0.0487951,21.0154,501.825,-0.174932,0.0,0.0
1120,279.75,35.7406,37.1981,139.998,112.993,115.276,0.000558859,0.0487693,21.0154,501.805,-0.17788,0.0,0.0
1127,281.5,35.9733,37.2643,139.969,112.989,115.246,0.000538806,0.0487524,21.0154,501.815,-0.175927,0.0,0.0
1134,283.25,36.1478,37.4446,137.521,113.016,115.377,0.000596944,0.0487581,21.0158,501.795,-0.183823,0.0,0.0
1141,285,35.8668,37.4661,135.647,113.006,115.254,0.000666839,0.0487099,21.016,501.795,-0.17516,0.0,0.0
1148,286.75,35.3824,37.9015,136.58,112.991,115.455,0.000740073,0.0487411,21.0162,501.805,-0.191813,0.0,0.0
1155,288.5,35.903,37.5009,132.071,112.987,114.986,0.000767316,0.0488691,21.0162,501.795,-0.155895,0.0,0.0
1162,290.25,35.8069,37.3705,141.346,113.016,115.275,0.000693576,0.0486847,21.0163,501.815,-0.176057,0.0,0.0
1169,292,36.1933,37.5035,135.537,112.988,115.02,0.000603609,0.0486175,21.0163,501.795,-0.158456,0.0,0.0
1176,293.75,36.0256,36.9828,136.287,112.979,115.451,0.000565846,0.0486265,21.0158,501.795,-0.192502,0.0,0.0
1183,295.5,35.9521,37.276,136.285,112.978,115.038,0.00057505,0.0486578,21.0151,501.795,-0.160695,0.0,0.0
1190,297.25,35.7165,37.1515,137.149,112.991,115.814,0.000605063,0.0486175,21.0147,501.805,-0.219447,0.0,0.0
1197,299,35.7481,36.8596,140.188,113.009,114.823,0.000594379,0.0486505,21.0146,501.785,-0.141636,0.0,0.0
1204,300.75,36.1903,37.1054,136.954,112.999,114.686,0.000510412,0.0486646,21.0145,501.815,-0.131784,0.0,0.0
1211,302.5,35.7561,37.4365,136.439,112.972,115.144,0.000474865,0.0486079,21.0145,501.795,-0.169288,0.0,0.0
1218,304.25,35.5493,37.4051,134.304,112.972,115.481,0.000499843,0.0486139,21.0141,501.805,-0.195346,0.0,0.0
1225,306,35.9436,36.9951,136.098,112.979,114.933,0.000541098,0.0487166,21.0138,501.795,-0.152449,0.0,0.0
1232,307.75,35.7516,37.3377,139.664,112.989,115.114,0.000590058,0.0489015,21.0137,501.805,-0.165726,0.0,0.0
1239,309.5,35.6928,37.5933,138.293,112.951,115.243,0.000608203,0.0489257,21.0136,501.805,-0.178691,0.0,0.0
1246,311.25,35.9399,37.2145,133.421,112.96,115.52,0.000582708,0.0488789,21.0126,501.785,-0.199287,0.0,0.0
1253,313,35.979,37.6875,137.788,112.971,114.983,0.00055101,0.0489216,21.0119,501.805,-0.157022,0.0,0.0
1260,314.75,36.3572,37.549,139.652,112.967,114.794,0.000522456,0.0489693,21.0116,501.775,-0.142675,0.0,0.0
1267,316.5,35.6992,37.3049,138.536,112.942,115.142,0.000453791,0.0490726,21.0113,501.795,-0.171558,0.0,0.0
1274,318.25,35.7931,37.3717,134.99,112.953,115.589,0.000357919,0.0490047,21.011,501.795,-0.205138,0.0,0.0
1281,320,35.8429,37.3646,132.871,112.947,115.349,0.00029069,0.0490118,21.0107,501.805,-0.187204,0.0,0.0
1288,321.75,36.001,37.1708,136.931,112.954,114.871,0.000298657,0.0491009,21.0095,501.805,-0.149614,0.0,0.0
1295,323.5,36.0654,37.3413,137.632,112.948,115.301,0.000362247,0.0491262,21.0102,501.795,-0.183374,0.0,0.0
1302,325.25,36.1989,37.3339,137.904,112.949,115.074,0.000422653,0.0492087,21.0105,501.805,-0.165804,0.0,0.0
1309,327,35.9146,37.3253,135.939,112.949,115.433,0.000454191,0.0492589,21.0107,501.775,-0.193487,0.0,0.0
1316,328.75,35.6064,37.6581,135.877,112.953,115.063,0.000406738,0.0492164,21.0107,501.765,-0.164584,0.0,0.0
1323,330.5,36.2014,37.4068,142.505,112.956,115.3,0.000326912,0.0491697,21.0108,501.785,-0.182652,0.0,0.0
1330,332.25,35.9781,37.0939,138.305,112.956,115.064,0.000308096,0.0491926,21.0108,501.795,-0.164444,0.0,0.0
1337,334,35.7395,37.4559,138.433,112.948,115.119,0.000353065,0.049196,21.0108,501.795,-0.169296,0.0,0.0
1344,335.75,36.1435,37.1799,136.564,112.961,115.48,0.000404166,0.0491687,21.0097,501.815,-0.196125,0.0,0.0
1351,337.5,36.0997,37.636,139.112,112.967,115.448,0.000435372,0.0491273,21.0091,501.805,-0.193198,0.0,0.0
1358,339.25,35.7264,37.6883,136.071,112.961,115.535,0.000398539,0.0490331,21.0088,501.795,-0.20039,0.0,0.0
1365,341,35.7971,38.0325,135.251,112.955,115.771,0.000379441,0.049033,21.0111,501.775,-0.219021,0.0,0.0
1372,342.75,36.3691,37.2856,132.686,112.962,115.285,0.000372772,0.0489713,21.0125,501.775,-0.180977,0.0,0.0
1379,344.5,35.8418,37.1899,137.182,112.995,115.206,0.000396274,0.0489646,21.0132,501.775,-0.172365,0.0,0.0
1386,346.25,35.8857,37.1843,138.809,112.979,115.06,0.000455484,0.0489546,21.0135,501.785,-0.162313,0.0,0.0
1393,348,36.467,37.0899,136.838,112.968,115.073,0.000543014,0.0488748,21.0132,501.785,-0.164191,0.0,0.0
1400,349.75,35.7231,38.1832,142.716,112.976,115.494,0.000588495,0.0489573,21.0123,501.795,-0.196039,0.0,0.0
1407,351.5,36.7088,37.2867,135.938,112.994,115.382,0.000620363,0.0489376,21.0125,501.785,-0.185964,0.0,0.0
1414,353.25,35.7595,37.8738,138.295,112.977,115.328,0.000673002,0.0488851,21.0131,501.795,-0.183092,0.0,0.0
1421,355,36.2166,37.4326,136.281,112.975,115.062,0.000680168,0.0488244,21.0135,501.785,-0.162788,0.0,0.0
1428,356.75,36.1905,37.5337,137.145,112.973,115.664,0.000630668,0.0488896,21.0136,501.785,-0.209356,0.0,0.0
1435,358.5,36.4705,37.8957,138.377,112.995,115.456,0.000541582,0.0489214,21.0137,501.775,-0.191644,0.0,0.0
1442,360.25,36.1835,37.6285,136.482,112.983,115.076,0.000420068,0.0490291,21.0137,501.795,-0.163245,0.0,0.0
1449,362,36.3532,37.4417,140.095,112.987,114.736,0.000316278,0.0490936,21.0133,501.785,-0.136612,0.0,0.0
1456,363.75,36.1432,37.407,136.143,112.984,114.795,0.000304454,0.0492517,21.0123,501.775,-0.141429,0.0,0.0
1463,365.5,36.0636,37.4891,137.242,113.001,115.735,0.000316945,0.0493251,21.0131,501.775,-0.212605,0.0,0.0
1470,367.25,36.3599,37.2359,137.256,112.991,115.491,0.000334051,0.0492403,21.0134,501.785,-0.19463,0.0,0.0
1477,369,36.3415,37.644,139.948,112.993,115.251,0.0004345,0.0491724,21.0136,501.785,-0.175963,0.0,0.0
1484,370.75,36.286,37.1801,138.177,112.984,115.735,0.000566072,0.049163,21.0137,501.785,-0.213965,0.0,0.0
1491,372.5,36.1973,37.2561,138.498,112.986,115.314,0.000617148,0.0491208,21.0137,501.795,-0.181359,0.0,0.0
1498,374.25,36.3707,37.4083,139.657,112.996,115.024,0.000618101,0.049127,21.0137,501.775,-0.158239,0.0,0.0
1505,376,35.7994,37.3855,137.008,112.988,115.292,0.000665456,0.0491365,21.0138,501.775,-0.179566,0.0,0.0
1512,377.75,36.5601,37.4943,138.673,112.987,115.227,0.000757905,0.0491946,21.0138,501.775,-0.174583,0.0,0.0
1519,379.5,36.1835,37.5686,134.73,112.969,115.398,0.000814727,0.0491985,21.0138,501.795,-0.189176,0.0,0.0
1526,381.25,36.2778,37.6118,138.728,112.993,115.35,0.000695739,0.0491264,21.0138,501.765,-0.183642,0.0,0.0
1533,383,35.8471,37.5857,138.535,113.003,114.826,0.000531813,0.0491577,21.0138,501.785,-0.142296,0.0,0.0
1540,384.75,36.0599,37.4152,135.725,113,114.582,0.000420052,0.0490713,21.0138,501.765,-0.12367,0.0,0.0
1547,386.5,35.979,37.6246,135.6,113.009,115.05,0.000391429,0.0490203,21.0133,501.765,-0.159208,0.0,0.0
1554,388.25,35.9075,37.5099,134.989,113.001,115.281,0.000375107,0.0489948,21.0127,501.775,-0.177594,0.0,0.0
1561,390,36.0258,37.5531,138.317,113.022,115.239,0.000329707,0.0489131,21.0124,501.775,-0.172699,0.0,0.0
1568,391.75,36.2636,37.4735,132.769,113.007,115.468,0.000320611,0.0489186,21.0122,501.795,-0.191584,0.0,0.0
1575,393.5,36.4966,37.395,138.025,113,114.783,0.000419149,0.0490039,21.0122,501.785,-0.1392,0.0,0.0
1582,395.25,36.2745,37.4231,136.3,112.992,115.493,0.00054051,0.0489746,21.0121,501.785,-0.194716,0.0,0.0
1589,397,36.0391,37.2641,138.235,113.011,115.227,0.000624671,0.0489498,21.0121,501.805,-0.172724,0.0,0.0
1596,398.75,36.3695,37.9384,142.479,113.005,114.937,0.000638195,0.049018,21.0121,501.785,-0.150769,0.0,0.0
1603,400.5,35.9373,37.8419,141.098,113.013,115.393,0.000535162,0.0490546,21.0121,501.775,-0.185326,0.0,0.0
1610,402.25,36.1981,37.3842,138.525,113.007,115.002,0.000478585,0.048956,21.0121,501.765,-0.155621,0.0,0.0
1617,404,35.9308,37.7816,138.738,113.016,115.45,0.000567699,0.0488305,21.0121,501.765,-0.189462,0.0,0.0
1624,405.75,36.2864,37.3601,140.262,113.025,115.016,0.000645452,0.0488639,21.0121,501.775,-0.155216,0.0,0.0
1631,407.5,36.063,37.948,136.653,113.016,114.923,0.000649002,0.0487842,21.0121,501.745,-0.148776,0.0,0.0
1638,409.25,35.9149,37.1716,139.316,113.026,114.906,0.000586987,0.0487976,21.0123,501.745,-0.146728,0.0,0.0
1645,411,36.2913,37.2527,141.919,113.02,115.436,0.000457663,0.0486695,21.0134,501.755,-0.188155,0.0,0.0
1652,412.75,35.6807,37.4153,142.008,113.03,115.401,0.000376814,0.048622,21.0146,501.775,-0.184593,0.0,0.0
1659,414.5,36.4257,37.3586,137.153,113.026,114.999,0.000334292,0.0486376,21.0157,501.775,-0.153883,0.0,0.0
1666,416.25,35.7277,37.4847,136.493,113.028,114.886,0.000349819,0.0486563,21.0162,501.765,-0.144976,0.0,0.0
1673,418,36.4329,37.1712,137.132,113.023,115.798,0.000460413,0.0485864,21.0165,501.775,-0.2157,0.0,0.0
1680,419.75,36.2704,37.5896,136.117,113.034,115.002,0.000506342,0.048631,21.0166,501.765,-0.153552,0.0,0.0
1687,421.5,36.5067,37.839,137.4,113.031,115.628,0.00046477,0.0486377,21.0164,501.765,-0.20201,0.0,0.0
1694,423.25,35.9289,37.4147,136.842,113.027,115.551,0.0003839,0.048593,21.0162,501.755,-0.196428,0.0,0.0
1701,425,36.3401,37.3614,137.275,112.996,115.526,0.000390315,0.0485717,21.0158,501.755,-0.196937,0.0,0.0
1708,426.75,36.6217,37.3479,138.873,113,114.725,0.000503942,0.0486007,21.0151,501.745,-0.134785,0.0,0.0
1715,428.5,36.3518,37.5946,136.123,113.006,114.541,0.000645526,0.0486635,21.0147,501.765,-0.120014,0.0,0.0
1722,430.25,35.7332,37.5753,136.747,113.013,114.905,0.000796081,0.0488726,21.0146,501.765,-0.147649,0.0,0.0
1729,432,36.0475,37.3205,139.191,112.989,114.931,0.000810606,0.0490249,21.0145,501.755,-0.151507,0.0,0.0
1736,433.75,36.0769,37.1642,139.282,112.984,114.75,0.000648932,0.0489781,21.0145,501.755,-0.137929,0.0,0.0
1743,435.5,35.9865,37.4003,136.399,112.973,114.853,0.00052689,0.0489407,21.0144,501.765,-0.146777,0.0,0.0
1750,437.25,35.7811,37.6695,137.47,112.959,115.353,0.000479551,0.0488601,21.0152,501.745,-0.186479,0.0,0.0
1757,439,35.9136,37.3903,138.312,112.952,115.354,0.000495613,0.0487914,21.016,501.755,-0.187203,0.0,0.0
1764,440.75,36.2363,37.1453,135.426,112.939,115.475,0.000491223,0.0487345,21.0154,501.765,-0.197447,0.0,0.0
1771,442.5,36.2887,37.2876,132.401,112.94,114.861,0.00048254,0.0486603,21.0149,501.755,-0.149934,0.0,0.0
1778,444.25,36.327,37.2569,141.649,112.907,115.089,0.000510258,0.0487469,21.0147,501.745,-0.170225,0.0,0.0
1785,446,36.1703,37.4073,138.008,112.88,114.316,0.000533163,0.0487191,21.0145,501.745,-0.112444,0.0,0.0
1792,447.75,35.9146,37.7191,139.948,112.858,115.05,0.000536968,0.0487245,21.0157,501.735,-0.171062,0.0,0.0
1799,449.5,36.1093,37.8042,136.322,112.829,114.636,0.000560993,0.0488229,21.0156,501.755,-0.141314,0.0,0.0
1806,451.25,36.0327,37.412,137.019,112.825,115.016,0.000489253,0.0489214,21.015,501.735,-0.171074,0.0,0.0
1813,453,36.4225,37.2042,140.585,112.798,115.283,0.000428142,0.0488931,21.0147,501.765,-0.193752,0.0,0.0
1820,454.75,36.2971,37.8287,136.578,112.772,114.586,0.000471722,0.0488145,21.0145,501.735,-0.141842,0.0,0.0
1827,456.5,36.3194,37.3751,132.869,112.738,114.454,0.000619052,0.0488121,21.0141,501.775,-0.134376,0.0,0.0
1834,458.25,36.2611,37.5758,140.122,112.697,114.423,0.000743333,0.0489552,21.0139,501.755,-0.13519,0.0,0.0
1841,460,35.6675,37.7356,140.416,112.679,114.513,0.000777413,0.0489695,21.0147,501.735,-0.143534,0.0,0.0
1848,461.75,36.3889,37.3712,136.952,112.645,115.004,0.000732745,0.0488656,21.0159,501.745,-0.1843,0.0,0.0
1855,463.5,35.7739,37.5891,138.428,112.602,114.249,0.000623947,0.0488539,21.0158,501.755,-0.129149,0.0,0.0
1862,465.25,36.1437,37.7398,139.112,112.589,114.687,0.000483506,0.0488918,21.0152,501.745,-0.164185,0.0,0.0
1869,467,36.1644,37.4088,136.422,112.566,114.867,0.000393955,0.0488702,21.0149,501.745,-0.179946,0.0,0.0
1876,468.75,36.5081,37.2613,136.992,112.534,114.344,0.000348307,0.0490814,21.0148,501.755,-0.141881,0.0,0.0
1883,470.5,35.7073,37.8203,140.2,112.483,114.814,0.000374048,0.0490594,21.0147,501.735,-0.182451,0.0,0.0
1890,472.25,36.0215,37.2751,138.621,112.48,114.225,0.000430943,0.0489879,21.0142,501.755,-0.136889,0.0,0.0
1897,474,36.0381,37.2857,137.088,112.486,114.957,0.000403515,0.0489746,21.014,501.725,-0.193215,0.0,0.0
1904,475.75,35.7823,37.4553,136.544,112.498,114.779,0.000368446,0.0489802,21.0139,501.765,-0.178513,0.0,0.0
1911,477.5,35.787,37.1157,133.334,112.501,114.163,0.000386248,0.0489973,21.0138,501.735,-0.130417,0.0,0.0
1918,479.25,35.7158,37.6853,133.577,112.505,115.468,0.000440916,0.0490664,21.0136,501.745,-0.23117,0.0,0.0
1925,481,35.8799,37.4241,137.498,112.514,114.341,0.000429655,0.0490995,21.0135,501.745,-0.143257,0.0,0.0
1932,482.75,36.2566,37.5144,140.758,112.534,114.551,0.000346344,0.0491226,21.0135,501.745,-0.157913,0.0,0.0
1939,484.5,36.1573,37.3898,137.624,112.554,114.743,0.000261886,0.0492017,21.0134,501.735,-0.171312,0.0,0.0
1946,486.25,36.0463,37.2026,136.057,112.552,114.861,0.000217243,0.0491744,21.0134,501.735,-0.180589,0.0,0.0
1953,488,36.4983,37.488,139.843,112.549,114.61,0.000217489,0.0491588,21.0134,501.735,-0.161346,0.0,0.0
1960,489.75,36.1582,37.9414,134.738,112.565,114.987,0.000270351,0.0491813,21.0134,501.755,-0.189338,0.0,0.0
1967,491.5,35.6581,37.8222,140.497,112.588,114.763,0.000321269,0.0492434,21.0134,501.745,-0.170202,0.0,0.0
1974,493.25,36.4632,37.4724,136.52,112.596,115.153,0.000354155,0.0492942,21.0134,501.735,-0.199705,0.0,0.0
1981,495,36.1073,37.4358,136.265,112.602,115.11,0.000379979,0.0492461,21.0134,501.745,-0.195832,0.0,0.0
1988,496.75,36.1106,37.21,136.216,112.611,114.924,0.000428847,0.049134,21.0134,501.755,-0.18081,0.0,0.0
1995,498.5,35.9319,37.2964,137.977,112.631,115.139,0.000446839,0.0490564,21.0134,501.735,-0.195889,0.0,0.0
2002,500.25,36.2016,37.8307,139.6,112.635,114.967,0.00038756,0.0491172,21.0134,501.735,-0.182215,0.0,0.0
2009,502,36.1003,37.5469,137.33,112.647,114.197,0.000350757,0.0491849,21.0132,501.725,-0.121569,0.0,0.0
2016,503.75,35.99,37.4397,137.759,112.654,115.02,0.000365708,0.0492459,21.013,501.735,-0.184838,0.0,0.0
2023,505.5,36.1689,37.2518,135.484,112.673,114.362,0.000416379,0.0493361,21.0129,501.745,-0.132346,0.0,0.0
2030,507.25,36.4845,37.3859,139.157,112.673,115.036,0.000468099,0.0493381,21.0128,501.735,-0.184552,0.0,0.0
2037,509,36.1669,37.061,138.35,112.693,114.887,0.000461445,0.0492852,21.0128,501.745,-0.171499,0.0,0.0
2044,510.75,35.8103,37.474,136.976,112.689,114.803,0.000466744,0.0491677,21.0128,501.735,-0.165324,0.0,0.0
2051,512.5,36.1827,37.3295,136.217,112.705,115.262,0.000542972,0.0491407,21.0128,501.745,-0.199513,0.0,0.0
2058,514.25,35.5735,37.296,136.451,112.729,115.125,0.000663927,0.0491571,21.0132,501.735,-0.186987,0.0,0.0
2065,516,35.5868,37.3735,140.521,112.744,115.319,0.000761672,0.0492499,21.0134,501.745,-0.200826,0.0,0.0
2072,517.75,35.8889,37.1768,137.143,112.754,114.878,0.000786155,0.0492407,21.0135,501.745,-0.165922,0.0,0.0
2079,519.5,35.7303,37.5109,134.77,112.755,114.205,0.000762911,0.049349,21.0136,501.735,-0.113687,0.0,0.0
2086,521.25,35.7816,37.2015,135.749,112.783,115.186,0.000686136,0.0494263,21.0136,501.745,-0.187481,0.0,0.0
2093,523,36.2269,37.097,135.671,112.8,114.906,0.000682401,0.0493277,21.0136,501.735,-0.16455,0.0,0.0
2100,524.75,35.7318,37.7503,137.035,112.801,115.059,0.000725212,0.0493787,21.0136,501.735,-0.176237,0.0,0.0
2107,526.5,35.8323,37.4512,139.793,112.809,114.685,0.000716625,0.0494393,21.0137,501.735,-0.146634,0.0,0.0
2114,528.25,36.2224,37.3364,135.231,112.826,115.406,0.000620634,0.0494827,21.0128,501.735,-0.201089,0.0,0.0
2121,530,36.1135,37.3669,139.887,112.86,114.753,0.000558078,0.049584,21.0121,501.735,-0.147946,0.0,0.0
2128,531.75,35.9416,36.8463,137.772,112.861,114.675,0.000462523,0.0495914,21.0118,501.755,-0.141811,0.0,0.0
2135,533.5,35.8667,37.3193,139.079,112.868,115.031,0.000357035,0.049529,21.0116,501.755,-0.168858,0.0,0.0
2142,535.25,35.944,37.5867,138.848,112.876,114.712,0.00031231,0.04949,21.0112,501.715,-0.143508,0.0,0.0
2149,537,35.7316,37.1754,141.332,112.905,114.839,0.000301494,0.0495658,21.0109,501.735,-0.151066,0.0,0.0
2156,538.75,35.9365,37.1345,139.288,112.912,115.118,0.000266541,0.0495344,21.0107,501.745,-0.17211,0.0,0.0
2163,540.5,36.2614,37.2646,138.649,112.92,114.906,0.000205276,0.0495485,21.0107,501.745,-0.155045,0.0,0.0
2170,542.25,36.248,37.3201,138.696,112.946,115.381,0.000165302,0.0495938,21.0102,501.745,-0.189669,0.0,0.0
2177,544,35.8823,37.3709,139.698,112.987,115.003,0.000219181,0.0496083,21.0101,501.745,-0.157267,0.0,0.0
2184,545.75,36.2396,37.5751,138.271,113.025,115.293,0.000315786,0.0495882,21.0108,501.735,-0.17668,0.0,0.0
2191,547.5,35.5874,37.4804,136.585,113.024,115.201,0.000391163,0.04957,21.0112,501.735,-0.169692,0.0,0.0
2198,549.25,35.8505,37.4633,137.804,113.012,115.255,0.00050227,0.0495504,21.0116,501.735,-0.174774,0.0,0.0
2205,551,35.7943,37.4327,138.464,113.041,115.026,0.000624796,0.0495982,21.0118,501.735,-0.154792,0.0,0.0
2212,552.75,35.9831,37.4999,137.558,113.067,114.875,0.00071728,0.0497187,21.012,501.735,-0.141118,0.0,0.0
2219,554.5,35.8637,36.8957,139.34,113.091,115.215,0.000721149,0.0497704,21.012,501.725,-0.165509,0.0,0.0
2226,556.25,35.8367,37.7429,136.112,113.101,115.517,0.000670701,0.0496608,21.0121,501.805,-0.187954,0.0,0.0
2233,558,36.0894,37.4506,135.374,113.116,115.352,0.000672631,0.0496253,21.0121,501.805,-0.174096,0.0,0.0
2240,559.75,36.1851,36.9938,136.508,113.139,115.385,0.000679851,0.0497261,21.0121,501.795,-0.174821,0.0,0.0
2247,561.5,35.9648,37.2767,137.015,113.159,114.855,0.000572613,0.0497763,21.0121,501.775,-0.132308,0.0,0.0
2254,563.25,35.9292,37.542,136.535,113.166,115.629,0.000433076,0.0497802,21.0121,501.755,-0.191502,0.0,0.0
2261,565,35.9853,37.5306,139.337,113.177,115.367,0.000374492,0.0497007,21.0119,501.755,-0.170382,0.0,0.0
2268,566.75,36.1212,37.3221,134.014,113.187,115.12,0.000386468,0.0496558,21.0116,501.755,-0.150614,0.0,0.0
2275,568.5,36.0097,37.6716,139.064,113.224,114.956,0.000389915,0.0496726,21.0114,501.775,-0.13504,0.0,0.0
2282,570.25,35.8941,37.4829,141.68,113.251,115.583,0.000359411,0.0496789,21.0113,501.745,-0.181284,0.0,0.0
2289,572,36.498,37.1853,139.631,113.22,115.678,0.000288194,0.0495975,21.0117,501.755,-0.190975,0.0,0.0
2296,573.75,36.051,37.3642,137.428,113.248,115.425,0.000268759,0.0494545,21.0126,501.735,-0.169365,0.0,0.0
2303,575.5,35.916,37.406,135.413,113.265,115.858,0.000230786,0.0493403,21.0131,501.735,-0.201273,0.0,0.0
2310,577.25,36.0685,37.2471,132.37,113.283,115.643,0.00017935,0.049365,21.0136,501.715,-0.183368,0.0,0.0
2317,579,35.6922,37.3442,137.016,113.285,115.727,0.000179417,0.0494258,21.0135,501.715,-0.189712,0.0,0.0
2324,580.75,35.9105,37.7058,134.762,113.295,115.751,0.000237903,0.0495364,21.0127,501.715,-0.190724,0.0,0.0
2331,582.5,36.1148,37.6479,134.575,113.303,115.145,0.000271407,0.0496488,21.0123,501.725,-0.143382,0.0,0.0
2338,584.25,35.9067,37.0375,137.454,113.323,115.67,0.000220922,0.0496978,21.0121,501.725,-0.182273,0.0,0.0
2345,586,36.1165,37.0511,138.22,113.317,115.818,0.000182108,0.0496331,21.0118,501.735,-0.194097,0.0,0.0
2352,587.75,36.1885,37.3101,136.413,113.323,115.787,0.000172132,0.0497197,21.0114,501.715,-0.191254,0.0,0.0
2359,589.5,35.4681,36.7068,135.2,113.326,115.657,0.000227826,0.0496606,21.0117,501.715,-0.181082,0.0,0.0
2366,591.25,35.3423,37.0404,136.533,113.366,115.631,0.000290651,0.0495802,21.0126,501.725,-0.175954,0.0,0.0
2373,593,35.6561,36.7687,133.526,113.37,115.535,0.000415744,0.0496467,21.013,501.735,-0.168248,0.0,0.0
2380,594.75,35.7201,37.1304,135.385,113.361,115.713,0.000542133,0.049651,21.0126,501.735,-0.182601,0.0,0.0
2387,596.5,35.7088,36.8452,136.501,113.372,115.209,0.000626194,0.0496639,21.0122,501.725,-0.142958,0.0,0.0
2394,598.25,35.8593,36.6394,140.456,113.381,115.763,0.000623276,0.0496934,21.0113,501.725,-0.184898,0.0,0.0
2401,600,35.3919,36.9521,137.129,113.397,115.594,0.000536206,0.0497613,21.0103,501.725,-0.170647,0.0,0.0
2408,601.75,34.3663,35.6854,136.359,113.4,115.606,0.000444641,0.049771,21.0099,501.735,-0.171262,0.0,0.0
2415,603.5,34.0485,35.386,137.777,113.401,115.822,0.000375497,0.0498772,21.0099,501.745,-0.187829,0.0,0.0
2422,605.25,34.042,35.7117,136.602,113.414,115.443,0.000367485,0.0499146,21.0109,501.735,-0.157677,0.0,0.0
2429,607,34.0759,35.2157,137.945,113.432,115.704,0.000346911,0.0498714,21.0107,501.735,-0.17639,0.0,0.0
2436,608.75,34.4596,35.4464,136.492,113.45,115.589,0.000279886,0.0497363,21.0112,501.735,-0.166136,0.0,0.0
2443,610.5,33.7547,35.8918,135.785,113.434,115.109,0.000210214,0.0496083,21.0104,501.725,-0.130391,0.0,0.0
2450,612.25,34.3169,35.4489,139.279,113.441,115.908,0.000169654,0.0495967,21.0109,501.725,-0.191327,0.0,0.0
2457,614,34.4884,35.927,140.187,113.453,115.407,0.000166308,0.0497402,21.0105,501.725,-0.151875,0.0,0.0
2464,615.75,34.05,35.8797,136.239,113.464,115.62,0.00021386,0.049753,21.0111,501.735,-0.167415,0.0,0.0
2471,617.5,34.5434,35.593,137.923,113.457,116.554,0.000301962,0.0498175,21.0114,501.715,-0.239541,0.0,0.0
2478,619.25,34.2502,35.0665,137.932,113.46,115.803,0.000293044,0.0498337,21.0115,501.715,-0.181725,0.0,0.0
2485,621,34.4559,35.8991,138.587,113.474,116.078,0.000223467,0.0499633,21.0117,501.735,-0.201785,0.0,0.0
2492,622.75,34.2232,35.4542,138.288,113.468,115.456,0.000166957,0.0498863,21.0119,501.735,-0.15439,0.0,0.0
2499,624.5,34.1762,35.25,137.124,113.475,115.296,0.000200165,0.0499358,21.0119,501.735,-0.141557,0.0,0.0
2506,626.25,34.2665,35.6935,133.102,113.459,116.39,0.00025388,0.0499185,21.0119,501.705,-0.226791,0.0,0.0
2513,628,34.1656,35.3847,135.108,113.466,115.448,0.00029328,0.0499251,21.012,501.735,-0.154016,0.0,0.0
2520,629.75,34.2967,35.8209,136.209,113.475,115.987,0.000317024,0.0499919,21.0119,501.715,-0.194706,0.0,0.0
2527,631.5,34.7589,35.3756,138.983,113.462,116.037,0.000362048,0.0500704,21.0111,501.715,-0.199594,0.0,0.0
2534,633.25,34.4744,35.786,135.685,113.46,116.038,0.000482734,0.0501195,21.0099,501.725,-0.199849,0.0,0.0
2541,635,34.6315,35.4774,140.585,113.461,115.33,0.000563314,0.0500423,21.0093,501.725,-0.14532,0.0,0.0
2548,636.75,34.2668,35.4978,139.758,113.453,115.532,0.00056458,0.0500219,21.009,501.705,-0.161503,0.0,0.0
2555,638.5,33.5873,35.7545,139.218,113.442,115.893,0.000520101,0.0501137,21.0089,501.705,-0.190125,0.0,0.0
2562,640.25,34.3315,35.6208,135.127,113.438,115.697,0.000488495,0.0501461,21.0089,501.715,-0.17538,0.0,0.0
2569,642,33.6813,35.1136,134.639,113.435,115.522,0.00047509,0.0501451,21.0088,501.725,-0.162111,0.0,0.0
2576,643.75,34.0094,35.7434,138.634,113.432,115.187,0.000499604,0.0500954,21.0088,501.725,-0.136542,0.0,0.0
2583,645.5,34.3981,35.3835,138.106,113.433,115.682,0.000533034,0.0501619,21.0088,501.715,-0.174603,0.0,0.0
2590,647.25,34.5679,35.6758,136.791,113.425,115.737,0.000506613,0.050184,21.0088,501.715,-0.179386,0.0,0.0
2597,649,34.0682,35.699,136.708,113.404,115.461,0.000482687,0.0501508,21.0088,501.705,-0.159829,0.0,0.0
2604,650.75,33.9574,35.9505,134.237,113.405,116.384,0.000500176,0.0502232,21.0075,501.725,-0.230559,0.0,0.0
2611,652.5,34.0115,35.7547,137.021,113.409,115.563,0.000484981,0.050293,21.0065,501.695,-0.167341,0.0,0.0
2618,654.25,34.3237,35.8177,140.598,113.4,116.18,0.000346993,0.0502493,21.0066,501.715,-0.215398,0.0,0.0
2625,656,34.4629,35.5021,137.083,113.401,115.567,0.000125567,0.0502682,21.0072,501.715,-0.168258,0.0,0.0
2632,657.75,34.3825,35.5041,138.144,113.394,115.315,-4.1788e-05,0.0502381,21.0076,501.725,-0.14941,0.0,0.0
2639,659.5,34.0071,35.4121,133.713,113.378,115.078,-0.000119073,0.0502287,21.007,501.705,-0.132333,0.0,0.0
2646,661.25,34.0539,36.0767,137.932,113.38,116.21,-7.81802e-05,0.0502712,21.0075,501.715,-0.219257,0.0,0.0
2653,663,34.7486,35.5196,137.69,113.384,115.347,0.000106112,0.0501382,21.007,501.715,-0.152657,0.0,0.0
2660,664.75,34.3859,35.7948,137.561,113.361,115.459,0.000334172,0.0500858,21.0083,501.705,-0.163055,0.0,0.0
2667,666.5,34.1123,35.734,138.896,113.365,116.074,0.000374527,0.0501108,21.0089,501.715,-0.210002,0.0,0.0
2674,668.25,34.3463,35.8795,140.363,113.373,115.992,0.000266446,0.0500679,21.0092,501.705,-0.203056,0.0,0.0
2681,670,34.2285,35.7005,135.633,113.365,116.084,0.000225796,0.050133,21.0099,501.705,-0.210785,0.0,0.0
2688,671.75,33.6196,35.3708,134.986,113.348,116.16,0.000261122,0.0501256,21.0113,501.695,-0.217935,0.0,0.0
2695,673.5,34.2192,35.1162,135.955,113.357,115.883,0.000348258,0.0500488,21.012,501.715,-0.195995,0.0,0.0
2702,675.25,34.4271,35.2942,141.056,113.343,115.543,0.000466754,0.0500365,21.0123,501.695,-0.170969,0.0,0.0
2709,677,34.2332,35.7245,135.111,113.345,115.504,0.0005922,0.0500177,21.0125,501.685,-0.167818,0.0,0.0
2716,678.75,34.2895,35.9544,135.684,113.342,114.977,0.000628462,0.0500679,21.0125,501.715,-0.127401,0.0,0.0
2723,680.5,34.495,35.6598,137.08,113.333,116.073,0.000555928,0.0501082,21.0126,501.715,-0.212379,0.0,0.0
2730,682.25,34.2196,35.7422,137.428,113.335,116.423,0.000430821,0.0500529,21.0115,501.715,-0.239098,0.0,0.0
2737,684,34.358,35.6769,137.964,113.336,115.083,0.000397131,0.0499564,21.0104,501.715,-0.135996,0.0,0.0
2744,685.75,34.2849,35.5008,138.945,113.325,115.598,0.000430132,0.0499791,21.0104,501.725,-0.176655,0.0,0.0
2751,687.5,34.347,35.488,137.012,113.32,115.687,0.000501142,0.049949,21.0108,501.705,-0.183846,0.0,0.0
2758,689.25,34.4274,35.3588,139.847,113.305,115.742,0.000531598,0.0499694,21.0109,501.705,-0.189239,0.0,0.0
2765,691,34.1799,35.7626,137.027,113.309,115.127,0.00051671,0.0499721,21.011,501.705,-0.141585,0.0,0.0
2772,692.75,34.6386,35.8885,135.087,113.31,115.504,0.000487387,0.0500303,21.0111,501.695,-0.170594,0.0,0.0
2779,694.5,34.1953,35.4488,134.111,113.303,115.834,0.000464887,0.05007,21.0111,501.715,-0.19641,0.0,0.0
2786,696.25,34.8069,35.6138,136.626,113.278,115.719,0.000373299,0.0500822,21.0111,501.715,-0.18962,0.0,0.0
2793,698,34.1628,35.6304,134.778,113.284,115.658,0.000233218,0.0500571,21.0111,501.705,-0.184395,0.0,0.0
2800,699.75,34.7189,35.1712,138.963,113.286,115.078,0.00021653,0.050131,21.0111,501.715,-0.139592,0.0,0.0
2807,701.5,34.2081,35.7265,140.253,113.281,115.698,0.000266993,0.0500852,21.0111,501.715,-0.187766,0.0,0.0
2814,703.25,34.2342,35.8856,139.843,113.265,115.859,0.000335184,0.0500098,21.0113,501.715,-0.201347,0.0,0.0
2821,705,34.6361,35.5884,138.647,113.271,115.737,0.000394042,0.0500556,21.0116,501.705,-0.191482,0.0,0.0
2828,706.75,34.6417,35.6521,137.083,113.267,116.253,0.000413213,0.0501052,21.0118,501.695,-0.231462,0.0,0.0
2835,708.5,34.541,35.824,136.329,113.257,115.257,0.000432355,0.0502014,21.0112,501.725,-0.155687,0.0,0.0
2842,710.25,34.1947,35.6366,133.815,113.268,115.404,,0.0502851,,501.715,-0.166157,0.0,0.0
2849,712,34.152,35.2767,140.312,113.255,115.048,,0.0503002,,501.695,-0.13966,0.0,0.0
2856,713.75,34.6714,35.9841,138.708,113.249,115.305,,,,501.705,-0.159977,0.0,0.0
2863,715.5,34.4505,35.3056,135.654,113.259,116.187,,,,501.715,-0.227048,0.0,0.0
2870,717.25,34.3266,35.5365,139.727,113.256,115.524,,,,501.715,-0.176316,0.0,0.0
2877,719,34.696,36.0731,140.411,113.249,115.221,,,,501.705,-0.153504,0.0,0.0
2883,720.5,34.6421,35.8591,136.433,113.255,115.23,,,,501.715,-0.153787,0.0,0.0