File: 01_Data/Fiberglass_Insulation_R30/Cone/R30_Fiberglass_Insulation_Cone_HF25Scan_220502_R3.csv
Names,Time,Stack TC,Smoke TC,Exh Press,Smoke Comp,Smoke Meas,CO Meter,CO2 Meter,O2 Meter,Sample Mass,Ext Coeff,Start Test,Flame Verif
Chan Gain,,500,500,1,1,1,1,1,1,1,1,1.0,1.0
Offset,,0,0,0.135741,0,0,0,0,0,0,0,0.0,0.0
Gain,,1,1,25.011,14.8585,16.6522,1,1,1,1.00087,1.0138,1.0,1.0
Units,sec,C,C,Pa,%,%,%,%,%,g,/m,,
Baseline,,17.6702,17.863,147.731,112.22,112.571,0.000921216,0.0525884,21.0073,-0.00483753,-0.0277502,,
7,1.5,15.549,16.7186,149.517,112.988,113.483,0.000858105,0.0693412,20.9896,502.856,-0.0388776,0.0,0.0
14,3.25,16.3867,16.3928,148.547,113.031,113.052,0.00080423,0.0654383,20.9939,502.846,-0.00161313,0.0,0.0
21,5,16.4165,16.5201,148.158,113.066,113.054,0.000717603,0.0631408,20.9967,502.816,0.000932864,0.0,0.0
28,6.75,16.7381,16.5645,146.428,113.111,113.158,0.000697666,0.0614504,20.998,502.796,-0.00368365,0.0,0.0
35,8.5,16.5358,16.8738,143.945,113.137,113.283,0.000755837,0.0609,20.9982,502.776,-0.011435,0.0,0.0
42,10.25,16.357,16.4255,147.875,113.151,113.316,0.000845006,0.060818,20.9988,502.756,-0.0129233,0.0,0.0
49,12,16.7547,16.8963,145.424,113.201,113.464,0.000937557,0.0603688,20.9998,502.736,-0.0206371,0.0,0.0
56,13.75,16.724,16.7591,147.892,113.23,113.592,0.00100878,0.0594144,21.0011,502.716,-0.0283899,0.0,0.0
63,15.5,16.5676,16.9117,146.39,113.255,113.692,0.00110744,0.0581997,21.0036,502.706,-0.0342337,0.0,0.0
70,17.25,16.936,16.6757,146.448,113.292,113.853,0.00124267,0.056951,21.0057,502.696,-0.0439031,0.0,0.0
77,19,16.4991,16.5676,144.038,113.326,113.667,0.00127507,0.0554221,21.0074,502.686,-0.0267687,0.0,0.0
84,20.75,16.551,16.965,142.944,113.343,113.773,0.00115394,0.0540345,21.0092,502.666,-0.0336474,0.0,0.0
91,22.5,16.6967,16.4227,143.743,113.366,113.852,0.00105377,0.0530123,21.0109,502.656,-0.037987,0.0,0.0
98,24.25,16.8333,16.4908,149.363,113.38,113.849,0.00102575,0.0522618,21.0123,502.646,-0.0367185,0.0,0.0
105,26,16.3902,16.6322,148.703,113.404,114.157,0.0010027,0.0517173,21.013,502.636,-0.0588208,0.0,0.0
112,27.75,16.3992,16.6838,148.457,113.429,113.872,0.000929892,0.0512636,21.0133,502.626,-0.0346323,0.0,0.0
119,29.5,17.161,17.2036,145.771,113.461,113.988,0.000792374,0.0509006,21.013,502.616,-0.0412236,0.0,0.0
126,31.25,16.71,17.1483,147.534,113.483,113.713,0.000733033,0.0507187,21.0129,502.606,-0.0179316,0.0,0.0
133,33,16.6787,17.0866,145.666,113.508,114.264,0.000752445,0.050564,21.0128,502.596,-0.0590705,0.0,0.0
140,34.75,16.8871,17.6434,145.146,113.532,114.064,0.00075384,0.0504935,21.0128,502.596,-0.0415863,0.0,0.0
147,36.5,16.655,17.1603,146.221,113.553,113.853,0.000751731,0.050344,21.0128,502.586,-0.0234991,0.0,0.0
154,38.25,16.2368,17.1593,150.486,113.559,114.078,0.000788495,0.0503129,21.013,502.586,-0.0405692,0.0,0.0
161,40,16.7681,17.6021,147.285,113.559,114.083,0.000880091,0.0502945,21.0137,502.576,-0.0410005,0.0,0.0
168,41.75,17.8535,17.7273,149.585,113.597,114.009,0.00102305,0.0501886,21.014,502.566,-0.0321933,0.0,0.0
175,43.5,16.5754,17.163,150.739,113.605,113.857,0.00111019,0.050154,21.0141,502.566,-0.0196941,0.0,0.0
182,45.25,16.7331,17.0999,151.951,113.603,114.24,0.00109933,0.0500883,21.0142,502.556,-0.0497103,0.0,0.0
189,47,17.1063,17.5171,143.516,113.595,114.21,0.00110038,0.0500504,21.0142,502.556,-0.0479834,0.0,0.0
196,48.75,16.9884,17.6382,148.378,113.592,114.111,0.00110163,0.0499769,21.0143,502.556,-0.0405516,0.0,0.0
203,50.5,17.2848,17.4005,147.526,113.609,114.138,0.0010526,0.0497981,21.0136,502.546,-0.0412976,0.0,0.0
210,52.25,17.0809,17.6819,145.308,113.598,114.163,0.000950159,0.0498238,21.0128,502.536,-0.0441652,0.0,0.0
217,54,17.4646,17.8678,148.325,113.597,114.152,0.000901116,0.0498742,21.0123,502.536,-0.04329,0.0,0.0
224,55.75,17.3412,17.6896,147.314,113.581,114.079,0.000910253,0.0499732,21.0121,502.536,-0.0388691,0.0,0.0
231,57.5,17.1311,17.907,146.585,113.565,113.979,0.000845352,0.0500783,21.0128,502.536,-0.032379,0.0,0.0
238,59.25,17.3683,17.7091,146.409,113.568,114.089,0.000777875,0.0501256,21.0136,502.536,-0.0406868,0.0,0.0
245,61,17.2083,17.8047,145.303,113.558,114.157,0.000731313,0.0500266,21.014,502.526,-0.0467785,0.0,0.0
252,62.75,16.7954,18.1937,143.72,113.542,114.289,0.000665785,0.0500089,21.0137,502.526,-0.0583086,0.0,0.0
259,64.5,17.4801,18.119,149.471,113.539,114.355,0.000635153,0.049865,21.013,502.526,-0.0636927,0.0,0.0
266,66.25,17.6042,17.9191,145.334,113.53,114.203,0.000680107,0.0498554,21.0127,502.516,-0.0525427,0.0,0.0
273,68,17.3412,17.3473,146.823,113.523,114.231,0.000795062,0.0498305,21.013,502.516,-0.0552913,0.0,0.0
280,69.75,17.6454,17.9344,146.317,113.519,114.221,0.000973105,0.0497788,21.0139,502.506,-0.0548556,0.0,0.0
287,71.5,17.5622,17.3553,143.882,113.511,114.26,0.00107054,0.049815,21.0137,502.506,-0.0584654,0.0,0.0
294,73.25,17.4046,17.9903,148.59,113.513,114.236,0.00102697,0.049825,21.0137,502.506,-0.0564685,0.0,0.0
301,75,17.567,18.2058,146.43,113.515,113.956,0.000919129,0.0497746,21.013,502.506,-0.0344977,0.0,0.0
308,76.75,17.6476,17.8103,152.073,113.506,113.912,0.000858856,0.0496964,21.0127,502.496,-0.0317965,0.0,0.0
315,78.5,17.665,18.0133,144.032,113.485,114.053,0.000876563,0.0496167,21.0125,502.496,-0.0443783,0.0,0.0
322,80.25,17.4561,17.8622,147.595,113.476,114.066,0.000937767,0.0496817,21.0125,502.506,-0.0461546,0.0,0.0
329,82,17.878,18.2521,144.093,113.47,114.129,0.00093615,0.0496717,21.0124,502.506,-0.0514887,0.0,0.0
336,83.75,17.8298,17.9636,149.146,113.451,114.128,0.000906944,0.0496579,21.0124,502.506,-0.0528664,0.0,0.0
343,85.5,17.8177,17.9515,152.488,113.421,114.282,0.000968823,0.0496072,21.013,502.506,-0.0672778,0.0,0.0
350,87.25,17.6808,18.2238,146.141,113.392,114.083,0.00104889,0.049619,21.0134,502.496,-0.054078,0.0,0.0
357,89,17.2972,17.4919,143.07,113.379,114.231,0.00102761,0.0497748,21.0135,502.496,-0.06663,0.0,0.0
364,90.75,18.3888,18.3782,146.518,113.36,114.129,0.000924643,0.0497864,21.0136,502.496,-0.0601287,0.0,0.0
371,92.5,18.3293,18.1575,147.758,113.345,114.047,0.000808708,0.0497403,21.0137,502.496,-0.0549249,0.0,0.0
378,94.25,18.0983,18.4176,145.582,113.311,113.847,0.000700855,0.0496537,21.0137,502.496,-0.0419308,0.0,0.0
385,96,18.0684,17.8433,146.276,113.261,113.972,0.000619858,0.0494703,21.0137,502.486,-0.0556065,0.0,0.0
392,97.75,18.3956,17.8922,146.037,113.24,113.795,0.000615587,0.0493082,21.0148,502.486,-0.0434706,0.0,0.0
399,99.5,17.9763,18.2835,143.775,113.214,113.896,0.000721873,0.0492507,21.0154,502.486,-0.0534759,0.0,0.0
406,101.25,17.9709,18.5609,144.304,113.168,113.909,0.000844665,0.049237,21.0157,502.486,-0.05799,0.0,0.0
413,103,18.0601,18.2547,149.349,113.129,113.763,0.000889215,0.0492399,21.0159,502.486,-0.0496618,0.0,0.0
420,104.75,18.0206,17.9628,144.238,113.121,113.8,0.000898078,0.0491608,21.016,502.476,-0.0532381,0.0,0.0
427,106.5,17.9709,18.4954,146.274,113.098,113.744,0.000911127,0.0490457,21.016,502.476,-0.0506154,0.0,0.0
434,108.25,17.7898,18.7569,144.804,113.089,113.662,0.000877384,0.0490166,21.0162,502.486,-0.0450011,0.0,0.0
441,110,17.9539,18.5515,145.863,113.071,113.763,0.000783833,0.0490864,21.0156,502.486,-0.0542252,0.0,0.0
448,111.75,17.6521,18.5859,144.436,113.042,113.745,0.000741233,0.0490591,21.0153,502.486,-0.0551132,0.0,0.0
455,113.5,17.8853,18.0708,150.064,113.038,113.7,0.00081808,0.0490939,21.0151,502.476,-0.051977,0.0,0.0
462,115.25,18.1253,18.9797,147.698,113.03,113.806,0.000958903,0.0490694,21.0151,502.476,-0.0607718,0.0,0.0
469,117,18.021,18.1913,145.701,113.01,113.807,0.00101176,0.0489707,21.0158,502.466,-0.0624921,0.0,0.0
476,118.75,18.0783,18.3642,145.904,112.984,113.499,0.000917201,0.049035,21.0162,502.476,-0.0404334,0.0,0.0
483,120.5,18.331,18.5135,146.267,112.998,113.586,0.000814353,0.0490379,21.0168,502.476,-0.0461727,0.0,0.0
490,122.25,17.4514,18.2393,147.911,112.984,113.747,0.000808959,0.0490003,21.0171,502.476,-0.0598032,0.0,0.0
497,124,18.3207,18.7174,147.713,112.979,113.944,0.000850977,0.0489896,21.0172,502.476,-0.0756344,0.0,0.0
504,125.75,18.6191,18.3728,145.363,112.955,113.813,0.000828098,0.0489562,21.0173,502.466,-0.0673275,0.0,0.0
511,127.5,18.5632,18.7076,146.789,112.956,113.52,0.000774673,0.0489317,21.0173,502.476,-0.0443187,0.0,0.0
518,129.25,18.2645,18.9562,150.663,112.942,113.43,0.000749044,0.0489552,21.0173,502.476,-0.0383766,0.0,0.0
525,131,17.9214,18.5783,147.346,112.938,113.66,0.000775535,0.0489063,21.0174,502.476,-0.0566883,0.0,0.0
532,132.75,17.9648,18.5365,145.934,112.925,113.728,0.000801051,0.0488701,21.0166,502.476,-0.0630494,0.0,0.0
539,134.5,17.6877,18.9695,146.729,112.917,113.652,0.000781367,0.0487806,21.0165,502.466,-0.0577302,0.0,0.0
546,136.25,18.5415,18.8167,144.151,112.917,113.63,0.000725192,0.0488427,21.0165,502.476,-0.0560199,0.0,0.0
553,138,18.4833,19.3132,148.059,112.905,113.715,0.00060134,0.0488319,21.0165,502.486,-0.0635127,0.0,0.0
560,139.75,18.2916,18.9285,148.133,112.896,113.771,0.000431124,0.0488734,21.0167,502.466,-0.0687125,0.0,0.0
567,141.5,18.4561,18.2706,150.116,112.875,113.602,0.000277999,0.0490059,21.017,502.455,-0.0570825,0.0,0.0
574,143.25,18.4261,18.9155,143.943,112.883,113.604,0.000180865,0.0490783,21.0168,502.455,-0.0566344,0.0,0.0
581,145,18.487,18.9263,147.121,112.865,113.644,0.000216188,0.0491643,21.0164,502.466,-0.0611699,0.0,0.0
588,146.75,18.4996,19.2078,148.316,112.85,113.456,0.000374297,0.0492573,21.016,502.455,-0.0476594,0.0,0.0
595,148.5,18.327,18.2327,147.043,112.85,113.545,0.000555717,0.0493017,21.0158,502.455,-0.0546268,0.0,0.0
602,150.25,18.0148,18.9041,144.41,112.828,113.607,0.000668932,0.049347,21.0157,502.455,-0.0611571,0.0,0.0
609,152,18.5133,18.945,148.454,112.819,113.555,0.000665149,0.0492263,21.0157,502.455,-0.0578492,0.0,0.0
616,153.75,18.3403,18.17,151.087,112.809,113.46,0.00065024,0.0491499,21.0157,502.455,-0.0512296,0.0,0.0
623,155.5,18.4978,19.2713,142.664,112.793,113.336,0.000691443,0.0490199,21.0157,502.455,-0.0427169,0.0,0.0
630,157.25,18.1726,19.2139,146.331,112.775,113.297,0.000745555,0.0488196,21.0157,502.455,-0.0410809,0.0,0.0
637,159,17.8951,18.7678,145.783,112.757,113.491,0.000765229,0.0487337,21.0157,502.455,-0.0577355,0.0,0.0
644,160.75,18.5793,18.8514,149.287,112.746,113.495,0.000732603,0.048645,21.0167,502.445,-0.058872,0.0,0.0
651,162.5,18.0599,18.434,149.536,112.728,113.393,0.000724188,0.048501,21.0174,502.455,-0.0523321,0.0,0.0
658,164.25,18.6466,19.0889,150.451,112.706,113.343,0.000790686,0.0485454,21.0166,502.455,-0.0501063,0.0,0.0
665,166,18.7689,19.158,150.666,112.706,113.558,0.000914825,0.0485334,21.0159,502.445,-0.0669525,0.0,0.0
672,167.75,18.1291,18.8224,145.45,112.689,113.421,0.000919482,0.0485354,21.0153,502.455,-0.0576,0.0,0.0
679,169.5,18.9385,19.4293,148.209,112.677,113.331,0.000849118,0.0487292,21.0151,502.466,-0.0514753,0.0,0.0
686,171.25,18.4311,18.8598,149.32,112.665,113.224,0.000789996,0.0486755,21.0149,502.466,-0.0439921,0.0,0.0
693,173,18.2087,19.054,144.398,112.651,113.53,0.000795477,0.0487645,21.0149,502.466,-0.0690976,0.0,0.0
700,174.75,19.1717,19.2705,145.866,112.65,113.243,0.000837301,0.0486481,21.0148,502.455,-0.0467215,0.0,0.0
707,176.5,18.4415,19.1514,144.972,112.65,113.264,0.00089078,0.0486151,21.0148,502.435,-0.0483975,0.0,0.0
714,178.25,18.6383,19.0775,147.288,112.637,113.257,0.000885449,0.0487019,21.0147,502.445,-0.0487653,0.0,0.0
721,180,18.1281,18.8806,145.994,112.635,113.29,0.000780953,0.0485472,21.0147,502.445,-0.0516139,0.0,0.0
728,181.75,18.6339,19.2753,146.837,112.689,113.331,0.00078011,0.0484347,21.0147,502.445,-0.0505088,0.0,0.0
735,183.5,18.492,19.141,145.212,112.718,113.61,0.000855957,0.0484194,21.0147,502.435,-0.0701602,0.0,0.0
742,185.25,18.7712,18.4276,144.18,112.757,113.435,0.000900683,0.0482033,21.0147,502.425,-0.0532743,0.0,0.0
749,187,18.4342,19.0801,143.128,112.785,113.494,0.000908241,0.0481114,21.0147,502.435,-0.0557175,0.0,0.0
756,188.75,18.4657,19.4412,147.714,112.813,113.436,0.000890762,0.0480988,21.0147,502.445,-0.0489209,0.0,0.0
763,190.5,18.0563,19.502,149.4,112.854,113.424,0.000827793,0.0480567,21.0147,502.455,-0.0448626,0.0,0.0
770,192.25,19.2242,19.5296,148.43,112.905,113.49,0.000757132,0.0480479,21.0147,502.445,-0.0460043,0.0,0.0
777,194,18.6326,19.2436,146.982,112.924,113.61,0.00073407,0.0479749,21.0147,502.445,-0.053822,0.0,0.0
784,195.75,18.5714,19.1687,147.183,112.952,113.854,0.000750255,0.0479755,21.0147,502.445,-0.070757,0.0,0.0
791,197.5,18.9377,19.6078,146.149,112.982,113.745,0.000711322,0.0480749,21.0147,502.435,-0.0598234,0.0,0.0
798,199.25,18.7005,19.047,144.732,112.999,113.688,0.000673649,0.0480709,21.015,502.435,-0.0540556,0.0,0.0
805,201,18.4549,19.2012,145.833,113.02,113.76,0.000685916,0.0480939,21.0167,502.435,-0.0580935,0.0,0.0
812,202.75,18.3684,19.5448,143.253,113.035,113.9,0.000770492,0.0480372,21.0174,502.435,-0.0677227,0.0,0.0
819,204.5,19.4205,19.4965,144.309,113.062,113.533,0.000832801,0.0480521,21.0179,502.425,-0.0370001,0.0,0.0
826,206.25,18.5821,19.2477,146.973,113.085,113.641,0.000823671,0.0482104,21.0181,502.435,-0.0436203,0.0,0.0
833,208,18.9213,19.245,146.124,113.094,113.697,0.000773625,0.0483489,21.0182,502.435,-0.0472762,0.0,0.0
840,209.75,18.7599,19.4849,146.966,113.108,113.669,0.000709195,0.0485505,21.0182,502.435,-0.0440598,0.0,0.0
847,211.5,18.6381,19.1943,148.398,113.109,113.762,0.000608636,0.0485244,21.0183,502.435,-0.0511864,0.0,0.0
854,213.25,18.6425,19.0453,145.558,113.131,113.469,0.000536937,0.0485926,21.0183,502.445,-0.026488,0.0,0.0
861,215,18.6643,19.2737,146.407,113.145,113.748,0.000487675,0.0485128,21.0173,502.435,-0.0472576,0.0,0.0
868,216.75,18.3965,19.1231,147.196,113.152,113.931,0.000423942,0.0484935,21.0166,502.425,-0.0609826,0.0,0.0
875,218.5,19.1114,19.1478,151.897,113.156,113.825,0.00037586,0.0486539,21.0167,502.435,-0.0524436,0.0,0.0
882,220.25,18.3208,19.596,147.492,113.167,113.91,0.000380115,0.0488243,21.0168,502.435,-0.058141,0.0,0.0
889,222,18.3689,19.1228,146.48,113.189,113.774,0.00038874,0.0488828,21.0168,502.425,-0.0458312,0.0,0.0
896,223.75,18.8361,19.7494,145.483,113.192,114.052,0.000421903,0.0487841,21.0178,502.425,-0.0672831,0.0,0.0
903,225.5,18.427,19.4573,148.681,113.199,113.768,0.000451796,0.0487007,21.0174,502.425,-0.0445712,0.0,0.0
910,227.25,18.9815,19.4952,145.362,113.186,114.121,0.000453427,0.0487362,21.017,502.425,-0.0731692,0.0,0.0
917,229,18.6249,19.239,146.118,113.192,113.69,0.000422997,0.048787,21.0165,502.435,-0.0390213,0.0,0.0
924,230.75,18.7755,19.6053,145.213,113.194,113.567,0.000421962,0.0487288,21.0161,502.435,-0.0292934,0.0,0.0
931,232.5,19.2406,19.1875,142.698,113.186,113.975,0.000493812,0.0487724,21.0159,502.435,-0.061757,0.0,0.0
938,234.25,18.604,19.3731,143.696,113.184,113.833,0.000557557,0.0488061,21.0159,502.425,-0.0508654,0.0,0.0
945,236,18.6863,19.6284,143.511,113.188,113.727,0.000588389,0.0487408,21.0158,502.425,-0.0422834,0.0,0.0
952,237.75,18.8465,19.9146,147.329,113.196,113.605,0.000546536,0.0487235,21.0158,502.425,-0.0321348,0.0,0.0
959,239.5,19.1925,19.6423,144.457,113.183,114.035,0.000471945,0.0486371,21.0158,502.415,-0.0666882,0.0,0.0
966,241.25,19.0337,19.6385,144.241,113.195,113.89,0.000430412,0.0485787,21.0158,502.415,-0.0544556,0.0,0.0
973,243,18.3305,19.2319,146.485,113.176,113.641,0.000371699,0.0484395,21.0158,502.415,-0.0364912,0.0,0.0
980,244.75,18.7132,19.3637,144.803,113.185,113.638,0.000302255,0.0484457,21.0158,502.415,-0.0355402,0.0,0.0
987,246.5,18.8703,19.6817,145.638,113.208,113.807,0.00034587,0.0484816,21.0154,502.415,-0.0469522,0.0,0.0
994,248.25,19.1369,19.7158,147.881,113.189,113.913,0.000471358,0.0484395,21.0152,502.415,-0.0567443,0.0,0.0
1001,250,19.0675,19.9122,148.937,113.186,113.809,0.000607956,0.0484436,21.0151,502.415,-0.0487461,0.0,0.0
1008,251.75,18.7278,19.4177,141.865,113.198,113.863,0.000667089,0.0484372,21.0162,502.425,-0.0520677,0.0,0.0
1015,253.5,19.0255,19.5102,144.248,113.193,113.671,0.000670579,0.0484702,21.0157,502.425,-0.0375191,0.0,0.0
1022,255.25,19.0457,19.6989,146.704,113.195,113.776,0.000635667,0.0484174,21.0153,502.425,-0.0455232,0.0,0.0
1029,257,19.0324,19.1616,146.028,113.19,113.801,0.000602374,0.0483837,21.0152,502.425,-0.0478646,0.0,0.0
1036,258.75,18.6569,20.2735,146.937,113.19,113.857,0.000611448,0.0483941,21.0151,502.425,-0.0522319,0.0,0.0
1043,260.5,18.8529,19.5321,148.227,113.21,113.726,0.000655939,0.048372,21.015,502.425,-0.0404227,0.0,0.0
1050,262.25,19.3268,19.9041,144.539,113.191,113.712,0.000652907,0.0484081,21.015,502.415,-0.0408413,0.0,0.0
1057,264,18.5971,19.9692,146.018,113.185,113.706,0.000613735,0.0485171,21.015,502.415,-0.0408674,0.0,0.0
1064,265.75,18.6858,19.2801,147.5,113.171,113.728,0.000596517,0.0486071,21.015,502.415,-0.0436054,0.0,0.0
1071,267.5,18.9225,19.6625,149.242,113.193,113.867,0.000626657,0.0485125,21.015,502.405,-0.0527368,0.0,0.0
1078,269.25,18.5878,19.697,148.796,113.193,114.017,0.000667366,0.0483894,21.015,502.415,-0.064517,0.0,0.0
1085,271,19.6394,19.5589,144.427,113.193,114.013,0.000676738,0.0482983,21.015,502.405,-0.0641998,0.0,0.0
1092,272.75,18.9649,19.2187,145.966,113.184,113.892,0.000599867,0.0483369,21.0149,502.405,-0.0555089,0.0,0.0
1099,274.5,18.802,19.5618,147.425,113.203,113.936,0.000489258,0.0484746,21.0148,502.415,-0.0573498,0.0,0.0
1106,276.25,18.7115,19.7402,146.026,113.199,114.058,0.000416351,0.0486254,21.0148,502.405,-0.0671849,0.0,0.0
1113,278,18.9436,18.8661,149.842,113.202,113.92,0.000416181,0.0485862,21.0148,502.415,-0.0561911,0.0,0.0
1120,279.75,18.8398,19.5403,145.783,113.198,113.761,0.000455646,0.0486788,21.0148,502.415,-0.0441615,0.0,0.0
1127,281.5,18.972,19.3868,149.081,113.194,113.743,0.000472046,0.0487132,21.0151,502.415,-0.043012,0.0,0.0
1134,283.25,19.311,19.7714,147.1,113.213,113.848,0.000487232,0.0488644,21.0154,502.425,-0.0497007,0.0,0.0
1141,285,18.9063,19.3895,146.418,113.205,113.85,0.000537008,0.0489263,21.0155,502.415,-0.050576,0.0,0.0
1148,286.75,18.8501,19.7997,145.492,113.209,113.738,0.000518913,0.0489046,21.0156,502.405,-0.041443,0.0,0.0
1155,288.5,19.18,19.1451,144.893,113.19,113.935,0.00040681,0.0489212,21.0156,502.395,-0.0583427,0.0,0.0
1162,290.25,19.1596,19.1946,146.14,113.2,113.794,0.000323938,0.0488829,21.0156,502.405,-0.0466,0.0,0.0
1169,292,18.6055,19.8529,146.418,113.186,113.697,0.000296118,0.0488017,21.0156,502.405,-0.0401165,0.0,0.0
1176,293.75,19.1662,19.2817,149.27,113.175,113.707,0.000231926,0.0488193,21.0156,502.405,-0.0417663,0.0,0.0
1183,295.5,18.8178,19.5364,143.889,113.167,113.598,0.000196798,0.0489549,21.0147,502.395,-0.0337868,0.0,0.0
1190,297.25,18.9481,19.9919,145.791,113.157,113.784,0.000266657,0.0491013,21.014,502.395,-0.0491554,0.0,0.0
1197,299,19.1617,19.8043,147.795,113.147,113.784,0.000422828,0.0491606,21.0136,502.405,-0.0498643,0.0,0.0
1204,300.75,18.7785,19.3318,146.152,113.112,113.798,0.000495138,0.0490475,21.0135,502.415,-0.0537564,0.0,0.0
1211,302.5,19.1578,19.5666,143.762,113.099,113.679,0.00048972,0.0490818,21.0134,502.405,-0.0454928,0.0,0.0
1218,304.25,19.4525,19.9553,147.933,113.067,113.58,0.000509078,0.0491272,21.0133,502.405,-0.0402688,0.0,0.0
1225,306,19.0699,19.775,146.955,113.063,113.706,0.000530292,0.0491231,21.0133,502.395,-0.0504523,0.0,0.0
1232,307.75,19.4115,20.1787,144.603,113.035,113.868,0.000582013,0.0490869,21.0133,502.395,-0.0653334,0.0,0.0
1239,309.5,19.656,20.6825,146.21,113.003,113.734,0.000655198,0.0490759,21.0133,502.395,-0.0573514,0.0,0.0
1246,311.25,19.0158,19.4199,147.619,112.971,113.511,0.000697229,0.0489307,21.0133,502.405,-0.0424197,0.0,0.0
1253,313,19.0607,19.1047,150.987,112.943,113.386,0.000669297,0.0488809,21.0133,502.395,-0.0347621,0.0,0.0
1260,314.75,18.6302,19.4265,147.037,112.911,113.406,0.000626123,0.0489253,21.0133,502.405,-0.0389276,0.0,0.0
1267,316.5,18.9763,19.6449,145.751,112.864,113.371,0.000624512,0.0488219,21.0139,502.405,-0.0398924,0.0,0.0
1274,318.25,18.806,19.189,147.558,112.811,113.28,0.000614702,0.0486957,21.0143,502.395,-0.0368638,0.0,0.0
1281,320,18.9577,19.798,144.209,112.761,113.161,0.000537873,0.0486324,21.0144,502.395,-0.031488,0.0,0.0
1288,321.75,18.7461,19.4861,144.367,112.712,113.399,0.000412408,0.0486013,21.0153,502.395,-0.0540262,0.0,0.0
1295,323.5,18.6438,19.6908,145.108,112.649,113.262,0.000353444,0.0485828,21.0162,502.415,-0.0483096,0.0,0.0
1302,325.25,19.2141,20.2273,142.748,112.643,113.275,0.000403676,0.0485767,21.0166,502.405,-0.0497364,0.0,0.0
1309,327,18.9189,20.0281,143.51,112.637,113.274,0.000492608,0.0486067,21.0167,502.405,-0.050198,0.0,0.0
1316,328.75,19.0558,19.5634,147.824,112.664,113.324,0.000501997,0.0486123,21.0168,502.415,-0.0519946,0.0,0.0
1323,330.5,19.2294,20.0559,149.44,112.691,113.346,0.000449367,0.0486867,21.0169,502.415,-0.0515617,0.0,0.0
1330,332.25,19.0924,19.7442,145.339,112.704,113.385,0.000405933,0.0486855,21.0169,502.415,-0.053558,0.0,0.0
1337,334,18.9666,19.8068,146.286,112.731,113.349,0.000396899,0.048839,21.0163,502.405,-0.0485776,0.0,0.0
1344,335.75,18.5792,20.0305,148.709,112.734,113.404,0.000439936,0.0487801,21.0159,502.405,-0.0527075,0.0,0.0
1351,337.5,19.1807,19.7565,147.038,112.745,113.403,0.000526711,0.0488971,21.0164,502.415,-0.0516939,0.0,0.0
1358,339.25,18.9276,19.9821,148.913,112.772,113.432,0.000602865,0.0489513,21.0161,502.405,-0.0519306,0.0,0.0
1365,341,19.1151,19.9416,142.904,112.79,113.453,0.000699028,0.0489568,21.0157,502.415,-0.0521338,0.0,0.0
1372,342.75,18.7035,19.4665,149.592,112.803,113.21,0.000777373,0.0489328,21.0155,502.405,-0.0320002,0.0,0.0
1379,344.5,19.6602,19.8926,144.906,112.829,113.276,0.000806396,0.0488437,21.0154,502.395,-0.0351911,0.0,0.0
1386,346.25,18.8516,20.155,146.57,112.844,113.571,0.00082127,0.0487576,21.0153,502.395,-0.0571172,0.0,0.0
1393,348,19.1923,20.1143,147.037,112.859,113.573,0.000821028,0.0487056,21.0153,502.395,-0.056061,0.0,0.0
1400,349.75,19.2663,19.5565,145.37,112.876,113.347,0.000799318,0.0486771,21.0153,502.395,-0.0370139,0.0,0.0
1407,351.5,19.1904,19.8831,145.699,112.895,113.316,0.000755007,0.048597,21.0153,502.395,-0.0330818,0.0,0.0
1414,353.25,18.9925,19.6822,143.745,112.913,113.508,0.000686122,0.04857,21.0153,502.395,-0.0467199,0.0,0.0
1421,355,18.8309,19.8762,149.375,112.93,113.815,0.00064785,0.0485548,21.0153,502.405,-0.0694096,0.0,0.0
1428,356.75,19.2163,19.5399,144.061,112.934,113.542,0.000676313,0.0485709,21.0153,502.395,-0.0477447,0.0,0.0
1435,358.5,19.5642,19.7161,144.517,112.96,113.722,0.000739922,0.0486579,21.0153,502.385,-0.059784,0.0,0.0
1442,360.25,19.0366,19.8404,145.746,112.989,113.749,0.000852691,0.0486015,21.0153,502.385,-0.0595705,0.0,0.0
1449,362,19.415,19.6353,148.166,112.981,113.431,0.000869688,0.0486113,21.016,502.395,-0.0353816,0.0,0.0
1456,363.75,19.1596,19.6687,144.331,112.987,113.572,0.000740156,0.0485886,21.0153,502.395,-0.0459116,0.0,0.0
1463,365.5,18.9041,19.7003,142.573,113.005,113.735,0.000549408,0.0486481,21.0149,502.385,-0.0572879,0.0,0.0
1470,367.25,19.0569,19.9063,148.918,113.035,113.639,0.000487782,0.0486698,21.0158,502.385,-0.0473844,0.0,0.0
1477,369,18.5861,19.6379,144.546,113.073,113.583,0.000538976,0.0485257,21.0164,502.395,-0.0400441,0.0,0.0
1484,370.75,19.7439,20.1373,144.197,113.083,113.592,0.000635389,0.0484802,21.0167,502.395,-0.0399754,0.0,0.0
1491,372.5,19.301,20.053,149.816,113.1,113.76,0.000726899,0.0483525,21.0168,502.395,-0.0517403,0.0,0.0
1498,374.25,19.1203,19.8147,145.174,113.137,113.981,0.00080535,0.0483262,21.0169,502.395,-0.0660457,0.0,0.0
1505,376,19.1382,19.8918,147.217,113.18,113.882,0.000857834,0.0482326,21.0169,502.395,-0.0549964,0.0,0.0
1512,377.75,18.7881,19.8625,144.49,113.198,113.774,0.00083794,0.0480744,21.0169,502.385,-0.0451151,0.0,0.0
1519,379.5,19.0232,19.5307,144.222,113.226,113.773,0.000781752,0.0479826,21.0169,502.375,-0.0428666,0.0,0.0
1526,381.25,19.1696,19.8761,145.212,113.238,113.893,0.000668612,0.0479431,21.0169,502.375,-0.05135,0.0,0.0
1533,383,19.1905,20.1856,147.448,113.272,113.943,0.000506811,0.0479002,21.0169,502.375,-0.0524921,0.0,0.0
1540,384.75,19.3529,19.7722,144.689,113.309,113.82,0.000373864,0.047889,21.0166,502.375,-0.0400452,0.0,0.0
1547,386.5,19.433,19.8492,145.457,113.319,114.112,0.000379746,0.0479452,21.0162,502.385,-0.0620282,0.0,0.0
1554,388.25,19.4693,19.5847,149.266,113.348,113.7,0.000513895,0.0479074,21.0161,502.385,-0.0275737,0.0,0.0
1561,390,19.7398,20.0649,147.116,113.373,114.116,0.000559342,0.0479162,21.016,502.375,-0.0581069,0.0,0.0
1568,391.75,19.2263,20.4203,144.935,113.385,114.151,0.000519547,0.0479808,21.016,502.385,-0.0598747,0.0,0.0
1575,393.5,19.3011,19.6474,146.08,113.404,113.835,0.000513768,0.0479279,21.0159,502.365,-0.0337256,0.0,0.0
1582,395.25,19.1553,19.9241,147.412,113.398,113.985,0.000569622,0.0479835,21.0159,502.375,-0.0459313,0.0,0.0
1589,397,19.1287,19.7425,144.598,113.426,113.968,0.000632951,0.0479934,21.0159,502.375,-0.0423793,0.0,0.0
1596,398.75,19.4988,19.8194,146.695,113.46,114.098,0.000652509,0.0478991,21.0159,502.385,-0.0498195,0.0,0.0
1603,400.5,18.8358,19.7793,145.231,113.445,114.163,0.000645952,0.0479378,21.0159,502.375,-0.0561005,0.0,0.0
1610,402.25,19.3413,19.9413,147.518,113.459,114.158,0.000584079,0.0478573,21.0159,502.385,-0.0546337,0.0,0.0
1617,404,19.0762,20.0136,145.296,113.451,114.106,0.000453513,0.047853,21.0159,502.375,-0.0512029,0.0,0.0
1624,405.75,19.1128,19.8178,144.489,113.465,113.972,0.000324163,0.047839,21.0159,502.375,-0.0395995,0.0,0.0
1631,407.5,19.0493,20.1371,144.525,113.503,114.073,0.000245047,0.047944,21.0162,502.365,-0.0445419,0.0,0.0
1638,409.25,19.1535,19.9345,148.913,113.5,113.918,0.000162467,0.0479786,21.0172,502.375,-0.0326945,0.0,0.0
1645,411,19.7106,20.2953,150.334,113.514,113.893,0.000118601,0.0479346,21.019,502.385,-0.0296886,0.0,0.0
1652,412.75,18.8021,19.6789,145.436,113.506,114.023,0.000152594,0.0479238,21.0198,502.375,-0.0404408,0.0,0.0
1659,414.5,19.5748,20.152,148.06,113.517,114.112,0.000214085,0.0479353,21.0202,502.385,-0.0465622,0.0,0.0
1666,416.25,19.5527,20.171,142.873,113.523,114.074,0.00029845,0.0479125,21.0204,502.385,-0.0430578,0.0,0.0
1673,418,19.2504,19.1152,144.489,113.525,113.988,0.000375926,0.0478546,21.0205,502.365,-0.0361783,0.0,0.0
1680,419.75,19.3384,20.2953,145.662,113.527,114.127,0.000435832,0.0478261,21.0197,502.375,-0.0468537,0.0,0.0
1687,421.5,19.7145,19.8436,143.132,113.537,114.269,0.000472069,0.0477884,21.0202,502.385,-0.0572282,0.0,0.0
1694,423.25,19.3008,20.0603,143.814,113.537,114.449,0.000478199,0.0477328,21.0204,502.385,-0.0711818,0.0,0.0
1701,425,19.2698,20.0339,146.44,113.533,114.191,0.000477599,0.0476814,21.0205,502.365,-0.0513442,0.0,0.0
1708,426.75,19.4963,20.0978,146.015,113.541,114.457,0.000510506,0.0477779,21.0205,502.365,-0.0714148,0.0,0.0
1715,428.5,19.2837,19.3369,145.061,113.553,114.373,0.000519976,0.0478711,21.0202,502.375,-0.0639788,0.0,0.0
1722,430.25,19.4077,19.8527,146.196,113.553,114.429,0.000509941,0.0477879,21.0199,502.365,-0.0683241,0.0,0.0
1729,432,19.2871,20.068,148.597,113.545,114.078,0.000534643,0.047752,21.0197,502.365,-0.0417056,0.0,0.0
1736,433.75,19.3515,19.8483,141.959,113.548,114.224,0.000586234,0.0477149,21.0196,502.375,-0.05278,0.0,0.0
1743,435.5,19.635,20.2927,144.568,113.527,114.364,0.000628086,0.0476185,21.0196,502.375,-0.0652875,0.0,0.0
1750,437.25,19.4582,19.6588,143.816,113.537,114.316,0.000596886,0.047669,21.0196,502.375,-0.0608662,0.0,0.0
1757,439,19.7323,20.0801,146.938,113.537,114.133,0.000502734,0.0477113,21.0199,502.375,-0.0465515,0.0,0.0
1764,440.75,19.4759,20.1762,146.369,113.541,114.393,0.000470323,0.0476935,21.0195,502.375,-0.0664783,0.0,0.0
1771,442.5,18.9529,19.8707,146.503,113.517,114.122,0.000519284,0.0475531,21.0188,502.375,-0.0473141,0.0,0.0
1778,444.25,19.3426,19.8637,149.483,113.539,114,0.000604221,0.0476442,21.0184,502.375,-0.036025,0.0,0.0
1785,446,19.6373,20.6184,144.774,113.513,113.812,0.000679212,0.0477295,21.0182,502.375,-0.0233338,0.0,0.0
1792,447.75,19.2293,19.8218,146.757,113.51,114.198,0.000683292,0.0478296,21.0182,502.365,-0.05375,0.0,0.0
1799,449.5,19.4955,20.185,147.121,113.498,114.3,0.000585131,0.0478263,21.0181,502.365,-0.0625844,0.0,0.0
1806,451.25,18.9789,20.0515,141.969,113.494,114.149,0.000531714,0.0478477,21.0181,502.365,-0.0511139,0.0,0.0
1813,453,19.0642,19.6431,145.358,113.483,114.121,0.000537438,0.0479079,21.0191,502.375,-0.0498243,0.0,0.0
1820,454.75,19.3826,19.9205,145.584,113.48,114.305,0.000579469,0.0479902,21.0197,502.365,-0.0644364,0.0,0.0
1827,456.5,19.8538,20.1318,144.695,113.474,114.071,0.000626384,0.0479522,21.0195,502.365,-0.0466933,0.0,0.0
1834,458.25,19.3165,20.0777,146.988,113.454,113.957,0.000671399,0.0478292,21.0187,502.365,-0.0393781,0.0,0.0
1841,460,19.6134,20.1587,148.515,113.448,114.2,0.000647576,0.0478922,21.0183,502.365,-0.0587722,0.0,0.0
1848,461.75,19.4165,20.3401,146.766,113.439,114.107,0.000535877,0.0479755,21.0181,502.365,-0.0522426,0.0,0.0
1855,463.5,19.8641,20.1268,146.893,113.419,113.855,0.000423686,0.0478393,21.018,502.355,-0.0341406,0.0,0.0
1862,465.25,19.6455,20.2258,146.831,113.405,114.223,0.000389013,0.0477195,21.0179,502.365,-0.0638982,0.0,0.0
1869,467,19.6438,20.1314,145.862,113.399,113.819,0.000460296,0.0476622,21.0179,502.365,-0.0328466,0.0,0.0
1876,468.75,19.7382,20.086,145.072,113.41,114.026,0.000523764,0.0476596,21.0179,502.365,-0.0481785,0.0,0.0
1883,470.5,19.4857,20.1283,148.529,113.373,114.146,0.000579238,0.0476516,21.0179,502.365,-0.0604078,0.0,0.0
1890,472.25,19.1133,20.6232,142.991,113.348,113.863,0.000673719,0.0477042,21.0179,502.365,-0.0403237,0.0,0.0
1897,474,19.3969,20.0199,147.205,113.332,113.793,0.000749552,0.0477087,21.0179,502.355,-0.0360894,0.0,0.0
1904,475.75,19.8465,20.6468,143.319,113.323,113.815,0.000775362,0.047794,21.0179,502.355,-0.0385443,0.0,0.0
1911,477.5,19.7117,20.4255,145.85,113.303,113.739,0.000805942,0.0477702,21.0186,502.365,-0.0342279,0.0,0.0
1918,479.25,19.6002,20.1728,147.316,113.281,113.986,0.000847954,0.0477842,21.0191,502.365,-0.0551905,0.0,0.0
1925,481,19.4572,20.1939,141.92,113.254,113.776,0.000817662,0.0478446,21.0193,502.355,-0.040862,0.0,0.0
1932,482.75,19.2898,20.1512,147.543,113.245,113.789,0.000725172,0.047835,21.0194,502.355,-0.0426056,0.0,0.0
1939,484.5,19.9575,20.1853,145.244,113.225,113.955,0.000727375,0.0478786,21.0195,502.365,-0.0571823,0.0,0.0
1946,486.25,19.3101,19.977,145.824,113.205,113.811,0.000791942,0.0478664,21.0195,502.365,-0.0474484,0.0,0.0
1953,488,19.1988,20.1361,144.231,113.174,113.866,0.000811999,0.047799,21.0195,502.365,-0.0541937,0.0,0.0
1960,489.75,19.5049,19.9925,147.671,113.165,113.815,0.00076589,0.0480435,21.0195,502.355,-0.0509721,0.0,0.0
1967,491.5,19.5408,19.8143,146.994,113.156,113.689,0.000702395,0.0481732,21.0183,502.365,-0.0417567,0.0,0.0
1974,493.25,19.8409,20.3709,146.197,113.123,113.754,0.000683836,0.0481885,21.0178,502.355,-0.0494811,0.0,0.0
1981,495,19.5157,19.8362,146.829,113.092,113.877,0.000707259,0.0482255,21.0183,502.355,-0.0615547,0.0,0.0
1988,496.75,19.6524,20.3618,149.158,113.074,113.499,0.000713732,0.048074,21.0189,502.365,-0.0334053,0.0,0.0
1995,498.5,19.4189,20.4,143.523,113.069,113.728,0.000652292,0.0480415,21.0193,502.365,-0.0517014,0.0,0.0
2002,500.25,19.8768,20.5541,145.205,113.051,113.513,0.00057271,0.0480833,21.0188,502.365,-0.0362677,0.0,0.0
2009,502,19.7199,20.619,144.97,113.038,113.535,0.000566523,0.0482031,21.0187,502.355,-0.0390496,0.0,0.0
2016,503.75,19.4695,20.4901,146.694,113.028,113.576,0.000614225,0.0482646,21.0187,502.365,-0.0430221,0.0,0.0
2023,505.5,19.7227,20.344,147.308,113.014,113.658,0.000654043,0.0482247,21.0187,502.375,-0.0505323,0.0,0.0
2030,507.25,19.6354,20.1609,146.619,112.982,113.681,0.000672171,0.048199,21.0187,502.365,-0.0548198,0.0,0.0
2037,509,19.7949,20.2202,145.441,112.969,113.522,0.000608411,0.0482898,21.0187,502.365,-0.0434387,0.0,0.0
2044,510.75,19.4743,20.091,143.864,112.952,113.645,0.000557245,0.0483311,21.0187,502.365,-0.0544641,0.0,0.0
2051,512.5,19.6656,19.9072,146.612,112.925,113.62,0.000590864,0.0484151,21.0184,502.355,-0.054582,0.0,0.0
2058,514.25,19.9722,20.4156,148.81,112.93,113.64,0.000643647,0.048496,21.0182,502.365,-0.0557794,0.0,0.0
2065,516,19.7484,20.4135,142.514,112.92,113.502,0.000636834,0.0483968,21.018,502.365,-0.0457022,0.0,0.0
2072,517.75,19.8166,20.4711,141.416,112.912,113.366,0.000548279,0.0482843,21.018,502.365,-0.0357477,0.0,0.0
2079,519.5,19.9771,20.5101,146.195,112.888,113.427,0.000445832,0.0482697,21.0179,502.365,-0.042383,0.0,0.0
2086,521.25,19.4365,20.1839,146.517,112.869,113.586,0.000397548,0.0482976,21.0179,502.355,-0.0562738,0.0,0.0
2093,523,19.5441,19.9527,142.21,112.871,113.594,0.000403665,0.0482233,21.0179,502.345,-0.0568035,0.0,0.0
2100,524.75,19.1885,19.9025,142.516,112.855,113.424,0.000418082,0.0483346,21.0179,502.345,-0.0447917,0.0,0.0
2107,526.5,19.6943,20.2638,144.985,112.838,113.459,0.000393941,0.0484837,21.0179,502.345,-0.0488265,0.0,0.0
2114,528.25,19.3401,20.1679,141.186,112.844,113.416,0.000387547,0.0485211,21.0168,502.355,-0.0449366,0.0,0.0
2121,530,18.8618,19.8371,148.089,112.835,113.372,0.000374751,0.0485849,21.0162,502.365,-0.0421881,0.0,0.0
2128,531.75,19.3231,20.1433,143.041,112.835,113.5,0.000349539,0.0487149,21.0159,502.355,-0.0522628,0.0,0.0
2135,533.5,19.5672,20.0289,144.832,112.826,113.391,0.000327584,0.0487071,21.0157,502.355,-0.0444172,0.0,0.0
2142,535.25,19.4467,20.2834,149.2,112.809,113.351,0.00029709,0.0486799,21.0156,502.355,-0.0426221,0.0,0.0
2149,537,19.4873,20.0826,149.347,112.811,113.152,0.000267077,0.0486488,21.0156,502.355,-0.0268767,0.0,0.0
2156,538.75,19.301,19.9132,142.903,112.807,113.233,0.000210347,0.0485586,21.0156,502.345,-0.03355,0.0,0.0
2163,540.5,19.6576,20.4305,143.5,112.801,113.2,0.000193519,0.0485767,21.0156,502.355,-0.031456,0.0,0.0
2170,542.25,19.2394,20.0536,146.08,112.791,113.547,0.00031473,0.0485627,21.0156,502.365,-0.0594286,0.0,0.0
2177,544,19.3086,20.443,143.694,112.779,113.291,0.000481729,0.0485355,21.0156,502.355,-0.0402806,0.0,0.0
2184,545.75,19.0551,20.4175,148.491,112.781,113.377,0.000567999,0.0485636,21.0158,502.355,-0.0468718,0.0,0.0
2191,547.5,19.3717,19.879,138.278,112.775,113.339,0.000619994,0.0485932,21.0167,502.355,-0.0443863,0.0,0.0
2198,549.25,19.4837,20.0837,145.901,112.784,113.727,0.000703933,0.0486485,21.0171,502.345,-0.0740077,0.0,0.0
2205,551,19.7786,20.5986,142.133,112.766,113.365,0.000754799,0.0487403,21.0173,502.355,-0.047135,0.0,0.0
2212,552.75,19.5042,20.3927,149.864,112.784,113.354,0.000714204,0.0485422,21.0174,502.345,-0.0447922,0.0,0.0
2219,554.5,20.0593,19.9029,142.968,112.784,113.312,0.000566662,0.0484923,21.0175,502.345,-0.0415224,0.0,0.0
2226,556.25,19.6368,20.5131,145.316,112.797,113.421,0.000398415,0.04847,21.0175,502.335,-0.049052,0.0,0.0
2233,558,19.5274,20.5722,143.744,112.795,113.269,0.000296418,0.0485441,21.0175,502.345,-0.0373131,0.0,0.0
2240,559.75,19.0814,20.2692,143.274,112.801,113.355,0.000315109,0.048602,21.0175,502.345,-0.0435127,0.0,0.0
2247,561.5,19.5387,19.2881,143.996,112.808,113.355,0.000377837,0.0484086,21.0175,502.345,-0.0430125,0.0,0.0
2254,563.25,19.4591,20.3157,146.573,112.815,113.315,0.000419369,0.0483517,21.0175,502.345,-0.0393301,0.0,0.0
2261,565,19.8619,20.6378,142.924,112.813,113.451,0.000434866,0.0486029,21.0164,502.345,-0.0501511,0.0,0.0
2268,566.75,20.0489,20.2236,143.622,112.818,113.696,0.000487537,0.0487635,21.0158,502.335,-0.0689016,0.0,0.0
2275,568.5,19.652,20.727,143.157,112.827,113.432,0.00063182,0.0487437,21.0155,502.335,-0.0475693,0.0,0.0
2282,570.25,19.7316,20.1917,146.693,112.843,113.375,0.000764822,0.04883,21.0151,502.345,-0.0418158,0.0,0.0
2289,572,19.7014,20.5138,142.987,112.857,113.678,0.000745536,0.048921,21.0148,502.345,-0.0644727,0.0,0.0
2296,573.75,19.7492,20.3581,150.091,112.851,113.251,0.00065447,0.0489344,21.0147,502.345,-0.031405,0.0,0.0
2303,575.5,19.7585,20.3401,146.721,112.863,113.483,0.000547967,0.048995,21.0149,502.345,-0.0486933,0.0,0.0
2310,577.25,20.3288,20.0297,144.085,112.874,113.71,0.000497068,0.0491085,21.0152,502.345,-0.0656549,0.0,0.0
2317,579,19.5182,20.1561,143.844,112.878,113.396,0.0004753,0.0490587,21.0153,502.345,-0.0407422,0.0,0.0
2324,580.75,19.7076,20.4516,143.048,112.875,113.406,0.000392563,0.0490762,21.0154,502.345,-0.0417135,0.0,0.0
2331,582.5,19.6566,20.0044,149.76,112.862,113.376,0.000285864,0.048965,21.0154,502.335,-0.0403583,0.0,0.0
2338,584.25,19.4147,19.8674,142.719,112.889,113.417,0.000262802,0.0489198,21.0154,502.335,-0.0415548,0.0,0.0
2345,586,19.9157,20.1374,143.227,112.893,113.376,0.000365891,0.0489776,21.0152,502.335,-0.0379689,0.0,0.0
2352,587.75,19.538,20.0225,146.326,112.893,113.385,0.000570972,0.0491513,21.0149,502.345,-0.0386471,0.0,0.0
2359,589.5,20.0345,20.3154,145.441,112.904,113.402,0.000776925,0.0492496,21.0147,502.355,-0.0390693,0.0,0.0
2366,591.25,20.2855,20.3569,144.221,112.928,113.772,0.000887966,0.0492107,21.0146,502.355,-0.0662925,0.0,0.0
2373,593,19.0089,19.7852,146.303,112.934,113.712,0.000917138,0.0491544,21.0138,502.345,-0.0610642,0.0,0.0
2380,594.75,19.8222,20.1958,145.783,112.942,113.726,0.000847507,0.0490522,21.0134,502.345,-0.0615697,0.0,0.0
2387,596.5,19.6723,19.8424,146.327,112.923,113.527,0.000678981,0.0489923,21.0134,502.335,-0.0474388,0.0,0.0
2394,598.25,19.9406,20.4796,145.442,112.939,113.441,0.000504647,0.0490017,21.0137,502.355,-0.0394265,0.0,0.0
2401,600,19.425,20.1403,145.867,112.967,113.79,0.000298644,0.0491158,21.0128,502.466,-0.0645768,0.0,0.0
2408,601.75,19.7008,19.7585,145.741,112.958,113.35,0.00021379,0.0490688,21.0124,502.305,-0.0308294,0.0,0.0
2415,603.5,19.5832,19.5407,147.35,112.952,113.401,0.000320238,0.0489835,21.0122,502.325,-0.0352794,0.0,0.0
2422,605.25,18.8648,19.7091,146.769,112.95,113.281,0.000483945,0.0489867,21.0122,502.355,-0.026008,0.0,0.0
2429,607,18.5793,19.632,145.883,112.96,113.506,0.000585814,0.0490821,21.0125,502.355,-0.0428789,0.0,0.0
2436,608.75,19.0621,19.5162,144.722,112.986,113.723,0.000661472,0.0490648,21.0127,502.355,-0.0577969,0.0,0.0
2443,610.5,19.2374,19.5973,143.714,112.976,113.57,0.000694691,0.04911,21.0134,502.365,-0.0466448,0.0,0.0
2450,612.25,19.2786,19.6856,145.27,112.954,113.462,0.000675396,0.0490908,21.0139,502.355,-0.0399573,0.0,0.0
2457,614,18.7055,19.8902,145.318,112.962,113.424,0.000674685,0.0490633,21.0146,502.365,-0.0363273,0.0,0.0
2464,615.75,18.8205,19.7348,140.927,112.962,113.891,0.000669435,0.0490334,21.0161,502.345,-0.0728293,0.0,0.0
2471,617.5,19.1788,19.9548,146.694,112.963,113.79,0.000608338,0.0490063,21.016,502.345,-0.0648619,0.0,0.0
2478,619.25,19.5149,20.4196,143.996,112.971,113.523,0.000568452,0.0490416,21.0159,502.335,-0.0433396,0.0,0.0
2485,621,19.62,19.74,143.849,112.965,113.475,0.000587533,0.0490735,21.0159,502.335,-0.0400218,0.0,0.0
2492,622.75,19.2672,20.2374,145.313,113.021,113.56,0.000625342,0.0490152,21.0159,502.335,-0.0423196,0.0,0.0
2499,624.5,19.0462,19.6202,146.702,112.988,113.581,0.000674783,0.0490104,21.0168,502.335,-0.0465601,0.0,0.0
2506,626.25,19.5154,19.9997,143.849,112.989,113.544,0.000704702,0.0489678,21.0175,502.325,-0.0435441,0.0,0.0
2513,628,19.474,19.8688,142.705,112.974,113.67,0.000745541,0.0488036,21.0179,502.345,-0.0545873,0.0,0.0
2520,629.75,19.1183,19.9594,146.141,112.998,113.654,0.000795735,0.0486899,21.0176,502.345,-0.0514983,0.0,0.0
2527,631.5,18.6874,19.8705,150.387,112.991,113.488,0.000776795,0.0486536,21.0167,502.355,-0.0390575,0.0,0.0
2534,633.25,19.7543,19.9137,144.37,113.006,113.374,0.00066032,0.0487884,21.0163,502.355,-0.0289557,0.0,0.0
2541,635,19.2953,20.0316,141.861,112.998,113.648,0.000514887,0.0487263,21.0163,502.345,-0.0510259,0.0,0.0
2548,636.75,18.2986,20.4898,143.878,112.991,113.735,0.000415974,0.0486582,21.0173,502.335,-0.0583182,0.0,0.0
2555,638.5,19.1132,20.466,141.661,112.985,113.607,0.000421154,0.0486247,21.0178,502.335,-0.0488745,0.0,0.0
2562,640.25,19.0778,19.3906,142.509,112.993,113.45,0.000482493,0.0485162,21.018,502.345,-0.0358568,0.0,0.0
2569,642,19.2106,19.6586,147.847,112.984,113.519,0.000508048,0.0483366,21.0181,502.335,-0.0420219,0.0,0.0
2576,643.75,19.1651,19.7908,140.182,112.971,113.588,0.000484821,0.0484513,21.0181,502.335,-0.0484695,0.0,0.0
2583,645.5,18.8557,19.8095,143.838,112.983,113.797,0.000389425,0.0486444,21.0182,502.325,-0.0638469,0.0,0.0
2590,647.25,19.0154,19.8081,143.952,112.986,113.688,0.000303249,0.0484601,21.0174,502.325,-0.055015,0.0,0.0
2597,649,19.1744,20.0262,146.593,112.961,113.85,0.000277087,0.0483589,21.0166,502.335,-0.0697253,0.0,0.0
2604,650.75,19.7642,19.7854,146.717,112.957,113.419,0.000266234,0.0483823,21.0169,502.335,-0.0363177,0.0,0.0
2611,652.5,19.7663,19.9788,148.031,112.962,113.278,0.000205021,0.0483813,21.0169,502.335,-0.0248092,0.0,0.0
2618,654.25,20.0479,19.8991,143.495,112.952,113.541,0.000171826,0.048518,21.0171,502.345,-0.0462366,0.0,0.0
2625,656,18.9978,20.4796,145.026,112.965,113.702,0.000221845,0.0485895,21.0165,502.345,-0.0578812,0.0,0.0
2632,657.75,19.2407,20.2654,148.424,112.957,113.718,0.000333168,0.0485041,21.0162,502.325,-0.0596842,0.0,0.0
2639,659.5,19.216,20.3395,144.702,112.933,113.697,0.00042226,0.0484765,21.016,502.325,-0.0600188,0.0,0.0
2646,661.25,19.485,19.7021,143.534,112.941,113.454,0.000456424,0.048428,21.0166,502.335,-0.0403556,0.0,0.0
2653,663,19.4005,20.3585,147.137,112.927,113.582,0.000488481,0.0483263,21.0173,502.335,-0.0514194,0.0,0.0
2660,664.75,19.5387,20.0306,140.792,112.936,113.433,0.000550005,0.0482832,21.0176,502.325,-0.0390757,0.0,0.0
2667,666.5,18.6295,19.6987,142.038,112.915,113.506,0.000553617,0.0483916,21.0177,502.325,-0.0464173,0.0,0.0
2674,668.25,19.5951,20.1021,146.75,112.909,113.435,0.000518115,0.0483483,21.0178,502.335,-0.0413413,0.0,0.0
2681,670,19.097,20.1264,143.912,112.917,113.397,0.000488284,0.0484736,21.0178,502.325,-0.0377857,0.0,0.0
2688,671.75,19.352,20.0748,143.3,112.913,113.291,0.000465311,0.0485878,21.0178,502.335,-0.0297742,0.0,0.0
2695,673.5,19.4761,20.0455,145.333,112.908,113.353,0.00052331,0.0485294,21.0178,502.335,-0.0350325,0.0,0.0
2702,675.25,19.799,19.8734,149.59,112.908,113.421,0.000656223,0.048554,21.0178,502.335,-0.0402619,0.0,0.0
2709,677,19.6144,20.2899,144.669,112.909,113.519,0.000741577,0.0485886,21.0172,502.335,-0.0479525,0.0,0.0
2716,678.75,19.1464,20.273,144.962,112.902,113.637,0.000812004,0.0487017,21.0163,502.325,-0.0577195,0.0,0.0
2723,680.5,19.698,20.0108,143.607,112.905,113.552,0.000795988,0.0488462,21.0159,502.325,-0.0508212,0.0,0.0
2730,682.25,19.1504,19.9872,142.781,112.869,113.492,0.00068954,0.0489403,21.0157,502.335,-0.0489459,0.0,0.0
2737,684,19.4541,19.8261,146.252,112.888,113.194,0.000601761,0.0489874,21.0155,502.325,-0.0240763,0.0,0.0
2744,685.75,19.1799,20.3337,146.037,112.88,113.654,0.000497805,0.0489166,21.0148,502.325,-0.0607424,0.0,0.0
2751,687.5,19.7066,19.6535,143.482,112.871,113.426,0.000389762,0.0488823,21.0145,502.335,-0.043665,0.0,0.0
2758,689.25,19.7543,20.0747,147.465,112.857,113.541,0.000354285,0.0489211,21.0153,502.325,-0.0537329,0.0,0.0
2765,691,19.6331,20.1235,146.005,112.86,113.577,0.000398106,0.048933,21.0159,502.335,-0.056348,0.0,0.0
2772,692.75,19.7146,20.4007,145.708,112.864,113.384,0.000471546,0.0488023,21.0162,502.335,-0.0408892,0.0,0.0
2779,694.5,19.4573,20.4318,143.492,112.874,113.402,0.000490377,0.0486638,21.0164,502.325,-0.0415373,0.0,0.0
2786,696.25,19.2612,19.5786,144.158,112.854,113.477,0.000490334,0.048666,21.0153,502.335,-0.0489305,0.0,0.0
2793,698,18.7517,20.6056,145.23,112.857,113.566,0.000472632,0.0486259,21.0147,502.325,-0.0557223,0.0,0.0
2800,699.75,19.3178,19.8417,145.261,112.853,113.38,0.000454205,0.0486568,21.0145,502.325,-0.0413924,0.0,0.0
2807,701.5,18.7664,19.7991,144.483,112.837,113.607,0.00042471,0.0486892,21.0143,502.325,-0.0604814,0.0,0.0
2814,703.25,19.0587,20.0744,144.741,112.835,113.399,0.000396428,0.0486875,21.0143,502.325,-0.0443357,0.0,0.0
2821,705,19.5293,19.9863,148.057,112.83,113.272,0.0004183,0.0486276,21.015,502.325,-0.0348356,0.0,0.0
2828,706.75,19.7838,19.6775,144.523,112.848,113.36,0.000476025,0.0486006,21.0158,502.325,-0.040271,0.0,0.0
2835,708.5,19.1205,20.0939,143.35,112.845,113.476,0.000463657,0.0486681,21.0165,502.335,-0.0495296,0.0,0.0
2842,710.25,19.8135,20.3417,144.638,112.844,113.123,,0.0486743,,502.315,-0.0219505,0.0,0.0
2849,712,19.2338,19.8625,142.662,112.838,113.362,,0.0486662,,502.325,-0.0412518,0.0,0.0
2856,713.75,19.1923,20.0715,143.852,112.831,113.683,,,,502.325,-0.0668719,0.0,0.0
2863,715.5,19.5851,20.001,143.206,112.836,113.429,,,,502.315,-0.0466549,0.0,0.0
2870,717.25,19.1965,20.5051,143.764,112.809,113.367,,,,502.325,-0.0438621,0.0,0.0
2877,719,19.3349,20.0713,142.169,112.789,113.203,,,,502.325,-0.0325498,0.0,0.0
2884,720.75,19.5763,20.4339,142.392,112.758,113.204,,,,502.335,-0.0351368,0.0,0.0
2885,721,19.6823,20.4413,142.927,112.747,113.226,,,,502.335,-0.0376713,0.0,0.0