File: 01_Data/Fiberglass_Insulation_R30/Cone/R30_Fiberglass_Insulation_Cone_HF50Scan_220503_R2.csv
Names,Time,Stack TC,Smoke TC,Exh Press,Smoke Comp,Smoke Meas,CO Meter,CO2 Meter,O2 Meter,Sample Mass,Ext Coeff,Start Test,Flame Verif
Chan Gain,,500,500,1,1,1,1,1,1,1,1,1.0,1.0
Offset,,0,0,0.135741,0,0,0,0,0,0,0,0.0,0.0
Gain,,1,1,25.011,14.8585,16.6522,1,1,1,1.00087,1.0138,1.0,1.0
Units,sec,C,C,Pa,%,%,%,%,%,g,/m,,
Baseline,,33.9619,35.0184,139.653,112.844,114.422,0.000672378,0.0496805,21.0105,-1.09278,-0.123501,,
7,1.5,31.6331,32.4855,138.295,113.031,113.718,0.000970294,0.0572785,21.0004,493.698,-0.0538279,0.0,0.0
14,3.25,31.3569,32.698,139.77,113.034,114.802,0.00106913,0.056978,21.0002,493.618,-0.138055,0.0,0.0
21,5,31.4493,32.5108,139.422,113.044,114.608,0.00127822,0.0567915,21.0001,493.588,-0.122224,0.0,0.0
28,6.75,31.8822,32.4219,140.169,113.037,114.395,0.00149306,0.0568725,21,493.538,-0.106143,0.0,0.0
35,8.5,31.5639,33.091,136.241,113.04,115.119,0.00173021,0.0567696,20.9996,493.478,-0.162047,0.0,0.0
42,10.25,32.1154,32.6669,135.588,113.038,114.93,0.00191935,0.0565793,21,493.468,-0.14761,0.0,0.0
49,12,32.5681,32.9062,138.135,113.037,114.872,0.0020521,0.0563664,21.0014,493.428,-0.143197,0.0,0.0
56,13.75,32.3181,33.1264,139.179,113.046,114.735,0.00207961,0.0560766,21.002,493.388,-0.131894,0.0,0.0
63,15.5,32.2986,33.4583,141.993,113.043,115.355,0.00201644,0.0557258,21.0023,493.378,-0.180034,0.0,0.0
70,17.25,32.4812,33.4801,139.61,113.054,114.608,0.00198365,0.0554391,21.0025,493.378,-0.121403,0.0,0.0
77,19,32.2024,33.6145,140.058,113.041,114.981,0.00199886,0.0552762,21.0029,493.348,-0.151295,0.0,0.0
84,20.75,32.9122,33.7591,136.954,113.051,115.195,0.00199404,0.0551994,21.0032,493.328,-0.167081,0.0,0.0
91,22.5,32.44,34.0889,139.757,113.045,114.922,0.0019702,0.0550408,21.0033,493.338,-0.146449,0.0,0.0
98,24.25,33.0153,33.9192,136.32,113.04,115.104,0.00196656,0.0548909,21.0034,493.318,-0.160913,0.0,0.0
105,26,32.7262,34.0746,140.504,113.037,114.855,0.00192982,0.0548033,21.0034,493.308,-0.141938,0.0,0.0
112,27.75,33.1841,34.2094,136.671,113.044,114.87,0.00184005,0.0547356,21.0035,493.278,-0.142469,0.0,0.0
119,29.5,33.6364,33.9877,136.757,113.034,115.903,0.00170315,0.0545883,21.0047,493.318,-0.22288,0.0,0.0
126,31.25,33.6825,34.2933,133.444,113.022,115.559,0.00161451,0.0544689,21.0052,493.308,-0.197371,0.0,0.0
133,33,33.4928,34.3228,137.429,113.028,114.957,0.00158679,0.0543597,21.0047,493.318,-0.150518,0.0,0.0
140,34.75,33.466,33.8953,136.467,113.048,115.154,0.00158043,0.0541823,21.0033,493.298,-0.164189,0.0,0.0
147,36.5,33.5192,34.3176,138.804,113.04,115.58,0.00156525,0.0540066,21.0038,493.308,-0.197547,0.0,0.0
154,38.25,33.7787,34.541,139.267,113.031,115.277,0.00159062,0.053851,21.004,493.298,-0.174961,0.0,0.0
161,40,33.8016,34.2458,138.57,113.018,114.925,0.00172702,0.0537607,21.0042,493.288,-0.148825,0.0,0.0
168,41.75,33.9944,34.6275,140.44,113.026,115.002,0.00189041,0.0536948,21.0042,493.288,-0.154159,0.0,0.0
175,43.5,34.0574,34.9349,136.387,113.024,115.231,0.00197713,0.053615,21.0049,493.288,-0.172043,0.0,0.0
182,45.25,33.7269,34.8282,140.201,113.038,114.978,0.00192848,0.0534969,21.0058,493.288,-0.151384,0.0,0.0
189,47,33.9964,35.1274,139.444,113.013,115.495,0.00179417,0.0533091,21.0062,493.278,-0.19323,0.0,0.0
196,48.75,33.7634,35.115,141.516,113.017,115.118,0.00163019,0.0531569,21.0064,493.268,-0.163788,0.0,0.0
203,50.5,33.9907,34.9027,138.065,113.015,114.993,0.00152538,0.0532067,21.0068,493.268,-0.154343,0.0,0.0
210,52.25,33.7975,35.3035,137.805,113.008,114.884,0.00150049,0.0531384,21.0071,493.268,-0.146464,0.0,0.0
217,54,33.9618,35.0089,138.035,113.006,114.803,0.00147289,0.0530227,21.0073,493.298,-0.140311,0.0,0.0
224,55.75,34.2397,35.4859,138.45,112.998,114.325,0.00142236,0.0529328,21.0082,493.308,-0.103797,0.0,0.0
231,57.5,34.092,35.1495,137.78,112.99,115.409,0.00130545,0.0528729,21.0079,493.288,-0.188435,0.0,0.0
238,59.25,34.4831,35.4383,138.94,113,115.013,0.00119681,0.0528532,21.0072,493.308,-0.157017,0.0,0.0
245,61,33.9659,35.2889,134.656,113.006,114.656,0.00116339,0.0528907,21.0067,493.288,-0.128888,0.0,0.0
252,62.75,34.2575,35.7,138.628,112.97,114.828,0.00121475,0.0530529,21.0062,493.258,-0.145059,0.0,0.0
259,64.5,34.2018,35.463,138.979,112.971,115.384,0.00132136,0.0530031,21.0059,493.258,-0.18794,0.0,0.0
266,66.25,34.791,35.1944,141.346,112.987,114.506,0.00140653,0.0529878,21.0058,493.258,-0.118754,0.0,0.0
273,68,34.8202,35.4694,139.725,112.973,114.325,0.00142933,0.0529161,21.0058,493.278,-0.10576,0.0,0.0
280,69.75,34.0632,35.5435,139.031,112.954,115.036,0.00139202,0.0527156,21.0057,493.258,-0.162465,0.0,0.0
287,71.5,33.9824,35.6771,138.273,112.942,114.995,0.00134116,0.0526289,21.0057,493.258,-0.160175,0.0,0.0
294,73.25,34.8691,35.4223,133.987,112.946,115.225,0.00123747,0.0524862,21.0057,493.258,-0.177636,0.0,0.0
301,75,34.4873,35.5248,140.837,112.938,114.998,0.00112946,0.0524189,21.0057,493.248,-0.160765,0.0,0.0
308,76.75,34.6236,35.4034,140.095,112.941,114.809,0.00109797,0.0523123,21.0065,493.258,-0.145884,0.0,0.0
315,78.5,34.1844,35.2299,137.779,112.913,115.525,0.00112566,0.0523556,21.0072,493.227,-0.203389,0.0,0.0
322,80.25,34.9298,35.8171,141.897,112.903,114.387,0.00120972,0.052334,21.0087,493.238,-0.116115,0.0,0.0
329,82,34.9319,35.7909,136.826,112.91,114.683,0.00128726,0.0522963,21.0095,493.258,-0.138509,0.0,0.0
336,83.75,34.7308,35.5764,139.708,112.893,114.721,0.00138425,0.0522921,21.0098,493.248,-0.142856,0.0,0.0
343,85.5,34.783,35.9837,137.177,112.881,114.878,0.00142886,0.0522634,21.01,493.248,-0.155914,0.0,0.0
350,87.25,34.7706,36.0073,140.681,112.871,114.851,0.00130114,0.0522257,21.0101,493.248,-0.15469,0.0,0.0
357,89,34.8175,36.3267,138.315,112.869,115.376,0.00115678,0.0522317,21.0102,493.258,-0.195352,0.0,0.0
364,90.75,34.7724,36.2982,135.604,112.863,115.36,0.00106218,0.0522331,21.0092,493.248,-0.194595,0.0,0.0
371,92.5,34.6747,35.6972,143.495,112.862,114.474,0.00103361,0.0521773,21.0084,493.227,-0.12616,0.0,0.0
378,94.25,34.7135,35.8903,140.423,112.855,115.025,0.00106625,0.0521708,21.0085,493.207,-0.169387,0.0,0.0
385,96,34.2233,35.8443,136.754,112.85,114.819,0.00105948,0.0519625,21.0089,493.227,-0.15385,0.0,0.0
392,97.75,34.8549,36.4285,142.195,112.853,115.334,0.00099169,0.0517274,21.0091,493.238,-0.193422,0.0,0.0
399,99.5,34.4441,36.5351,138.628,112.839,114.695,0.000901263,0.0517649,21.0092,493.248,-0.145103,0.0,0.0
406,101.25,34.9993,36.2433,140.053,112.832,114.414,0.000849573,0.0517612,21.0093,493.227,-0.123783,0.0,0.0
413,103,35.0605,36.1501,136.938,112.813,115.353,0.000785659,0.0516288,21.0098,493.227,-0.198055,0.0,0.0
420,104.75,34.7223,36.2483,138.796,112.815,115.253,0.000759773,0.0515043,21.0105,493.238,-0.190117,0.0,0.0
427,106.5,35.2691,36.0949,138.08,112.812,114.996,0.000811824,0.0513926,21.0108,493.238,-0.170468,0.0,0.0
434,108.25,35.1004,35.7809,137.038,112.81,114.802,0.000904971,0.0512675,21.0109,493.227,-0.155661,0.0,0.0
441,110,35.3004,36.264,135.795,112.797,114.901,0.000957001,0.051161,21.011,493.207,-0.164331,0.0,0.0
448,111.75,35.3427,36.5069,134.85,112.791,114.733,0.000931354,0.0510272,21.011,493.227,-0.151882,0.0,0.0
455,113.5,35.3674,36.2665,137.593,112.793,114.761,0.000903341,0.0508793,21.011,493.227,-0.153833,0.0,0.0
462,115.25,35.0178,36.3277,142.401,112.78,114.939,0.000928032,0.0507581,21.011,493.217,-0.168639,0.0,0.0
469,117,34.9815,36.1596,136.738,112.762,114.799,0.000987486,0.0506805,21.011,493.238,-0.159212,0.0,0.0
476,118.75,35.1828,36.2737,138.762,112.764,114.588,0.00102668,0.050577,21.011,493.227,-0.142644,0.0,0.0
483,120.5,35.2584,36.5006,138.998,112.768,114.867,0.00103781,0.0504378,21.011,493.248,-0.163988,0.0,0.0
490,122.25,35.4278,35.9628,137.64,112.776,114.376,0.00106506,0.0503192,21.011,493.217,-0.125253,0.0,0.0
497,124,34.5639,36.3267,139.335,112.759,114.608,0.00108275,0.0501527,21.0117,493.217,-0.14469,0.0,0.0
504,125.75,35.0644,36.3907,136.277,112.767,114.678,0.00103012,0.0499959,21.0122,493.207,-0.149446,0.0,0.0
511,127.5,35.1219,36.4585,136.393,112.751,115.129,0.000958757,0.0499209,21.0123,493.207,-0.185621,0.0,0.0
518,129.25,35.3041,36.0729,137.995,112.761,114.978,0.000849768,0.0499082,21.0124,493.227,-0.173172,0.0,0.0
525,131,35.013,36.537,137.955,112.76,114.725,0.000785373,0.0498661,21.0125,493.248,-0.153683,0.0,0.0
532,132.75,34.8723,36.5388,141.326,112.757,114.624,0.000784381,0.0499942,21.0125,493.227,-0.146051,0.0,0.0
539,134.5,34.8669,36.5305,138.058,112.743,114.765,0.000861564,0.0500564,21.0125,493.238,-0.158114,0.0,0.0
546,136.25,35.2438,36.2195,141.326,112.752,114.185,0.000927217,0.0500056,21.0125,493.217,-0.112279,0.0,0.0
553,138,35.1785,36.4028,138.539,112.743,114.841,0.000843725,0.0500816,21.0125,493.227,-0.163983,0.0,0.0
560,139.75,35.5783,36.8606,136.271,112.724,114.704,0.000725817,0.050072,21.0125,493.207,-0.154854,0.0,0.0
567,141.5,35.0689,36.4311,141.201,112.729,114.888,0.000646443,0.0499346,21.0125,493.207,-0.168751,0.0,0.0
574,143.25,35.311,36.6969,135.856,112.727,114.992,0.000625488,0.0499588,21.0125,493.227,-0.176951,0.0,0.0
581,145,35.1966,36.6351,137.077,112.727,115.037,0.000675781,0.0498082,21.0125,493.207,-0.180448,0.0,0.0
588,146.75,35.6309,36.3636,134.153,112.719,114.778,0.000795623,0.0497785,21.0125,493.207,-0.160998,0.0,0.0
595,148.5,35.3468,36.3058,136.625,112.708,115.252,0.00085516,0.04978,21.0114,493.207,-0.198553,0.0,0.0
602,150.25,34.9877,36.4608,140.345,112.702,115.13,0.00082885,0.0497285,21.0116,493.197,-0.189602,0.0,0.0
609,152,35.5713,36.8176,138.199,112.686,114.599,0.000789214,0.0497391,21.0109,493.207,-0.1497,0.0,0.0
616,153.75,35.5077,36.8035,138.915,112.674,113.854,0.000731476,0.0497981,21.0105,493.217,-0.0927047,0.0,0.0
623,155.5,35.0138,36.4914,133.478,112.656,114.989,0.000572475,0.0498696,21.0103,493.197,-0.182222,0.0,0.0
630,157.25,35.2853,36.3598,140.694,112.636,114.552,0.000415117,0.0498365,21.0103,493.187,-0.150008,0.0,0.0
637,159,35.2992,36.6956,140.256,112.641,115.542,0.000332508,0.0496339,21.0102,493.187,-0.226172,0.0,0.0
644,160.75,34.8663,36.6706,139.534,112.627,114.762,0.000325364,0.0495961,21.0102,493.207,-0.166968,0.0,0.0
651,162.5,35.1472,36.2966,136.984,112.603,115.422,0.00046218,0.0496371,21.0102,493.207,-0.219909,0.0,0.0
658,164.25,35.2777,36.9886,136.81,112.599,114.769,0.000647191,0.0496105,21.0102,493.207,-0.1697,0.0,0.0
665,166,35.6056,36.3563,136.123,112.582,115.23,0.00077871,0.0496171,21.0102,493.207,-0.206783,0.0,0.0
672,167.75,35.6561,36.6464,135.8,112.588,115.014,0.00082866,0.0496578,21.0101,493.187,-0.189594,0.0,0.0
679,169.5,35.128,36.6534,134.608,112.588,115.008,0.000855532,0.0495124,21.0097,493.187,-0.189122,0.0,0.0
686,171.25,35.544,36.7081,135.561,112.574,114.963,0.000851897,0.0495322,21.0099,493.197,-0.186738,0.0,0.0
693,173,35.4939,36.6385,137.16,112.564,115.518,0.000770523,0.0496178,21.011,493.197,-0.230347,0.0,0.0
700,174.75,35.3819,36.3664,139.737,112.559,115.092,0.000655734,0.0494452,21.0121,493.197,-0.197896,0.0,0.0
707,176.5,35.5252,36.833,139.907,112.559,114.379,0.000584699,0.0494749,21.0115,493.197,-0.142673,0.0,0.0
714,178.25,35.502,36.8294,137.915,112.552,114.556,0.00052834,0.0494631,21.0114,493.187,-0.156946,0.0,0.0
721,180,35.6498,36.3106,137.344,112.545,114.336,0.000502566,0.0494521,21.0116,493.187,-0.140389,0.0,0.0
728,181.75,35.1745,36.586,134.233,112.548,114.111,0.000513333,0.0493955,21.0117,493.187,-0.122686,0.0,0.0
735,183.5,35.2517,36.9103,139.88,112.55,114.565,0.000520485,0.0492773,21.0117,493.197,-0.157839,0.0,0.0
742,185.25,35.1964,36.7696,138.483,112.552,114.713,0.000510843,0.0491995,21.0117,493.177,-0.169128,0.0,0.0
749,187,35.1874,36.6199,137.924,112.553,114.463,0.000525747,0.0492136,21.0127,493.187,-0.149656,0.0,0.0
756,188.75,35.4396,36.785,137.233,112.56,114.686,0.000564227,0.0490658,21.0134,493.177,-0.166359,0.0,0.0
763,190.5,35.1005,36.5137,135.904,112.558,114.46,0.000580269,0.0489876,21.0137,493.177,-0.149061,0.0,0.0
770,192.25,35.0229,36.9243,141.011,112.57,114.816,0.000538799,0.0489864,21.0139,493.167,-0.175728,0.0,0.0
777,194,35.1046,36.8921,136.832,112.567,114.857,0.000550261,0.0489786,21.0149,493.177,-0.179131,0.0,0.0
784,195.75,35.1479,36.5821,138.988,112.566,115.122,0.000671188,0.0489856,21.0147,493.157,-0.199714,0.0,0.0
791,197.5,35.4286,36.7425,137.341,112.575,114.37,0.000758356,0.0490202,21.0146,493.157,-0.140672,0.0,0.0
798,199.25,35.035,36.625,136.298,112.567,114.139,0.000750297,0.0490234,21.0145,493.167,-0.123395,0.0,0.0
805,201,35.5002,36.621,136.183,112.567,114.272,0.000711409,0.0490164,21.0145,493.157,-0.133683,0.0,0.0
812,202.75,35.6591,36.7961,139.405,112.558,115.022,0.000692813,0.0490755,21.0145,493.147,-0.192551,0.0,0.0
819,204.5,35.4325,37.1028,132.492,112.572,114.576,0.000615042,0.0491111,21.0145,493.167,-0.156987,0.0,0.0
826,206.25,35.4845,36.5484,138.083,112.564,114.495,0.000552012,0.0491781,21.0145,493.157,-0.151283,0.0,0.0
833,208,35.1941,36.9277,136.04,112.556,114.562,0.000576701,0.049242,21.0145,493.157,-0.157101,0.0,0.0
840,209.75,35.5424,36.6392,134.448,112.549,114.29,0.000598339,0.0492468,21.0145,493.167,-0.136504,0.0,0.0
847,211.5,35.4574,36.8897,140.797,112.558,114.66,0.000568422,0.0491104,21.0145,493.147,-0.164532,0.0,0.0
854,213.25,35.5731,36.8,138.092,112.561,114.649,0.000545129,0.0490948,21.0145,493.127,-0.16345,0.0,0.0
861,215,35.3481,37.1938,139.347,112.559,114.592,0.000569473,0.0490115,21.0145,493.137,-0.159174,0.0,0.0
868,216.75,35.5318,37.0912,137.698,112.538,114.625,0.000542045,0.0489819,21.015,493.157,-0.163385,0.0,0.0
875,218.5,35.7116,37.0178,138.436,112.539,114.681,0.000452337,0.0490301,21.0156,493.167,-0.167613,0.0,0.0
882,220.25,35.4328,36.585,137.421,112.541,114.848,0.000336291,0.0488727,21.0159,493.147,-0.180461,0.0,0.0
889,222,35.9535,37.0709,140.566,112.557,114.888,0.000199962,0.0487799,21.016,493.167,-0.182316,0.0,0.0
896,223.75,35.4888,36.9435,137.445,112.536,114.559,0.000155178,0.0487149,21.0161,493.157,-0.158477,0.0,0.0
903,225.5,35.2346,36.7749,141.704,112.517,114.599,0.000270798,0.0485742,21.0161,493.147,-0.163022,0.0,0.0
910,227.25,35.5804,37.0575,140.398,112.524,114.646,0.000403751,0.0485841,21.0161,493.137,-0.166147,0.0,0.0
917,229,35.6018,37.0069,132.157,112.541,114.621,0.000512845,0.0485312,21.0161,493.147,-0.162854,0.0,0.0
924,230.75,35.3781,37.1428,136.683,112.546,114.745,0.000555753,0.0485547,21.0161,493.157,-0.172115,0.0,0.0
931,232.5,35.0263,36.8379,135.397,112.539,115.013,0.000557867,0.0485662,21.0161,493.147,-0.193348,0.0,0.0
938,234.25,35.7173,36.5788,134.771,112.537,114.667,0.000511775,0.0486942,21.0161,493.147,-0.166764,0.0,0.0
945,236,35.4752,36.7233,136.038,112.555,114.801,0.000476838,0.0486367,21.0153,493.137,-0.175694,0.0,0.0
952,237.75,35.2388,36.9303,141.424,112.563,114.774,0.000436343,0.0485823,21.0145,493.137,-0.172923,0.0,0.0
959,239.5,35.2917,36.8035,137.654,112.563,115.229,0.000390765,0.0486042,21.0142,493.147,-0.208173,0.0,0.0
966,241.25,35.5829,36.9836,138.896,112.562,114.513,0.000423911,0.0486147,21.0143,493.147,-0.152808,0.0,0.0
973,243,35.4488,36.4049,134.569,112.572,114.852,0.00057642,0.0485155,21.0144,493.137,-0.178304,0.0,0.0
980,244.75,35.6874,36.8753,137.297,112.57,115.266,0.000784682,0.0483462,21.0144,493.127,-0.210456,0.0,0.0
987,246.5,34.9693,36.7678,144.081,112.567,115.226,0.000907344,0.0483406,21.0145,493.127,-0.207651,0.0,0.0
994,248.25,35.5351,37.0197,139.727,112.562,114.709,0.000822006,0.0483379,21.0145,493.127,-0.167989,0.0,0.0
1001,250,35.8281,36.8363,138.228,112.567,114.61,0.000678783,0.0484511,21.0154,493.147,-0.159984,0.0,0.0
1008,251.75,35.6832,36.8023,137.405,112.58,114.266,0.000642839,0.048514,21.0161,493.127,-0.132174,0.0,0.0
1015,253.5,35.2455,36.8713,137.296,112.584,114.149,0.000703393,0.0485258,21.0165,493.137,-0.122747,0.0,0.0
1022,255.25,35.6937,36.5447,139.381,112.567,114.669,0.00069674,0.0485163,21.0155,493.147,-0.164557,0.0,0.0
1029,257,35.2906,37.0255,134.965,112.576,115.209,0.000585822,0.0485478,21.015,493.167,-0.205602,0.0,0.0
1036,258.75,35.2394,36.8696,138.97,112.548,114.63,0.000484141,0.0485138,21.0153,493.157,-0.163066,0.0,0.0
1043,260.5,35.2449,36.7373,137.35,112.523,114.259,0.000472826,0.0485554,21.0161,493.137,-0.136135,0.0,0.0
1050,262.25,35.4641,36.8006,140.871,112.502,114.308,0.00051589,0.0486276,21.0154,493.137,-0.141655,0.0,0.0
1057,264,35.2275,37.2768,140.666,112.484,115.01,0.0005811,0.0485582,21.0146,493.127,-0.197521,0.0,0.0
1064,265.75,35.3655,37.0749,139.969,112.473,114.603,0.000681447,0.0485511,21.0142,493.137,-0.166815,0.0,0.0
1071,267.5,35.4299,36.6092,135.314,112.481,114.512,0.000768351,0.0485516,21.014,493.137,-0.159144,0.0,0.0
1078,269.25,35.2219,37.0198,138.87,112.484,114.342,0.000762806,0.0486123,21.0139,493.137,-0.145662,0.0,0.0
1085,271,35.9059,36.61,135.633,112.471,114.654,0.000700042,0.0486185,21.0139,493.127,-0.170937,0.0,0.0
1092,272.75,35.8625,36.968,143.119,112.481,115.026,0.00061152,0.0485462,21.0145,493.137,-0.198958,0.0,0.0
1099,274.5,35.1139,36.8551,139.884,112.494,114.484,0.000611773,0.0485792,21.0144,493.137,-0.155934,0.0,0.0
1106,276.25,35.8092,36.988,137.443,112.482,114.029,0.000682456,0.0485636,21.0141,493.147,-0.121465,0.0,0.0
1113,278,35.4699,37.2166,139.514,112.48,115.231,0.000703777,0.0485567,21.0139,493.137,-0.214888,0.0,0.0
1120,279.75,35.4997,36.5996,138.924,112.48,114.52,0.000708678,0.04854,21.0139,493.127,-0.159843,0.0,0.0
1127,281.5,35.5427,36.647,135.658,112.494,114.823,0.000722081,0.0485463,21.0138,493.137,-0.182228,0.0,0.0
1134,283.25,35.4528,37.2621,136.539,112.486,114.547,0.000650277,0.0485245,21.0138,493.117,-0.161472,0.0,0.0
1141,285,36.0815,37.1134,136.781,112.502,114.575,0.000538498,0.0484498,21.0138,493.137,-0.162387,0.0,0.0
1148,286.75,35.818,36.9459,135.326,112.49,114.447,0.000429039,0.0484789,21.0138,493.107,-0.153338,0.0,0.0
1155,288.5,35.29,36.6985,137.706,112.504,114.834,0.000386382,0.0484349,21.0138,493.127,-0.182301,0.0,0.0
1162,290.25,36.034,36.9537,138.305,112.509,114.412,0.000415379,0.0483845,21.0138,493.137,-0.149147,0.0,0.0
1169,292,35.3109,36.5966,137.415,112.515,114.488,0.000468991,0.0482887,21.0138,493.137,-0.154601,0.0,0.0
1176,293.75,35.6708,36.8662,137.562,112.515,114.476,0.000588599,0.0483122,21.0138,493.127,-0.153653,0.0,0.0
1183,295.5,35.6172,36.8037,139.709,112.501,114.345,0.000710215,0.0483229,21.0138,493.117,-0.144612,0.0,0.0
1190,297.25,35.8879,37.1684,138.171,112.504,114.473,0.000757107,0.04841,21.0138,493.117,-0.154241,0.0,0.0
1197,299,35.5595,37.2208,139.65,112.547,115.239,0.000749859,0.048445,21.0138,493.127,-0.210204,0.0,0.0
1204,300.75,35.1705,37.0958,139.068,112.518,115.323,0.000668977,0.0484059,21.0138,493.117,-0.21897,0.0,0.0
1211,302.5,35.7518,37.1343,137.595,112.524,114.814,0.000572828,0.04831,21.0138,493.127,-0.179115,0.0,0.0
1218,304.25,35.5189,37.1682,138.768,112.523,114.652,0.00052566,0.0483472,21.0138,493.097,-0.166696,0.0,0.0
1225,306,35.8394,37.2787,138.064,112.549,114.932,0.000570983,0.0483706,21.0138,493.107,-0.186311,0.0,0.0
1232,307.75,35.1135,37.1961,140.827,112.557,114.646,0.000705473,0.0481806,21.0138,493.127,-0.163572,0.0,0.0
1239,309.5,35.6484,37.1612,143.921,112.567,114.654,0.000905878,0.0481241,21.0145,493.117,-0.163339,0.0,0.0
1246,311.25,35.4626,37.2932,138.962,112.565,114.63,0.00103355,0.048099,21.0148,493.117,-0.161668,0.0,0.0
1253,313,35.6983,36.8788,137.372,112.592,114.719,0.00110809,0.0481838,21.015,493.127,-0.166448,0.0,0.0
1260,314.75,35.7828,37.1339,136.206,112.611,114.483,0.00118106,0.0483383,21.015,493.127,-0.146686,0.0,0.0
1267,316.5,35.8308,37.4782,137.532,112.614,114.317,0.00116213,0.0483873,21.0151,493.107,-0.133482,0.0,0.0
1274,318.25,35.548,36.8858,137.163,112.619,114.983,0.000973153,0.0484972,21.0151,493.107,-0.184726,0.0,0.0
1281,320,35.7232,37.3213,139.01,112.629,115.511,0.000767411,0.048489,21.0151,493.117,-0.224717,0.0,0.0
1288,321.75,35.4457,36.9963,136.15,112.656,115.129,0.000633521,0.0484714,21.0151,493.117,-0.193102,0.0,0.0
1295,323.5,35.6867,37.032,141.136,112.671,115.1,0.000518906,0.0485024,21.0151,493.127,-0.18968,0.0,0.0
1302,325.25,35.3316,36.7477,137.161,112.676,115.178,0.000417853,0.0484658,21.0151,493.117,-0.195331,0.0,0.0
1309,327,35.3292,37.0701,139.835,112.679,114.649,0.000361129,0.0483065,21.0151,493.107,-0.154105,0.0,0.0
1316,328.75,35.6349,36.8604,138.744,112.701,114.544,0.00040036,0.0482597,21.0151,493.107,-0.144224,0.0,0.0
1323,330.5,35.501,36.5454,138.002,112.715,114.463,0.000528766,0.048322,21.0151,493.107,-0.136839,0.0,0.0
1330,332.25,35.5227,37.1586,132.906,112.717,114.826,0.000660285,0.0483042,21.0148,493.097,-0.164916,0.0,0.0
1337,334,35.899,37.0508,137.725,112.721,114.379,0.000648195,0.0483564,21.0146,493.117,-0.129853,0.0,0.0
1344,335.75,35.8126,36.9316,138.128,112.727,114.629,0.000497291,0.048478,21.0145,493.127,-0.148771,0.0,0.0
1351,337.5,35.9856,37.2572,133.647,112.76,115.531,0.000360986,0.0484656,21.0145,493.107,-0.215866,0.0,0.0
1358,339.25,35.468,37.2327,137.925,112.775,115.062,0.000319075,0.0484549,21.0145,493.117,-0.178507,0.0,0.0
1365,341,35.5766,36.7034,141.298,112.772,115.477,0.000360926,0.0483792,21.0145,493.107,-0.210828,0.0,0.0
1372,342.75,35.434,37.2378,139.18,112.798,115.563,0.00037047,0.048394,21.0145,493.097,-0.215366,0.0,0.0
1379,344.5,35.7665,36.5726,137.946,112.811,115.002,0.000325901,0.048549,21.0145,493.097,-0.171011,0.0,0.0
1386,346.25,35.7439,36.6474,140.509,112.837,115.22,0.00033361,0.0484361,21.0145,493.077,-0.185852,0.0,0.0
1393,348,35.8266,36.7675,135.475,112.849,114.517,0.00041025,0.0484274,21.0145,493.087,-0.130551,0.0,0.0
1400,349.75,35.8465,36.7858,139.669,112.863,114.585,0.000570575,0.0484419,21.0145,493.107,-0.13469,0.0,0.0
1407,351.5,35.5609,36.9976,137.819,112.899,115.522,0.000663039,0.0484617,21.0145,493.087,-0.204261,0.0,0.0
1414,353.25,36.0635,36.5399,137.479,112.905,114.789,0.000626612,0.0484516,21.0145,493.107,-0.147209,0.0,0.0
1421,355,35.651,36.9844,138.615,112.953,115.447,0.000476512,0.0484159,21.0142,493.107,-0.194188,0.0,0.0
1428,356.75,36.0082,36.8141,138.103,112.949,115.121,0.000275627,0.0485555,21.014,493.107,-0.169417,0.0,0.0
1435,358.5,35.4189,37.2242,134.899,112.968,114.823,0.000144962,0.0486179,21.0139,493.097,-0.144844,0.0,0.0
1442,360.25,35.8657,36.9877,137.477,112.979,114.964,9.1875e-05,0.0486787,21.0139,493.097,-0.154882,0.0,0.0
1449,362,36.0445,36.9178,136.513,113.001,114.77,0.000151714,0.0486712,21.0138,493.087,-0.138069,0.0,0.0
1456,363.75,35.7664,36.4751,137.806,113.001,114.924,0.000314873,0.0486884,21.0138,493.087,-0.150027,0.0,0.0
1463,365.5,35.8293,37.1863,141.858,113.012,115.105,0.000485836,0.0487382,21.0138,493.087,-0.163199,0.0,0.0
1470,367.25,35.4706,37.2832,140.13,113.041,114.543,0.000552893,0.0486983,21.0138,493.117,-0.117349,0.0,0.0
1477,369,36.0739,37.3393,138.818,113.055,115.058,0.000541049,0.0487102,21.0138,493.087,-0.156161,0.0,0.0
1484,370.75,35.668,37.4324,140.949,113.068,115.294,0.000503008,0.0486572,21.0138,493.087,-0.173369,0.0,0.0
1491,372.5,35.8894,37.0353,137.092,113.074,115.225,0.000478918,0.0486667,21.0138,493.087,-0.167612,0.0,0.0
1498,374.25,35.7796,37.3777,136.51,113.102,114.99,0.000549941,0.0486694,21.0138,493.097,-0.147224,0.0,0.0
1505,376,35.6684,37.111,135.429,113.116,114.962,0.00067541,0.0486835,21.0138,493.087,-0.143917,0.0,0.0
1512,377.75,36.0794,36.6846,134.601,113.125,115.638,0.000768773,0.0486564,21.0148,493.097,-0.195335,0.0,0.0
1519,379.5,35.6877,36.9506,137.708,113.129,114.948,0.000718367,0.0486397,21.0162,493.087,-0.141897,0.0,0.0
1526,381.25,36.2632,36.9881,138.586,113.162,115.091,0.000595623,0.0485571,21.0168,493.087,-0.150336,0.0,0.0
1533,383,36.0879,37.4057,140.275,113.181,114.693,0.000479314,0.0486145,21.0169,493.087,-0.118001,0.0,0.0
1540,384.75,35.9306,37.3204,141.804,113.211,115.362,0.00038033,0.0485981,21.016,493.087,-0.167393,0.0,0.0
1547,386.5,36.058,37.3939,137.878,113.224,114.739,0.000407328,0.0485363,21.0155,493.087,-0.118163,0.0,0.0
1554,388.25,35.7711,37.6207,138.86,113.233,115.719,0.000494472,0.0484262,21.0153,493.097,-0.193181,0.0,0.0
1561,390,35.8312,37.2705,137.303,113.25,115.054,0.000550965,0.0484338,21.0163,493.077,-0.140523,0.0,0.0
1568,391.75,35.7885,37.0873,137.437,113.272,115.135,0.000608734,0.0485923,21.0169,493.077,-0.145132,0.0,0.0
1575,393.5,36.0596,37.4492,134.366,113.271,115.594,0.000707245,0.0486094,21.0172,493.107,-0.180503,0.0,0.0
1582,395.25,35.5354,37.0395,137.296,113.281,115.045,0.000760189,0.0485795,21.0173,493.097,-0.13747,0.0,0.0
1589,397,35.7968,37.2212,138.015,113.311,114.821,0.000721643,0.0486782,21.0174,493.087,-0.117705,0.0,0.0
1596,398.75,35.8164,37.4983,140.592,113.32,115.756,0.000614885,0.0486372,21.0174,493.097,-0.189157,0.0,0.0
1603,400.5,35.4709,36.4315,138.703,113.35,115.361,0.000560673,0.0485433,21.0172,493.087,-0.156383,0.0,0.0
1610,402.25,35.9581,37.1938,136.8,113.361,115.237,0.000641275,0.0485694,21.0161,493.077,-0.145893,0.0,0.0
1617,404,35.7185,36.9664,139.288,113.359,115.801,0.000764465,0.0484771,21.0156,493.067,-0.189536,0.0,0.0
1624,405.75,36.0625,37.3085,132.263,113.376,115.127,0.000799105,0.0485034,21.0153,493.077,-0.136281,0.0,0.0
1631,407.5,35.8262,37.3704,139.363,113.396,115.802,0.000700561,0.0485151,21.0152,493.057,-0.186698,0.0,0.0
1638,409.25,35.7938,37.1973,137.326,113.397,116.259,0.000610735,0.0484823,21.0152,493.087,-0.221642,0.0,0.0
1645,411,35.7831,37.2615,137.839,113.406,115.763,0.000587085,0.0484839,21.0151,493.077,-0.182907,0.0,0.0
1652,412.75,36.1043,37.1991,137.267,113.42,115.021,0.00063373,0.0485283,21.0151,493.077,-0.124588,0.0,0.0
1659,414.5,35.9593,36.9929,140.102,113.428,115.517,0.000706902,0.0483885,21.0151,493.097,-0.162324,0.0,0.0
1666,416.25,35.7106,37.3612,137.857,113.432,115.666,0.000725555,0.0482559,21.014,493.087,-0.173498,0.0,0.0
1673,418,36.0725,37.4158,139.603,113.431,115.866,0.000658744,0.0482589,21.014,493.097,-0.188836,0.0,0.0
1680,419.75,35.3693,37.2672,140.094,113.437,115.33,0.000562275,0.0482722,21.0146,493.077,-0.147165,0.0,0.0
1687,421.5,36.0341,37.418,138.66,113.449,115.568,0.000541642,0.0483052,21.0149,493.077,-0.164603,0.0,0.0
1694,423.25,36.069,36.9543,138.786,113.445,115.044,0.000623071,0.0482597,21.0149,493.097,-0.12444,0.0,0.0
1701,425,35.8888,37.3491,137.619,113.446,115.538,0.000756383,0.0481567,21.0143,493.077,-0.162509,0.0,0.0
1708,426.75,36.1464,37.3969,138.894,113.429,115.482,0.000854926,0.0482471,21.0141,493.077,-0.159479,0.0,0.0
1715,428.5,35.5338,37.0274,137.022,113.456,115.566,0.000864874,0.0482657,21.0133,493.087,-0.16384,0.0,0.0
1722,430.25,36.319,37.246,135.889,113.443,115.128,0.000716109,0.0482557,21.0124,493.077,-0.131133,0.0,0.0
1729,432,35.6075,36.863,136.072,113.441,115.452,0.000572139,0.0483478,21.012,493.067,-0.156284,0.0,0.0
1736,433.75,36.0594,37.494,139.161,113.434,115.906,0.000459773,0.0483501,21.0117,493.097,-0.191779,0.0,0.0
1743,435.5,35.9447,37.3241,138.277,113.442,115.857,0.00044256,0.0482829,21.0116,493.077,-0.187356,0.0,0.0
1750,437.25,35.7427,37.4052,143.119,113.452,115.313,0.000448678,0.0484214,21.0116,493.087,-0.144699,0.0,0.0
1757,439,35.8338,37.5471,135.569,113.428,115.527,0.000434098,0.0484896,21.0122,493.077,-0.163067,0.0,0.0
1764,440.75,35.5857,37.3009,141.157,113.424,115.168,0.000480977,0.0485085,21.0124,493.087,-0.135765,0.0,0.0
1771,442.5,35.4451,36.8506,136.551,113.421,116.029,0.000546022,0.0484348,21.0131,493.077,-0.202205,0.0,0.0
1778,444.25,35.9658,36.9365,137.499,113.425,115.099,0.00053801,0.0483517,21.0135,493.077,-0.130356,0.0,0.0
1785,446,35.8284,37.0942,137.839,113.425,115.01,0.000494655,0.0482702,21.0137,493.067,-0.123446,0.0,0.0
1792,447.75,36.083,37.3499,141.359,113.42,115.244,0.000463399,0.0484292,21.0151,493.077,-0.14182,0.0,0.0
1799,449.5,35.8222,37.2092,136.126,113.404,116.004,0.000398128,0.0484316,21.016,493.087,-0.201609,0.0,0.0
1806,451.25,35.6657,37.508,139.37,113.406,115.672,0.000332645,0.0483677,21.0164,493.067,-0.175955,0.0,0.0
1813,453,36.2993,37.3925,138.686,113.412,115.178,0.000364365,0.0483204,21.0166,493.067,-0.137435,0.0,0.0
1820,454.75,35.683,37.4864,135.698,113.413,114.821,0.000417597,0.0483145,21.0167,493.067,-0.109737,0.0,0.0
1827,456.5,35.4094,37.2791,138.891,113.396,115.724,0.000360424,0.0482682,21.0167,493.067,-0.18076,0.0,0.0
1834,458.25,35.9078,37.2992,137.369,113.388,115.745,0.000274601,0.0483706,21.0168,493.067,-0.182966,0.0,0.0
1841,460,35.8726,37.535,139.704,113.403,115.286,0.000264896,0.0484734,21.0168,493.077,-0.146425,0.0,0.0
1848,461.75,35.3253,37.2655,139.549,113.393,116.113,0.000355759,0.0485641,21.0165,493.077,-0.210799,0.0,0.0
1855,463.5,35.5326,37.4078,136.055,113.38,115.34,0.000554702,0.0486315,21.0162,493.067,-0.152468,0.0,0.0
1862,465.25,35.8222,37.0761,138.094,113.369,115.281,0.000666162,0.0486242,21.016,493.087,-0.1487,0.0,0.0
1869,467,35.9144,37.5481,136.851,113.381,115.085,0.000654568,0.0485781,21.016,493.057,-0.132666,0.0,0.0
1876,468.75,35.9153,37.1645,137.245,113.372,115.655,0.000628466,0.0485753,21.0159,493.067,-0.177293,0.0,0.0
1883,470.5,35.8812,37.0272,136.674,113.364,115.814,0.000604775,0.0486498,21.0161,493.067,-0.190195,0.0,0.0
1890,472.25,36.0804,36.7396,137.367,113.344,115.775,0.000528006,0.0487069,21.0159,493.077,-0.18872,0.0,0.0
1897,474,36.095,37.2886,138.375,113.328,115.451,0.000431652,0.0485739,21.0154,493.067,-0.165022,0.0,0.0
1904,475.75,35.9464,36.9381,138.549,113.341,115.641,0.0004021,0.0485806,21.0152,493.077,-0.178693,0.0,0.0
1911,477.5,35.8316,37.2291,139.21,113.33,115.319,0.000483755,0.0485809,21.0151,493.067,-0.1547,0.0,0.0
1918,479.25,35.701,37.0657,137.243,113.302,115.806,0.000592455,0.0485282,21.015,493.077,-0.194409,0.0,0.0
1925,481,35.9164,37.1492,135.839,113.282,115.171,0.000663163,0.0485441,21.0152,493.057,-0.147061,0.0,0.0
1932,482.75,36.0924,37.7903,137.101,113.282,115.752,0.000661641,0.0486236,21.0163,493.077,-0.191874,0.0,0.0
1939,484.5,36.0592,37.5567,142.465,113.279,115.216,0.000647713,0.0486817,21.0168,493.057,-0.150762,0.0,0.0
1946,486.25,36.1376,37.5302,135.881,113.265,115.207,0.000618048,0.0485901,21.0171,493.057,-0.151199,0.0,0.0
1953,488,36.196,36.9284,140.972,113.241,115.166,0.00052761,0.0485159,21.0172,493.057,-0.149911,0.0,0.0
1960,489.75,35.8671,37.1389,139.278,113.25,115.275,0.000430249,0.0484684,21.0172,493.067,-0.157594,0.0,0.0
1967,491.5,35.9041,37.4573,137.406,113.245,115.286,0.000354208,0.0483795,21.0173,493.057,-0.158844,0.0,0.0
1974,493.25,36.1205,37.1884,136.229,113.221,115.499,0.000292453,0.0484277,21.0173,493.067,-0.177145,0.0,0.0
1981,495,35.9565,37.3838,140.034,113.21,115.057,0.000250329,0.0485028,21.0174,493.077,-0.143892,0.0,0.0
1988,496.75,35.9623,37.15,133.056,113.186,115.581,0.000186814,0.0484412,21.0174,493.057,-0.186146,0.0,0.0
1995,498.5,36.0035,37.8855,140.639,113.194,115.096,0.000117748,0.0484537,21.0174,493.067,-0.148196,0.0,0.0
2002,500.25,35.717,37.5292,134.911,113.165,115.07,0.000112152,0.048517,21.0174,493.057,-0.148438,0.0,0.0
2009,502,36.1599,37.3894,143.081,113.143,115.3,0.000189854,0.0485849,21.0174,493.067,-0.167956,0.0,0.0
2016,503.75,35.6346,37.2449,140.398,113.149,115.384,0.000314672,0.0486481,21.0174,493.077,-0.173923,0.0,0.0
2023,505.5,36.0089,37.0079,136.909,113.127,115.165,0.000416275,0.0485212,21.0174,493.057,-0.158808,0.0,0.0
2030,507.25,35.7001,37.4181,138.901,113.106,115.118,0.000475414,0.0485194,21.0174,493.067,-0.156837,0.0,0.0
2037,509,35.9826,37.4308,137.079,113.089,115.225,0.000501566,0.0485244,21.0174,493.057,-0.166472,0.0,0.0
2044,510.75,36.0346,37.4946,144.542,113.064,115.16,0.000521048,0.0485012,21.017,493.067,-0.163375,0.0,0.0
2051,512.5,36.1364,37.1863,138.776,113.04,114.465,0.000557484,0.0485397,21.016,493.087,-0.111343,0.0,0.0
2058,514.25,35.7871,37.243,133.309,113.04,115.205,0.000584151,0.0486019,21.0155,493.067,-0.168644,0.0,0.0
2065,516,35.5939,37.0726,137.065,113.013,114.824,0.000561167,0.0485544,21.0153,493.057,-0.141429,0.0,0.0
2072,517.75,36.1205,36.9593,137.559,113.002,114.929,0.000435385,0.0484779,21.0152,493.057,-0.150353,0.0,0.0
2079,519.5,36.2265,37.2479,137.886,112.967,114.552,0.000288241,0.0485564,21.0152,493.067,-0.123876,0.0,0.0
2086,521.25,35.8384,37.2479,139.54,112.939,115.044,0.00023132,0.0486519,21.0151,493.057,-0.164234,0.0,0.0
2093,523,35.6368,37.5031,136.537,112.928,115.243,0.000323678,0.0486255,21.0151,493.057,-0.180401,0.0,0.0
2100,524.75,35.8099,36.7209,140.666,112.889,115.145,0.0005084,0.0486693,21.0151,493.057,-0.175972,0.0,0.0
2107,526.5,35.8916,37.1228,141.403,112.874,114.648,0.000656853,0.0487588,21.0151,493.077,-0.138683,0.0,0.0
2114,528.25,36.2752,37.2936,138.579,112.839,115.336,0.000686051,0.0488016,21.0151,493.047,-0.194687,0.0,0.0
2121,530,35.4463,37.3951,139.723,112.827,115.267,0.000610145,0.0487926,21.0151,493.067,-0.190211,0.0,0.0
2128,531.75,35.8123,36.9583,137.657,112.806,114.329,0.000528963,0.0487,21.0151,493.067,-0.119332,0.0,0.0
2135,533.5,36.1897,37.2724,136.802,112.78,114.946,0.000517453,0.0486826,21.0151,493.057,-0.169193,0.0,0.0
2142,535.25,36.2902,37.5374,138.51,112.761,114.876,0.000555765,0.048616,21.0151,493.067,-0.165268,0.0,0.0
2149,537,36.0267,37.6769,142.68,112.733,115.786,0.000623908,0.0486801,21.0143,493.047,-0.237666,0.0,0.0
2156,538.75,36.0318,37.3302,139.505,112.727,114.664,0.000673003,0.0486133,21.0135,493.057,-0.151491,0.0,0.0
2163,540.5,36.0718,37.3553,140.063,112.703,114.937,0.000638458,0.0485317,21.0138,493.047,-0.174566,0.0,0.0
2170,542.25,36.031,37.6064,136.495,112.669,114.602,0.000594262,0.0486437,21.0145,493.067,-0.151337,0.0,0.0
2177,544,36.1719,37.3923,138.235,112.662,114.704,0.000583782,0.0487985,21.0148,493.057,-0.15976,0.0,0.0
2184,545.75,36.1847,37.4471,137.857,112.636,114.778,0.000573829,0.0487328,21.015,493.057,-0.167544,0.0,0.0
2191,547.5,36.392,37.4686,138.966,112.621,114.784,0.000515118,0.0486972,21.0151,493.067,-0.169198,0.0,0.0
2198,549.25,36.1848,37.1434,137.539,112.6,114.639,0.000476239,0.048795,21.0151,493.057,-0.159656,0.0,0.0
2205,551,36.4542,37.191,139.86,112.588,114.847,0.000591881,0.0487941,21.0151,493.057,-0.176696,0.0,0.0
2212,552.75,36.1551,37.4639,140.434,112.556,114.432,0.000758988,0.048747,21.0151,493.047,-0.147033,0.0,0.0
2219,554.5,36.2449,37.4474,135.744,112.553,114.952,0.000807233,0.0487206,21.0151,493.047,-0.187593,0.0,0.0
2226,556.25,36.0402,37.0048,136.278,112.524,114.862,0.000779935,0.0487693,21.0151,493.067,-0.182854,0.0,0.0
2233,558,36.2671,37.4127,138.614,112.506,114.182,0.000752314,0.0487947,21.0151,493.057,-0.131482,0.0,0.0
2240,559.75,35.7932,37.2836,136.193,112.493,114.585,0.000746051,0.0488188,21.0162,493.037,-0.163893,0.0,0.0
2247,561.5,36.1048,37.5693,142.172,112.471,114.685,0.000662376,0.0487062,21.0168,493.047,-0.173341,0.0,0.0
2254,563.25,36.4583,37.3134,134.41,112.432,114.339,0.000504362,0.0486453,21.0175,493.067,-0.149552,0.0,0.0
2261,565,35.8634,37.4868,137.325,112.397,114.574,0.000433597,0.0486344,21.0178,493.047,-0.170628,0.0,0.0
2268,566.75,36.3145,37.8371,135.132,112.379,114.509,0.000448652,0.0486629,21.0177,493.047,-0.166978,0.0,0.0
2275,568.5,36.1891,37.4304,137.985,112.351,113.903,0.000574825,0.0486556,21.0167,493.027,-0.121993,0.0,0.0
2282,570.25,35.9053,37.376,137.599,112.334,114.729,0.000725958,0.0486603,21.0162,493.037,-0.187567,0.0,0.0
2289,572,36.0887,37.9094,136.732,112.293,114.077,0.000758319,0.0487794,21.016,493.057,-0.140151,0.0,0.0
2296,573.75,36.2317,37.4581,137.811,112.256,114.56,0.000681969,0.0486462,21.0159,493.047,-0.180656,0.0,0.0
2303,575.5,36.1448,37.7994,141.71,112.226,114.065,0.00063894,0.0486267,21.0158,493.057,-0.144553,0.0,0.0
2310,577.25,35.7982,37.4008,133.781,112.209,114.085,0.000683018,0.0486631,21.0158,493.047,-0.147391,0.0,0.0
2317,579,36.2834,37.5667,138.412,112.179,114.256,0.000775858,0.0487143,21.0158,493.057,-0.163103,0.0,0.0
2324,580.75,36.4698,37.3068,138.822,112.148,114.534,0.000784927,0.0487015,21.0158,493.057,-0.187269,0.0,0.0
2331,582.5,35.5297,37.9993,139.063,112.124,114.106,0.000656928,0.0486308,21.0158,493.037,-0.155778,0.0,0.0
2338,584.25,36.3461,37.6248,140.048,112.113,114.146,0.000526113,0.0486026,21.0158,493.047,-0.159842,0.0,0.0
2345,586,36.4193,37.3133,138.386,112.092,114.099,0.000514908,0.0485523,21.0148,493.057,-0.157777,0.0,0.0
2352,587.75,36.2022,37.2072,134.375,112.061,114.385,0.000583384,0.0485933,21.0138,493.037,-0.182568,0.0,0.0
2359,589.5,36.273,37.4575,137.342,112.042,114.254,0.000613566,0.0486552,21.0133,493.037,-0.173847,0.0,0.0
2366,591.25,35.9878,37.481,136.293,112.036,113.9,0.000552659,0.0486746,21.013,493.037,-0.1467,0.0,0.0
2373,593,36.0796,37.7627,137.634,112.007,114.229,0.000453479,0.0486867,21.0129,493.037,-0.174717,0.0,0.0
2380,594.75,35.9714,37.7788,137.225,111.978,113.769,0.000416287,0.0486571,21.0129,493.057,-0.141105,0.0,0.0
2387,596.5,36.3932,37.2677,138.663,111.958,113.966,0.000432048,0.0487081,21.0128,493.037,-0.158088,0.0,0.0
2394,598.25,35.9744,37.3209,139.685,111.923,113.778,0.000453847,0.0487517,21.0124,493.027,-0.146138,0.0,0.0
2401,600,36.258,37.7553,138.208,111.906,113.101,0.00045323,0.0487597,21.0114,493.027,-0.0944055,0.0,0.0
2408,601.75,35.8764,37.5223,138.943,111.874,113.783,0.000467211,0.0488035,21.0109,493.047,-0.150427,0.0,0.0
2415,603.5,34.6884,36.0792,139.509,111.84,114.408,0.000464236,0.0487858,21.0113,493.057,-0.201927,0.0,0.0
2422,605.25,34.1263,35.6795,139.757,111.811,113.888,0.000409005,0.0487169,21.012,493.037,-0.163696,0.0,0.0
2429,607,34.0249,35.7564,139.969,111.792,113.944,0.000332155,0.0487258,21.0124,493.027,-0.169575,0.0,0.0
2436,608.75,34.1753,35.1984,136.814,111.753,113.527,0.000290434,0.0487707,21.0131,493.047,-0.140016,0.0,0.0
2443,610.5,34.3535,35.4828,139.288,111.731,113.731,0.000230233,0.048845,21.0143,493.027,-0.157772,0.0,0.0
2450,612.25,34.4232,35.8069,135.779,111.703,114.027,0.000191816,0.0488668,21.0149,493.037,-0.183071,0.0,0.0
2457,614,34.396,35.8081,140.694,111.687,113.428,0.000227371,0.0488461,21.0152,493.037,-0.137523,0.0,0.0
2464,615.75,34.2286,35.5617,136.868,111.653,113.893,0.000275407,0.0488057,21.0153,493.037,-0.176652,0.0,0.0
2471,617.5,34.2691,35.6035,136.475,111.637,113.49,0.000282884,0.0487294,21.0154,493.017,-0.146431,0.0,0.0
2478,619.25,34.7057,36.1071,139.441,111.608,113.765,0.000274171,0.0486996,21.0154,493.047,-0.170184,0.0,0.0
2485,621,34.4815,35.6841,140.671,111.591,113.681,0.000327056,0.0487327,21.0154,493.037,-0.165037,0.0,0.0
2492,622.75,34.3498,36.1526,138.821,111.59,114.146,0.000387922,0.0486761,21.0154,493.027,-0.20141,0.0,0.0
2499,624.5,34.6075,35.7455,136.59,111.55,113.683,0.000418383,0.0486902,21.0154,493.027,-0.168409,0.0,0.0
2506,626.25,34.341,35.7757,139.079,111.535,113.238,0.000408288,0.0488135,21.0154,493.047,-0.134713,0.0,0.0
2513,628,34.0566,35.5935,136.377,111.506,113.272,0.000411329,0.0488083,21.0154,493.047,-0.139737,0.0,0.0
2520,629.75,35.0093,36.0573,138.898,111.501,113.257,0.000444233,0.0487876,21.0154,493.057,-0.139014,0.0,0.0
2527,631.5,34.2576,35.396,137.354,111.488,113.818,0.000486986,0.0488771,21.0154,493.037,-0.183894,0.0,0.0
2534,633.25,34.6617,35.6381,134.865,111.473,113.36,0.000561734,0.0488697,21.0152,493.047,-0.149281,0.0,0.0
2541,635,34.2199,35.695,138.288,111.451,113.455,0.000654827,0.0488836,21.015,493.057,-0.158505,0.0,0.0
2548,636.75,33.9482,35.1947,137.904,111.453,113.737,0.000743554,0.0490316,21.0149,493.057,-0.180404,0.0,0.0
2555,638.5,34.4561,36.121,138.26,111.445,113.68,0.000802965,0.0490665,21.0148,493.057,-0.176601,0.0,0.0
2562,640.25,33.9273,35.4014,137.257,111.43,113.302,0.000775701,0.04907,21.0137,493.057,-0.148168,0.0,0.0
2569,642,34.1273,35.7987,136.39,111.416,113.322,0.000613291,0.0491628,21.0131,493.047,-0.150846,0.0,0.0
2576,643.75,34.3412,35.6188,135.268,111.414,113.685,0.000477262,0.0491584,21.0127,493.037,-0.17942,0.0,0.0
2583,645.5,34.4701,35.8163,137.419,111.413,113.545,0.000391901,0.0492112,21.0126,493.047,-0.168517,0.0,0.0
2590,647.25,34.6335,35.547,138.432,111.403,113.209,0.000278457,0.0492073,21.0125,493.047,-0.143001,0.0,0.0
2597,649,34.3919,35.8759,142.497,111.392,113.35,0.000121433,0.0491473,21.0125,493.057,-0.154997,0.0,0.0
2604,650.75,34.345,35.8769,137.164,111.374,113.457,2.10522e-05,0.0492484,21.0125,493.057,-0.164814,0.0,0.0
2611,652.5,34.1253,35.68,139.668,111.374,113.271,5.90265e-05,0.0493734,21.0125,493.037,-0.150227,0.0,0.0
2618,654.25,34.3336,35.8536,136.651,111.379,113.605,0.000201925,0.0493704,21.0125,493.037,-0.175967,0.0,0.0
2625,656,34.1711,35.5671,137.009,111.357,113.115,0.000346858,0.0494348,21.0123,493.057,-0.139345,0.0,0.0
2632,657.75,34.342,35.8426,139.683,111.343,113.219,0.000461211,0.0495017,21.012,493.047,-0.148539,0.0,0.0
2639,659.5,34.5149,35.3327,139.629,111.349,113.609,0.000576317,0.0496079,21.0119,493.057,-0.178707,0.0,0.0
2646,661.25,34.5427,35.5132,136.076,111.354,114.42,0.000705521,0.0495477,21.0119,493.047,-0.241611,0.0,0.0
2653,663,34.0868,35.408,139.077,111.355,113.494,0.000807145,0.0495862,21.0118,493.057,-0.16917,0.0,0.0
2660,664.75,33.5821,35.4956,138.768,111.339,113.022,0.000832167,0.0494959,21.0118,493.047,-0.13344,0.0,0.0
2667,666.5,33.9505,35.8916,135.672,111.334,113.108,0.000774467,0.0494415,21.0118,493.057,-0.140557,0.0,0.0
2674,668.25,34.4791,35.6892,135.086,111.348,113.007,0.000638488,0.0494969,21.0118,493.067,-0.13148,0.0,0.0
2681,670,34.4156,35.759,140.162,111.35,113.795,0.000517182,0.0494321,21.0116,493.067,-0.193146,0.0,0.0
2688,671.75,34.1379,35.1117,135.952,111.349,113.565,0.000430962,0.0493433,21.0105,493.047,-0.17521,0.0,0.0
2695,673.5,34.4362,35.7018,132.479,111.34,113.751,0.000389723,0.0494195,21.0102,493.037,-0.190491,0.0,0.0
2702,675.25,34.0926,35.5007,136.57,111.347,113.354,0.000389292,0.0495047,21.011,493.047,-0.158864,0.0,0.0
2709,677,33.9482,35.4104,141.214,111.36,113.149,0.000382738,0.0494478,21.0114,493.037,-0.141805,0.0,0.0
2716,678.75,34.0072,35.3046,140.553,111.357,113.559,0.000328374,0.0495166,21.0116,493.057,-0.174116,0.0,0.0
2723,680.5,34.2555,35.4194,138.006,111.36,113.909,0.000249116,0.0496296,21.0117,493.057,-0.201241,0.0,0.0
2730,682.25,34.1611,35.587,137.063,111.369,113.737,0.000161791,0.0496001,21.0118,493.047,-0.187097,0.0,0.0
2737,684,34.0976,35.29,137.812,111.375,113.553,0.000193634,0.0496185,21.0118,493.047,-0.172234,0.0,0.0
2744,685.75,34.2027,35.711,138.463,111.392,114.509,0.000295367,0.0496273,21.0118,493.037,-0.245404,0.0,0.0
2751,687.5,34.4976,35.9665,141.049,111.401,113.407,0.00036847,0.0497461,21.0118,493.037,-0.158697,0.0,0.0
2758,689.25,34.8612,35.5575,134.382,111.407,113.555,0.000368913,0.0496963,21.0118,493.037,-0.169856,0.0,0.0
2765,691,34.0757,35.8311,137.981,111.422,113.018,0.000327811,0.0495643,21.0118,493.027,-0.126495,0.0,0.0
2772,692.75,34.1575,35.0684,136.584,111.445,113.366,0.000334923,0.0494207,21.0118,493.027,-0.152038,0.0,0.0
2779,694.5,34.1337,35.5268,139.375,111.438,113.115,0.00036391,0.0493691,21.0118,493.027,-0.132862,0.0,0.0
2786,696.25,34.0369,35.2041,134.978,111.452,113.245,0.000337401,0.0493436,21.0118,493.037,-0.141926,0.0,0.0
2793,698,33.9097,36.0307,138.118,111.476,113.573,0.000344424,0.0493571,21.0118,493.027,-0.165752,0.0,0.0
2800,699.75,34.5254,35.3192,140.271,111.525,113.949,0.000427625,0.0493669,21.0118,493.027,-0.19128,0.0,0.0
2807,701.5,34.1222,35.6978,138.028,111.522,113.574,0.000452562,0.0494107,21.0119,493.047,-0.162103,0.0,0.0
2814,703.25,34.1783,36.0129,136.919,111.533,113.22,0.00040935,0.0495541,21.0122,493.037,-0.133493,0.0,0.0
2821,705,34.2162,36.1136,138.098,111.532,113.308,0.000455019,0.0496444,21.0114,493.027,-0.140472,0.0,0.0
2828,706.75,34.417,35.8636,142.768,111.571,113.481,0.000542824,0.049581,21.0107,493.027,-0.150953,0.0,0.0
2835,708.5,33.9892,35.5802,138.586,111.582,113.921,0.00051306,0.0493747,21.0104,493.037,-0.184504,0.0,0.0
2842,710.25,33.9907,35.5591,137.719,111.607,113.214,0.000468866,0.0493878,21.0103,493.037,-0.127162,0.0,0.0
2849,712,34.513,35.4626,137.213,111.595,114.278,,0.0495184,,493.027,-0.211264,0.0,0.0
2856,713.75,33.7979,35.4265,134.546,111.631,114.135,,,,493.047,-0.197291,0.0,0.0
2863,715.5,34.7906,35.2818,134.566,111.649,113.983,,,,493.037,-0.184035,0.0,0.0
2870,717.25,33.8806,35.9595,135.042,111.67,114.241,,,,493.017,-0.202453,0.0,0.0
2877,719,34.0955,35.9135,138.13,111.645,114.224,,,,493.027,-0.203097,0.0,0.0
2884,720.75,34.5302,35.8315,134.595,111.684,113.602,,,,493.017,-0.151467,0.0,0.0
2887,721.5,34.3587,36.0133,134.051,111.677,113.526,,,,493.017,-0.14604,0.0,0.0