File: 01_Data/Feather_PillowA_Cover/STA/N2/30K_min/Feather_Pillow_Cover_STA_N2_30KData_2216_R2.csv
##Temp./Â°C,Time/min,Mass loss(subtr.2)/mg,DSC(subtr.2)/(mW/mg),Sensit./(uV/mW)
48.488,10.00917,-0.05797,0.03353084,1.05402
49.188,10.5564,-0.06040448,0.08112382,1.05388
49.888,10.68206,-0.05933875,0.12731,1.05373
50.588,10.77241,-0.06069112,0.16894,1.05359
51.288,10.84648,-0.05972128,0.20771,1.05345
51.988,10.91015,-0.06161017,0.24118,1.0533
52.688,10.96707,-0.06259699,0.27799,1.05315
53.388,11.0192,-0.06191989,0.30937,1.05301
54.088,11.0673,-0.06308658,0.33789,1.05286
54.788,11.11237,-0.06166583,0.36665,1.05271
55.488,11.15509,-0.06142092,0.39586,1.05256
56.188,11.196,-0.06108299,0.42515,1.05241
56.888,11.2348,-0.06198265,0.44668,1.05226
57.588,11.27236,-0.0612799,0.47408,1.05211
58.288,11.30893,-0.06224359,0.49563,1.05195
58.988,11.34457,-0.06200428,0.51676,1.0518
59.688,11.379,-0.0631258,0.53796,1.05164
60.388,11.4124,-0.06318023,0.56263,1.05149
61.088,11.445,-0.0622875,0.58151,1.05133
61.788,11.47692,-0.06269328,0.60171,1.05117
62.488,11.50825,-0.06219486,0.6226,1.05101
63.188,11.53915,-0.06300984,0.6406,1.05085
63.888,11.5695,-0.06256185,0.65768,1.05069
64.588,11.59928,-0.06158461,0.67469,1.05053
65.288,11.62865,-0.06256834,0.6921,1.05037
65.988,11.65766,-0.06304778,0.71008,1.05021
66.688,11.68636,-0.06131185,0.72752,1.05004
67.388,11.7148,-0.06045692,0.74284,1.04988
68.088,11.7429,-0.06147195,0.75735,1.04971
68.788,11.77084,-0.06413013,0.7741,1.04955
69.488,11.79844,-0.06522923,0.78941,1.04938
70.188,11.82583,-0.06566729,0.80255,1.04921
70.888,11.853,-0.06545654,0.81909,1.04904
71.588,11.88,-0.06551978,0.8325,1.04887
72.288,11.90669,-0.06606761,0.84662,1.0487
72.988,11.93321,-0.06604962,0.85969,1.04853
73.688,11.95952,-0.06551941,0.87328,1.04835
74.388,11.98569,-0.06586449,0.88726,1.04818
75.088,12.0118,-0.06716173,0.90157,1.04801
75.788,12.0379,-0.06747077,0.91154,1.04783
76.488,12.06373,-0.0659343,0.92563,1.04765
77.188,12.08941,-0.06673066,0.93736,1.04748
77.888,12.11501,-0.06718251,0.95031,1.0473
78.588,12.1404,-0.06659231,0.9628,1.04712
79.288,12.16573,-0.06743973,0.97313,1.04694
79.988,12.1909,-0.06780957,0.9835,1.04676
80.688,12.216,-0.06927151,0.99535,1.04658
81.388,12.241,-0.06845646,1.00536,1.0464
82.088,12.2661,-0.06936487,1.01884,1.04621
82.788,12.29101,-0.07103959,1.02784,1.04603
83.488,12.31582,-0.07205268,1.04113,1.04584
84.188,12.34057,-0.07161745,1.05215,1.04566
84.888,12.365,-0.07250027,1.06259,1.04547
85.588,12.3895,-0.07247941,1.07094,1.04528
86.288,12.41405,-0.07246212,1.07998,1.0451
86.988,12.43855,-0.07234554,1.09016,1.04491
87.688,12.46302,-0.0709652,1.10035,1.04472
88.388,12.48719,-0.07076963,1.10956,1.04453
89.088,12.5114,-0.07217504,1.11804,1.04433
89.788,12.53551,-0.07213367,1.12448,1.04414
90.488,12.5596,-0.07250069,1.13583,1.04395
91.188,12.58372,-0.07240278,1.1446,1.04375
91.888,12.60772,-0.07266247,1.1518,1.04356
92.588,12.63165,-0.07342822,1.15968,1.04336
93.288,12.65558,-0.0735524,1.16732,1.04316
93.988,12.67944,-0.0747559,1.1746,1.04297
94.688,12.70324,-0.07556475,1.18182,1.04277
95.388,12.72705,-0.07666228,1.19037,1.04257
96.088,12.75085,-0.07750847,1.19697,1.04237
96.788,12.7745,-0.07799912,1.2017,1.04217
97.488,12.79809,-0.07881945,1.20666,1.04197
98.188,12.82175,-0.07893086,1.21285,1.04176
98.888,12.8454,-0.08018017,1.22018,1.04156
99.588,12.86899,-0.0801403,1.22375,1.04135
100.288,12.8927,-0.08007232,1.2267,1.04115
100.988,12.91619,-0.08143572,1.23215,1.04094
101.688,12.9397,-0.08145948,1.23482,1.04074
102.388,12.96318,-0.08138297,1.24023,1.04053
103.088,12.98655,-0.08276021,1.24303,1.04032
103.788,13.0101,-0.08278425,1.24423,1.04011
104.488,13.03358,-0.08418478,1.24719,1.0399
105.188,13.05719,-0.08408974,1.25004,1.03969
105.888,13.08072,-0.08414937,1.25165,1.03948
106.588,13.10411,-0.08545888,1.25266,1.03926
107.288,13.12749,-0.08540853,1.25459,1.03905
107.988,13.15081,-0.08547411,1.25543,1.03883
108.688,13.1742,-0.0867784,1.2575,1.03862
109.388,13.1976,-0.08673109,1.25773,1.0384
110.088,13.221,-0.08673029,1.258,1.03819
110.788,13.2444,-0.08674284,1.2572,1.03797
111.488,13.26775,-0.08726775,1.25489,1.03775
112.188,13.2912,-0.08943617,1.25426,1.03753
112.888,13.3146,-0.08937529,1.25354,1.03731
113.588,13.33784,-0.08937008,1.25141,1.03709
114.288,13.36116,-0.08937072,1.25302,1.03687
114.988,13.3844,-0.08944183,1.24882,1.03664
115.688,13.4076,-0.09070902,1.2479,1.03642
116.388,13.4308,-0.09067869,1.24619,1.03619
117.088,13.4539,-0.09067988,1.24483,1.03597
117.788,13.4771,-0.09068,1.24258,1.03574
118.488,13.5002,-0.09068003,1.23999,1.03552
119.188,13.5234,-0.09068156,1.23873,1.03529
119.888,13.54655,-0.09083707,1.23726,1.03506
120.588,13.56965,-0.09199317,1.23553,1.03483
121.288,13.59268,-0.09199813,1.23442,1.0346
121.988,13.6157,-0.09199991,1.23041,1.03437
122.688,13.6387,-0.092,1.22804,1.03414
123.388,13.66165,-0.092,1.22637,1.0339
124.088,13.6846,-0.092,1.22425,1.03367
124.788,13.70752,-0.092,1.2212,1.03344
125.488,13.7305,-0.09200002,1.21938,1.0332
126.188,13.7534,-0.09200084,1.21637,1.03297
126.888,13.77631,-0.09201332,1.21586,1.03273
127.588,13.79925,-0.09266669,1.21342,1.03249
128.288,13.82215,-0.09330512,1.20978,1.03225
128.988,13.84496,-0.09328396,1.20799,1.03201
129.688,13.86766,-0.09366006,1.20858,1.03177
130.388,13.8904,-0.09364959,1.20773,1.03153
131.088,13.9131,-0.09364956,1.20374,1.03129
131.788,13.93573,-0.09364312,1.20471,1.03105
132.488,13.95841,-0.09492073,1.20178,1.03081
133.188,13.981,-0.09497532,1.20215,1.03056
133.888,14.0037,-0.09497049,1.20042,1.03032
134.588,14.02634,-0.09497002,1.19886,1.03007
135.288,14.04892,-0.09497,1.19917,1.02982
135.988,14.0715,-0.09497,1.19893,1.02958
136.688,14.094,-0.09497,1.19852,1.02933
137.388,14.1164,-0.09497001,1.20006,1.02908
138.088,14.1389,-0.09497002,1.20067,1.02883
138.788,14.16129,-0.09496844,1.19926,1.02858
139.488,14.18366,-0.0949247,1.20076,1.02833
140.188,14.20605,-0.09614116,1.20217,1.02808
140.888,14.22846,-0.09627831,1.20379,1.02782
141.588,14.2509,-0.09628021,1.20404,1.02757
142.288,14.27326,-0.09628082,1.20535,1.02732
142.988,14.2957,-0.09629374,1.20523,1.02706
143.688,14.31799,-0.09684155,1.20568,1.02681
144.388,14.3404,-0.09760354,1.20639,1.02655
145.088,14.3627,-0.09665386,1.20985,1.02629
145.788,14.3849,-0.09629151,1.21019,1.02603
146.488,14.40717,-0.09628018,1.21331,1.02577
147.188,14.4293,-0.09628026,1.21497,1.02551
147.888,14.4513,-0.09636713,1.21668,1.02525
148.588,14.4734,-0.09765164,1.21735,1.02499
149.288,14.4955,-0.09760084,1.22288,1.02473
149.988,14.5176,-0.09758142,1.2224,1.02447
150.688,14.53974,-0.09656424,1.22329,1.0242
151.388,14.56195,-0.09628156,1.22638,1.02394
152.088,14.58409,-0.09627661,1.22848,1.02367
152.788,14.60627,-0.09622995,1.22928,1.02341
153.488,14.62844,-0.09757497,1.23251,1.02314
154.188,14.65042,-0.09760229,1.23574,1.02287
154.888,14.6724,-0.097605,1.23675,1.0226
155.588,14.6944,-0.09774331,1.23993,1.02233
156.288,14.71641,-0.09832304,1.24314,1.02206
156.988,14.73845,-0.09696558,1.24583,1.02179
157.688,14.7603,-0.09692304,1.24662,1.02152
158.388,14.78231,-0.09766869,1.25054,1.02125
159.088,14.80436,-0.09760464,1.25405,1.02098
159.788,14.8264,-0.09760021,1.25562,1.0207
160.488,14.8485,-0.09760003,1.25944,1.02043
161.188,14.8705,-0.0975991,1.26178,1.02015
161.888,14.8924,-0.0975661,1.26445,1.01988
162.588,14.91431,-0.09866132,1.26513,1.0196
163.288,14.9362,-0.09890237,1.27126,1.01932
163.988,14.9581,-0.09891345,1.27176,1.01904
164.688,14.9799,-0.09927165,1.27659,1.01877
165.388,15.0018,-0.09956353,1.28067,1.01849
166.088,15.02375,-0.09956951,1.28203,1.0182
166.788,15.04563,-0.09956997,1.28487,1.01792
167.488,15.0675,-0.09957,1.2864,1.01764
168.188,15.08929,-0.09957,1.28866,1.01736
168.888,15.1111,-0.09957,1.29212,1.01707
169.588,15.13291,-0.09957002,1.29661,1.01679
170.288,15.1547,-0.09957035,1.301,1.0165
170.988,15.17645,-0.09957468,1.3024,1.01622
171.688,15.1982,-0.0996036,1.30549,1.01593
172.388,15.2199,-0.09892737,1.30942,1.01564
173.088,15.24164,-0.09892597,1.31224,1.01536
173.788,15.2634,-0.09905709,1.31304,1.01507
174.488,15.2852,-0.09926831,1.31694,1.01478
175.188,15.3069,-0.10001,1.31885,1.01449
175.888,15.3286,-0.10056,1.32282,1.0142
176.588,15.35028,-0.10056,1.32698,1.0139
177.288,15.372,-0.10056,1.32919,1.01361
177.988,15.3936,-0.10056,1.33146,1.01332
178.688,15.41528,-0.10057,1.33305,1.01302
179.388,15.4369,-0.10062,1.34031,1.01273
180.088,15.45836,-0.09988986,1.33963,1.01243
180.788,15.47994,-0.09990041,1.34229,1.01214
181.488,15.5015,-0.09989368,1.34481,1.01184
182.188,15.5231,-0.09971093,1.34738,1.01154
182.888,15.54466,-0.09853494,1.35143,1.01124
183.588,15.56618,-0.09857776,1.35535,1.01094
184.288,15.5876,-0.09857993,1.35512,1.01064
184.988,15.60904,-0.09858001,1.35754,1.01034
185.688,15.6304,-0.09857913,1.36187,1.01004
186.388,15.65182,-0.09855257,1.36565,1.00974
187.088,15.67327,-0.09957102,1.36747,1.00944
187.788,15.69474,-0.09988968,1.37095,1.00913
188.488,15.7162,-0.10004,1.37385,1.00883
189.188,15.73768,-0.10125,1.37488,1.00852
189.888,15.759,-0.10122,1.37729,1.00822
190.588,15.7804,-0.10124,1.3816,1.00791
191.288,15.8018,-0.1001,1.38485,1.0076
191.988,15.8231,-0.10108,1.38678,1.00729
192.688,15.8445,-0.10122,1.3909,1.00699
193.388,15.8659,-0.10122,1.39312,1.00668
194.088,15.8872,-0.10122,1.39414,1.00637
194.788,15.9085,-0.10122,1.39598,1.00605
195.488,15.92985,-0.10122,1.4001,1.00574
196.188,15.9512,-0.10122,1.40399,1.00543
196.888,15.9724,-0.10118,1.4056,1.00512
197.588,15.9938,-0.1021,1.40837,1.0048
198.288,16.01514,-0.10221,1.40757,1.00449
198.988,16.03643,-0.10221,1.41204,1.00417
199.688,16.05769,-0.10221,1.41605,1.00386
200.388,16.07891,-0.10221,1.41889,1.00354
201.088,16.1002,-0.10221,1.41866,1.00322
201.788,16.1215,-0.10221,1.42271,1.00291
202.488,16.14276,-0.10221,1.42436,1.00259
203.188,16.16401,-0.10221,1.42317,1.00227
203.888,16.18524,-0.10221,1.42538,1.00195
204.588,16.20645,-0.10221,1.43023,1.00163
205.288,16.22774,-0.10221,1.43354,1.0013
205.988,16.24904,-0.10221,1.43395,1.00098
206.688,16.27027,-0.10221,1.43753,1.00066
207.388,16.2915,-0.10221,1.44092,1.00034
208.088,16.3127,-0.10221,1.44192,1.00001
208.788,16.33391,-0.10221,1.44474,0.99969
209.488,16.35513,-0.10221,1.44747,0.99936
210.188,16.37621,-0.10221,1.448,0.99903
210.888,16.3973,-0.10221,1.44928,0.99871
211.588,16.41834,-0.10221,1.45107,0.99838
212.288,16.4395,-0.10221,1.4536,0.99805
212.988,16.46084,-0.10221,1.45776,0.99772
213.688,16.48219,-0.10222,1.45686,0.99739
214.388,16.50354,-0.10235,1.45884,0.99706
215.088,16.5247,-0.10253,1.46144,0.99673
215.788,16.54578,-0.1025,1.46419,0.9964
216.488,16.56697,-0.10289,1.46642,0.99606
217.188,16.58813,-0.10287,1.4695,0.99573
217.888,16.60934,-0.10287,1.47056,0.9954
218.588,16.63072,-0.10287,1.47071,0.99506
219.288,16.65186,-0.10287,1.4746,0.99473
219.988,16.6731,-0.10283,1.47883,0.99439
220.688,16.69418,-0.10391,1.47892,0.99405
221.388,16.7153,-0.10523,1.47801,0.99371
222.088,16.73653,-0.10559,1.48151,0.99338
222.788,16.75765,-0.10561,1.48298,0.99304
223.488,16.77886,-0.10561,1.48411,0.9927
224.188,16.79993,-0.10561,1.48828,0.99236
224.888,16.82098,-0.10561,1.48635,0.99202
225.588,16.84215,-0.10561,1.49206,0.99167
226.288,16.8633,-0.10485,1.48945,0.99133
226.988,16.8844,-0.10431,1.49349,0.99099
227.688,16.90571,-0.10429,1.49693,0.99065
228.388,16.92679,-0.10429,1.49769,0.9903
229.088,16.94795,-0.10453,1.49763,0.98996
229.788,16.96913,-0.10561,1.49957,0.98961
230.488,16.9903,-0.10561,1.50062,0.98926
231.188,17.01145,-0.10557,1.50245,0.98892
231.888,17.03256,-0.10681,1.50511,0.98857
232.588,17.05357,-0.10687,1.50691,0.98822
233.288,17.07464,-0.10765,1.50795,0.98787
233.988,17.09572,-0.10759,1.51048,0.98752
234.688,17.11661,-0.10759,1.51121,0.98717
235.388,17.13776,-0.10759,1.51382,0.98682
236.088,17.1588,-0.10759,1.51704,0.98647
236.788,17.1799,-0.10761,1.51793,0.98612
237.488,17.20109,-0.10895,1.51987,0.98576
238.188,17.2222,-0.10891,1.52273,0.98541
238.888,17.24336,-0.10891,1.52381,0.98506
239.588,17.26436,-0.10891,1.52562,0.9847
240.288,17.2854,-0.10891,1.52632,0.98435
240.988,17.30647,-0.10891,1.52793,0.98399
241.688,17.32751,-0.10891,1.53143,0.98363
242.388,17.34858,-0.10891,1.53295,0.98328
243.088,17.3696,-0.10892,1.53357,0.98292
243.788,17.3906,-0.11025,1.53545,0.98256
244.488,17.4116,-0.1102,1.53727,0.9822
245.188,17.4327,-0.11116,1.53885,0.98184
245.888,17.45376,-0.11129,1.54163,0.98148
246.588,17.47477,-0.11017,1.54268,0.98112
247.288,17.49584,-0.11022,1.54696,0.98075
247.988,17.51684,-0.11039,1.54703,0.98039
248.688,17.5379,-0.11157,1.54921,0.98003
249.388,17.559,-0.11219,1.55146,0.97966
250.088,17.58012,-0.11327,1.5514,0.9793
250.788,17.60122,-0.11416,1.5535,0.97893
251.488,17.62227,-0.11412,1.5583,0.97857
252.188,17.64329,-0.1154,1.55698,0.9782
252.888,17.66429,-0.11549,1.56091,0.97783
253.588,17.68535,-0.1155,1.56213,0.97747
254.288,17.70636,-0.11592,1.56516,0.9771
254.988,17.7274,-0.11683,1.56829,0.97673
255.688,17.74845,-0.11681,1.57033,0.97636
256.388,17.7695,-0.11681,1.56896,0.97599
257.088,17.7905,-0.11681,1.57213,0.97562
257.788,17.81157,-0.11737,1.57439,0.97525
258.488,17.8326,-0.1181,1.5745,0.97487
259.188,17.85365,-0.11812,1.57922,0.9745
259.888,17.8747,-0.11799,1.58032,0.97413
260.588,17.89571,-0.12064,1.5823,0.97375
261.288,17.9167,-0.12085,1.58222,0.97338
261.988,17.93765,-0.12208,1.58359,0.973
262.688,17.9587,-0.12219,1.58574,0.97263
263.388,17.97973,-0.12257,1.58499,0.97225
264.088,18.00079,-0.12349,1.58639,0.97187
264.788,18.02185,-0.12346,1.58552,0.9715
265.488,18.04297,-0.12472,1.58405,0.97112
266.188,18.06392,-0.12474,1.58606,0.97074
266.888,18.08482,-0.12616,1.58575,0.97036
267.588,18.1059,-0.12636,1.5864,0.96998
268.288,18.12694,-0.12772,1.58944,0.9696
268.988,18.14805,-0.12872,1.59062,0.96922
269.688,18.1693,-0.12879,1.59234,0.96883
270.388,18.19044,-0.1301,1.592,0.96845
271.088,18.21144,-0.1301,1.59511,0.96807
271.788,18.23251,-0.13012,1.59709,0.96768
272.488,18.2536,-0.13049,1.59991,0.9673
273.188,18.27449,-0.13142,1.60067,0.96691
273.888,18.29554,-0.13152,1.60349,0.96653
274.588,18.31661,-0.13279,1.60597,0.96614
275.288,18.33766,-0.13324,1.60628,0.96575
275.988,18.3588,-0.1332,1.6091,0.96537
276.688,18.37999,-0.13317,1.61152,0.96498
277.388,18.401,-0.13457,1.61426,0.96459
278.088,18.42212,-0.13462,1.61817,0.9642
278.788,18.44313,-0.13584,1.61925,0.96381
279.488,18.46422,-0.1374,1.62237,0.96342
280.188,18.4853,-0.13888,1.62428,0.96303
280.888,18.5063,-0.14002,1.62725,0.96264
281.588,18.52735,-0.14135,1.62962,0.96224
282.288,18.54842,-0.14176,1.63089,0.96185
282.988,18.56943,-0.14315,1.63569,0.96146
283.688,18.5906,-0.14476,1.63852,0.96106
284.388,18.61177,-0.14579,1.63966,0.96067
285.088,18.63274,-0.14676,1.64239,0.96027
285.788,18.65374,-0.14802,1.64552,0.95988
286.488,18.67482,-0.1497,1.64765,0.95948
287.188,18.69591,-0.1511,1.65112,0.95908
287.888,18.71709,-0.15176,1.65314,0.95868
288.588,18.73834,-0.15261,1.6558,0.95829
289.288,18.75945,-0.15261,1.65896,0.95789
289.988,18.78055,-0.15407,1.66206,0.95749
290.688,18.80167,-0.15469,1.66455,0.95709
291.388,18.82274,-0.15579,1.66632,0.95669
292.088,18.84381,-0.15718,1.66949,0.95629
292.788,18.86488,-0.1588,1.67216,0.95588
293.488,18.88587,-0.16022,1.67336,0.95548
294.188,18.90695,-0.16111,1.67932,0.95508
294.888,18.9281,-0.16258,1.68077,0.95468
295.588,18.94915,-0.16424,1.68306,0.95427
296.288,18.97039,-0.16545,1.68854,0.95387
296.988,18.99149,-0.16692,1.69074,0.95346
297.688,19.0126,-0.1684,1.69395,0.95306
298.388,19.03375,-0.16929,1.6971,0.95265
299.088,19.05485,-0.17096,1.70056,0.95224
299.788,19.07603,-0.17158,1.70257,0.95184
300.488,19.09723,-0.17293,1.70643,0.95143
301.188,19.11838,-0.17437,1.70963,0.95102
301.888,19.13956,-0.17599,1.71418,0.95061
302.588,19.16068,-0.17776,1.71601,0.9502
303.288,19.18175,-0.17912,1.72023,0.94979
303.988,19.20287,-0.18182,1.72232,0.94938
304.688,19.22402,-0.18358,1.72394,0.94897
305.388,19.2452,-0.18559,1.7291,0.94855
306.088,19.2664,-0.18806,1.73364,0.94814
306.788,19.28758,-0.19033,1.73861,0.94773
307.488,19.30876,-0.19233,1.73991,0.94732
308.188,19.32988,-0.19391,1.7449,0.9469
308.888,19.351,-0.19598,1.7466,0.94649
309.588,19.37218,-0.19845,1.75042,0.94607
310.288,19.39317,-0.20019,1.75497,0.94565
310.988,19.41432,-0.20176,1.75729,0.94524
311.688,19.4355,-0.20388,1.76345,0.94482
312.388,19.45662,-0.20666,1.76579,0.9444
313.088,19.47784,-0.20923,1.77324,0.94399
313.788,19.49899,-0.21153,1.77446,0.94357
314.488,19.52017,-0.21348,1.78238,0.94315
315.188,19.54136,-0.2154,1.78676,0.94273
315.888,19.5625,-0.21738,1.78973,0.94231
316.588,19.58369,-0.21997,1.79826,0.94189
317.288,19.6049,-0.22255,1.80254,0.94147
317.988,19.626,-0.22551,1.80767,0.94104
318.688,19.64722,-0.22819,1.815,0.94062
319.388,19.6684,-0.23142,1.82022,0.9402
320.088,19.68962,-0.23443,1.82685,0.93977
320.788,19.7108,-0.23732,1.8328,0.93935
321.488,19.732,-0.24019,1.83784,0.93893
322.188,19.7532,-0.24291,1.84537,0.9385
322.888,19.77443,-0.24658,1.85077,0.93808
323.588,19.79569,-0.25007,1.85715,0.93765
324.288,19.8169,-0.25378,1.86581,0.93722
324.988,19.83812,-0.25714,1.87091,0.9368
325.688,19.85932,-0.26087,1.87868,0.93637
326.388,19.88046,-0.26538,1.88647,0.93594
327.088,19.90166,-0.26888,1.89662,0.93551
327.788,19.9228,-0.27286,1.90474,0.93508
328.488,19.94406,-0.27694,1.91448,0.93465
329.188,19.9653,-0.28144,1.92174,0.93422
329.888,19.98657,-0.28577,1.92925,0.93379
330.588,20.00789,-0.29006,1.93965,0.93336
331.288,20.02917,-0.29444,1.95028,0.93293
331.988,20.0504,-0.29793,1.96256,0.93249
332.688,20.0716,-0.3026,1.97218,0.93206
333.388,20.0928,-0.30774,1.98357,0.93163
334.088,20.11395,-0.31342,1.99459,0.93119
334.788,20.13516,-0.31841,2.00556,0.93076
335.488,20.15646,-0.32438,2.01859,0.93032
336.188,20.17776,-0.3296,2.03245,0.92989
336.888,20.1991,-0.33658,2.04644,0.92945
337.588,20.2202,-0.34336,2.06196,0.92901
338.288,20.24151,-0.34983,2.07576,0.92858
338.988,20.26272,-0.35532,2.09062,0.92814
339.688,20.28399,-0.36265,2.10799,0.9277
340.388,20.30546,-0.36884,2.12445,0.92726
341.088,20.32687,-0.37583,2.14246,0.92682
341.788,20.34829,-0.38288,2.16292,0.92638
342.488,20.36973,-0.39078,2.18105,0.92594
343.188,20.39099,-0.39857,2.20419,0.9255
343.888,20.41231,-0.40647,2.22608,0.92506
344.588,20.43362,-0.41517,2.24921,0.92462
345.288,20.45496,-0.42324,2.27513,0.92418
345.988,20.47634,-0.43154,2.29983,0.92374
346.688,20.49759,-0.43901,2.32797,0.92329
347.388,20.5189,-0.45011,2.35605,0.92285
348.088,20.5403,-0.45966,2.3855,0.9224
348.788,20.56171,-0.47105,2.4193,0.92196
349.488,20.58324,-0.48099,2.45135,0.92151
350.188,20.6047,-0.49335,2.48656,0.92107
350.888,20.62605,-0.5051,2.52347,0.92062
351.588,20.64744,-0.51703,2.56272,0.92018
352.288,20.6688,-0.52998,2.60384,0.91973
352.988,20.6901,-0.54405,2.64386,0.91928
353.688,20.71152,-0.55829,2.68854,0.91883
354.388,20.733,-0.57154,2.73509,0.91838
355.088,20.75437,-0.58672,2.78624,0.91794
355.788,20.77594,-0.60117,2.83608,0.91749
356.488,20.79747,-0.61888,2.8926,0.91704
357.188,20.81895,-0.63351,2.94553,0.91659
357.888,20.8405,-0.65251,3.00632,0.91613
358.588,20.8621,-0.6683,3.06684,0.91568
359.288,20.88351,-0.68905,3.13226,0.91523
359.988,20.90488,-0.70587,3.19931,0.91478
360.688,20.9264,-0.72736,3.26995,0.91433
361.388,20.94787,-0.74774,3.34026,0.91387
362.088,20.96945,-0.77071,3.41506,0.91342
362.788,20.9911,-0.79448,3.49122,0.91296
363.488,21.0127,-0.8178,3.57358,0.91251
364.188,21.03428,-0.84508,3.66121,0.91205
364.888,21.0559,-0.86948,3.74751,0.9116
365.588,21.07754,-0.89954,3.83912,0.91114
366.288,21.0992,-0.92463,3.93354,0.91068
366.988,21.12088,-0.95732,4.02769,0.91023
367.688,21.1425,-0.98491,4.12819,0.90977
368.388,21.16413,-1.01939,4.22962,0.90931
369.088,21.1858,-1.04989,4.33363,0.90885
369.788,21.20743,-1.08557,4.44342,0.90839
370.488,21.22905,-1.12023,4.55312,0.90793
371.188,21.25069,-1.15704,4.66384,0.90747
371.888,21.2724,-1.19622,4.7767,0.90701
372.588,21.29416,-1.2344,4.89179,0.90655
373.288,21.31597,-1.27913,5.01237,0.90609
373.988,21.33766,-1.31745,5.13046,0.90563
374.688,21.35932,-1.36557,5.24853,0.90517
375.388,21.38107,-1.40572,5.367,0.9047
376.088,21.4028,-1.45704,5.48229,0.90424
376.788,21.4248,-1.50239,5.60191,0.90378
377.488,21.44675,-1.55545,5.71623,0.90331
378.188,21.4685,-1.60418,5.82793,0.90285
378.888,21.49022,-1.65672,5.93868,0.90238
379.588,21.51207,-1.70771,6.04092,0.90192
380.288,21.5339,-1.76802,6.13791,0.90145
380.988,21.55588,-1.83825,6.23075,0.90099
381.688,21.57799,-1.89622,6.31644,0.90052
382.388,21.59989,-1.95457,6.39598,0.90005
383.088,21.62173,-2.01377,6.4613,0.89958
383.788,21.6436,-2.07444,6.52028,0.89912
384.488,21.66552,-2.13441,6.56878,0.89865
385.188,21.68734,-2.19502,6.60114,0.89818
385.888,21.7091,-2.25592,6.62063,0.89771
386.588,21.73091,-2.31533,6.63095,0.89724
387.288,21.75255,-2.37527,6.62485,0.89677
387.988,21.7743,-2.435,6.60196,0.8963
388.688,21.79628,-2.495,6.56506,0.89583
389.388,21.81825,-2.55432,6.51266,0.89536
390.088,21.8403,-2.61448,6.44401,0.89488
390.788,21.86232,-2.67315,6.35735,0.89441
391.488,21.88415,-2.73017,6.25941,0.89394
392.188,21.90587,-2.78551,6.13894,0.89346
392.888,21.92754,-2.83929,6.00768,0.89299
393.588,21.9492,-2.89201,5.8584,0.89252
394.288,21.97085,-2.94251,5.68916,0.89204
394.988,21.99249,-2.98703,5.50639,0.89157
395.688,22.01418,-3.0323,5.30483,0.89109
396.388,22.03577,-3.07263,5.09071,0.89061
397.088,22.05738,-3.11799,4.85931,0.89014
397.788,22.07895,-3.15338,4.61465,0.88966
398.488,22.1005,-3.19378,4.35618,0.88918
399.188,22.12194,-3.22424,4.09201,0.88871
399.888,22.14337,-3.25865,3.82174,0.88823
400.588,22.16475,-3.28461,3.54727,0.88775
401.288,22.1861,-3.31205,3.27517,0.88727
401.988,22.20745,-3.33378,3.006,0.88679
402.688,22.22888,-3.35478,2.75035,0.88631
403.388,22.2502,-3.37181,2.50339,0.88583
404.088,22.27147,-3.38609,2.27509,0.88535
404.788,22.29273,-3.399,2.06628,0.88487
405.488,22.31394,-3.40925,1.87338,0.88439
406.188,22.3352,-3.41934,1.70277,0.88391
406.888,22.35644,-3.42585,1.54644,0.88342
407.588,22.37763,-3.4313,1.41215,0.88294
408.288,22.39884,-3.43494,1.29653,0.88246
408.988,22.4201,-3.43837,1.19343,0.88198
409.688,22.44124,-3.44137,1.10506,0.88149
410.388,22.4625,-3.44442,1.0323,0.88101
411.088,22.48388,-3.44854,0.96833,0.88052
411.788,22.50518,-3.45078,0.91617,0.88004
412.488,22.52657,-3.45211,0.86786,0.87955
413.188,22.5479,-3.45249,0.83229,0.87907
413.888,22.56927,-3.454,0.79754,0.87858
414.588,22.59066,-3.45539,0.76949,0.87809
415.288,22.61208,-3.45601,0.74689,0.87761
415.988,22.63355,-3.45703,0.7265,0.87712
416.688,22.65504,-3.45845,0.70803,0.87663
417.388,22.67657,-3.45969,0.69578,0.87614
418.088,22.69813,-3.46058,0.68344,0.87565
418.788,22.71967,-3.46207,0.6724,0.87516
419.488,22.74125,-3.46327,0.66395,0.87468
420.188,22.76275,-3.46472,0.65642,0.87419
420.888,22.78425,-3.46492,0.65079,0.87369
421.588,22.80572,-3.46596,0.64408,0.8732
422.288,22.82724,-3.46739,0.64206,0.87271
422.988,22.8489,-3.46749,0.63602,0.87222
423.688,22.87057,-3.46893,0.62839,0.87173
424.388,22.8922,-3.46978,0.62828,0.87124
425.088,22.91388,-3.47073,0.62354,0.87075
425.788,22.9355,-3.47127,0.62312,0.87025
426.488,22.95712,-3.47258,0.61888,0.86976
427.188,22.97889,-3.47266,0.61719,0.86927
427.888,23.00054,-3.47411,0.61661,0.86877
428.588,23.02219,-3.47518,0.61484,0.86828
429.288,23.04385,-3.47572,0.61195,0.86778
429.988,23.06553,-3.47675,0.60897,0.86729
430.688,23.08728,-3.47705,0.60551,0.86679
431.388,23.10911,-3.47739,0.60203,0.86629
432.088,23.1309,-3.47845,0.60138,0.8658
432.788,23.1526,-3.47942,0.60031,0.8653
433.488,23.17429,-3.47978,0.59761,0.8648
434.188,23.19603,-3.4797,0.59541,0.86431
434.888,23.21786,-3.48111,0.5925,0.86381
435.588,23.23966,-3.48115,0.5891,0.86331
436.288,23.2616,-3.48265,0.58585,0.86281
436.988,23.28344,-3.48366,0.58421,0.86231
437.688,23.3052,-3.48396,0.58183,0.86181
438.388,23.327,-3.48512,0.57844,0.86131
439.088,23.34879,-3.48529,0.57568,0.86081
439.788,23.37063,-3.4853,0.57279,0.86031
440.488,23.39246,-3.48684,0.57138,0.85981
441.188,23.4143,-3.4872,0.56985,0.85931
441.888,23.43609,-3.48804,0.56924,0.85881
442.588,23.45795,-3.48927,0.56782,0.85831
443.288,23.4798,-3.48936,0.5658,0.85781
443.988,23.50165,-3.49076,0.56343,0.8573
444.688,23.52358,-3.49073,0.56365,0.8568
445.388,23.5455,-3.49208,0.56148,0.8563
446.088,23.56736,-3.49251,0.55938,0.85579
446.788,23.58933,-3.49198,0.55817,0.85529
447.488,23.61125,-3.492,0.55748,0.85479
448.188,23.6332,-3.49339,0.55576,0.85428
448.888,23.6552,-3.49325,0.55385,0.85378
449.588,23.6771,-3.49454,0.55409,0.85327
450.288,23.69908,-3.49494,0.55259,0.85276
450.988,23.721,-3.49592,0.55283,0.85226
451.688,23.74297,-3.49587,0.5511,0.85175
452.388,23.76493,-3.49723,0.55214,0.85124
453.088,23.7868,-3.49771,0.55118,0.85074
453.788,23.80884,-3.49868,0.54988,0.85023
454.488,23.83079,-3.50016,0.55085,0.84972
455.188,23.8526,-3.50041,0.5523,0.84921
455.888,23.87453,-3.50145,0.55139,0.84871
456.588,23.89653,-3.50186,0.55129,0.8482
457.288,23.9186,-3.50286,0.55189,0.84769
457.988,23.94077,-3.50366,0.55071,0.84718
458.688,23.96291,-3.50449,0.55014,0.84667
459.388,23.98495,-3.50463,0.54924,0.84616
460.088,24.007,-3.5057,0.54946,0.84565
460.788,24.02899,-3.50681,0.55029,0.84514
461.488,24.0511,-3.50689,0.54993,0.84462
462.188,24.07314,-3.50819,0.55034,0.84411
462.888,24.09519,-3.50846,0.54985,0.8436
463.588,24.11721,-3.50958,0.54942,0.84309
464.288,24.13918,-3.50956,0.54818,0.84258
464.988,24.1613,-3.51088,0.54679,0.84206
465.688,24.18327,-3.51089,0.54879,0.84155
466.388,24.20523,-3.51145,0.54688,0.84104
467.088,24.2273,-3.51219,0.54777,0.84052
467.788,24.24939,-3.51219,0.54628,0.84001
468.488,24.27157,-3.51238,0.54635,0.83949
469.188,24.29382,-3.51354,0.54549,0.83898
469.888,24.31588,-3.51415,0.54465,0.83846
470.588,24.33788,-3.51492,0.54279,0.83795
471.288,24.35989,-3.5165,0.54455,0.83743
471.988,24.38205,-3.51674,0.54258,0.83692
472.688,24.40436,-3.51672,0.54148,0.8364
473.388,24.42665,-3.51639,0.54476,0.83588
474.088,24.449,-3.5179,0.54487,0.83537
474.788,24.47125,-3.51843,0.54379,0.83485
475.488,24.49346,-3.51921,0.5455,0.83433
476.188,24.51566,-3.51959,0.54227,0.83381
476.888,24.53779,-3.52054,0.54135,0.83329
477.588,24.5599,-3.52055,0.54085,0.83278
478.288,24.58204,-3.5219,0.54075,0.83226
478.988,24.60425,-3.52186,0.54068,0.83174
479.688,24.6265,-3.522,0.53951,0.83122
480.388,24.64866,-3.52318,0.54157,0.8307
481.088,24.67089,-3.52314,0.54338,0.83018
481.788,24.69306,-3.52439,0.54238,0.82966
482.488,24.71526,-3.52449,0.54092,0.82914
483.188,24.7376,-3.52449,0.54109,0.82862
483.888,24.75988,-3.52449,0.53921,0.82809
484.588,24.78217,-3.52589,0.5395,0.82757
485.288,24.80445,-3.5258,0.53751,0.82705
485.988,24.8267,-3.52693,0.53744,0.82653
486.688,24.849,-3.52712,0.53882,0.82601
487.388,24.87122,-3.52713,0.53708,0.82548
488.088,24.8935,-3.52851,0.53643,0.82496
488.788,24.9158,-3.5288,0.53673,0.82444
489.488,24.93799,-3.52874,0.53509,0.82391
490.188,24.9602,-3.5301,0.53355,0.82339
490.888,24.98238,-3.53004,0.53446,0.82286
491.588,25.00461,-3.53089,0.53285,0.82234
492.288,25.02684,-3.53237,0.53274,0.82181
492.988,25.0492,-3.53239,0.53119,0.82129
493.688,25.07154,-3.53248,0.53168,0.82076
494.388,25.09378,-3.53388,0.53059,0.82024
495.088,25.11615,-3.53396,0.52909,0.81971
495.788,25.13847,-3.53515,0.52679,0.81919
496.488,25.16081,-3.53514,0.52804,0.81866
497.188,25.18311,-3.53587,0.52607,0.81813
497.888,25.20542,-3.53643,0.5245,0.8176
498.588,25.22772,-3.53667,0.52393,0.81708
499.288,25.24996,-3.53776,0.5239,0.81655
499.988,25.27228,-3.53771,0.52165,0.81602
500.688,25.2945,-3.53903,0.52204,0.81549
501.388,25.31682,-3.53908,0.5198,0.81496
502.088,25.33911,-3.54041,0.52073,0.81443
502.788,25.36145,-3.54042,0.51957,0.81391
503.488,25.38379,-3.5404,0.52038,0.81338
504.188,25.40608,-3.54032,0.51889,0.81285
504.888,25.42847,-3.54172,0.51737,0.81232
505.588,25.4507,-3.54169,0.51994,0.81179
506.288,25.473,-3.54294,0.51827,0.81126
506.988,25.49537,-3.54304,0.51802,0.81072
507.688,25.51764,-3.54304,0.51677,0.81019
508.388,25.54006,-3.54304,0.51543,0.80966
509.088,25.56246,-3.5437,0.51573,0.80913
509.788,25.58488,-3.54433,0.5148,0.8086
510.488,25.60719,-3.54432,0.51607,0.80807
511.188,25.62957,-3.54569,0.51266,0.80753
511.888,25.652,-3.54568,0.513,0.807
512.588,25.6743,-3.54655,0.51344,0.80647
513.288,25.69681,-3.54697,0.51416,0.80593
513.988,25.71921,-3.54699,0.51543,0.8054
514.688,25.74158,-3.54836,0.51647,0.80487
515.388,25.76401,-3.54831,0.51672,0.80433
516.088,25.78639,-3.5483,0.51715,0.8038
516.788,25.80883,-3.54961,0.51607,0.80326
517.488,25.8312,-3.54964,0.51733,0.80273
518.188,25.85345,-3.54968,0.51618,0.80219
518.888,25.87575,-3.55102,0.5172,0.80166
519.588,25.89805,-3.55096,0.51735,0.80112
520.288,25.9205,-3.55158,0.51622,0.80059
520.988,25.9431,-3.55096,0.51474,0.80005
521.688,25.96562,-3.55093,0.51357,0.79952
522.388,25.98819,-3.55219,0.51437,0.79898
523.088,26.01052,-3.55236,0.51329,0.79844
523.788,26.03292,-3.55359,0.51416,0.7979
524.488,26.05537,-3.55358,0.51429,0.79737
525.188,26.07779,-3.55358,0.51207,0.79683
525.888,26.10039,-3.55358,0.51425,0.79629
526.588,26.12293,-3.55358,0.51241,0.79575
527.288,26.1454,-3.55369,0.51117,0.79522
527.988,26.16795,-3.55492,0.51504,0.79468
528.688,26.19042,-3.5549,0.51242,0.79414
529.388,26.2129,-3.55489,0.50912,0.7936
530.088,26.2353,-3.55589,0.50959,0.79306
530.788,26.2578,-3.55621,0.50993,0.79252
531.488,26.2803,-3.55626,0.50939,0.79198
532.188,26.30276,-3.5578,0.50873,0.79144
532.888,26.3253,-3.55817,0.50872,0.7909
533.588,26.3477,-3.55941,0.50856,0.79036
534.288,26.3702,-3.55957,0.50688,0.78982
534.988,26.39275,-3.56014,0.50823,0.78928
535.688,26.4153,-3.56016,0.50586,0.78874
536.388,26.4379,-3.56019,0.50553,0.7882
537.088,26.4604,-3.55887,0.50563,0.78765
537.788,26.483,-3.56022,0.50249,0.78711
538.488,26.50555,-3.56017,0.50217,0.78657
539.188,26.52808,-3.56018,0.50207,0.78603
539.888,26.55064,-3.56095,0.50215,0.78549
540.588,26.57317,-3.56147,0.50387,0.78494
541.288,26.59569,-3.56148,0.50457,0.7844
541.988,26.61826,-3.56148,0.50562,0.78386
542.688,26.6407,-3.56154,0.50762,0.78331
543.388,26.66323,-3.56285,0.5064,0.78277
544.088,26.68583,-3.56282,0.50835,0.78223
544.788,26.7083,-3.56339,0.50802,0.78168
545.488,26.7309,-3.56411,0.51057,0.78114
546.188,26.75344,-3.56412,0.5127,0.78059
546.888,26.7759,-3.56412,0.51275,0.78005
547.588,26.79849,-3.56412,0.51453,0.7795
548.288,26.821,-3.56412,0.51223,0.77896
548.988,26.8436,-3.56491,0.51232,0.77841
549.688,26.86627,-3.56543,0.51492,0.77787
550.388,26.88894,-3.56544,0.51287,0.77732
551.088,26.9116,-3.5663,0.51318,0.77677
551.788,26.93419,-3.56674,0.51305,0.77623
552.488,26.95672,-3.56692,0.51489,0.77568
553.188,26.9793,-3.56807,0.5148,0.77513
553.888,27.0019,-3.56926,0.51599,0.77459
554.588,27.0245,-3.57087,0.51566,0.77404
555.288,27.04713,-3.57224,0.51794,0.77349
555.988,27.0696,-3.57186,0.51778,0.77295
556.688,27.09222,-3.5706,0.51794,0.7724
557.388,27.1147,-3.56917,0.51756,0.77185
558.088,27.1372,-3.57033,0.51829,0.7713
558.788,27.15985,-3.56929,0.51798,0.77075
559.488,27.18239,-3.56928,0.51816,0.7702
560.188,27.2051,-3.56937,0.51844,0.76966
560.888,27.2278,-3.57061,0.51606,0.76911
561.588,27.2506,-3.57197,0.51565,0.76856
562.288,27.27338,-3.57192,0.51641,0.76801
562.988,27.2961,-3.57191,0.51795,0.76746
563.688,27.31878,-3.57191,0.5162,0.76691
564.388,27.3415,-3.57214,0.51478,0.76636
565.088,27.3642,-3.57392,0.51388,0.76581
565.788,27.3868,-3.57389,0.50942,0.76526
566.488,27.40946,-3.57389,0.50958,0.76471
567.188,27.4322,-3.57389,0.50806,0.76416
567.888,27.4548,-3.57389,0.50893,0.76361
568.588,27.47757,-3.57389,0.50508,0.76306
569.288,27.50027,-3.57388,0.50407,0.7625
569.988,27.52295,-3.57486,0.50325,0.76195
570.688,27.54575,-3.5752,0.50078,0.7614
571.388,27.56857,-3.57521,0.49726,0.76085
572.088,27.5913,-3.5753,0.49606,0.7603
572.788,27.61403,-3.57658,0.49304,0.75974
573.488,27.63676,-3.57653,0.48946,0.75919
574.188,27.6595,-3.57653,0.48954,0.75864
574.888,27.6823,-3.57669,0.4899,0.75809
575.588,27.7051,-3.57752,0.48605,0.75753
576.288,27.7279,-3.57751,0.48232,0.75698
576.988,27.7507,-3.57748,0.4817,0.75643
577.688,27.7735,-3.57874,0.47744,0.75587
578.388,27.7963,-3.57883,0.47602,0.75532
579.088,27.81905,-3.57883,0.47594,0.75477
579.788,27.8418,-3.57883,0.47441,0.75421
580.488,27.8645,-3.57881,0.47058,0.75366
581.188,27.8873,-3.5783,0.47005,0.7531
581.888,27.91,-3.57784,0.46933,0.75255
582.588,27.93273,-3.57785,0.46709,0.75199
583.288,27.95549,-3.5782,0.46682,0.75144
583.988,27.9784,-3.57917,0.46629,0.75088
584.688,28.00123,-3.57917,0.46294,0.75033
585.388,28.02409,-3.58056,0.45969,0.74977
586.088,28.04702,-3.58164,0.46032,0.74922
586.788,28.06983,-3.5818,0.45986,0.74866
587.488,28.0927,-3.5818,0.45907,0.74811
588.188,28.11557,-3.5818,0.45676,0.74755
588.888,28.13842,-3.5818,0.45653,0.74699
589.588,28.16125,-3.58176,0.45613,0.74644
590.288,28.18409,-3.58304,0.45573,0.74588
590.988,28.2069,-3.58311,0.45455,0.74532
591.688,28.22966,-3.58311,0.45283,0.74477
592.388,28.2524,-3.58305,0.45268,0.74421
593.088,28.2752,-3.58439,0.4518,0.74365
593.788,28.29818,-3.58443,0.45099,0.7431
594.488,28.32105,-3.58444,0.45063,0.74254
595.188,28.344,-3.58584,0.45084,0.74198
595.888,28.3669,-3.58575,0.4479,0.74142
596.588,28.3897,-3.58575,0.44494,0.74087
597.288,28.4126,-3.58575,0.44481,0.74031
597.988,28.4354,-3.58586,0.44433,0.73975
598.688,28.45835,-3.58708,0.44292,0.73919
599.388,28.48122,-3.5866,0.44331,0.73863
600.088,28.5041,-3.5861,0.44116,0.73807
600.788,28.52705,-3.58609,0.4429,0.73751
601.488,28.5499,-3.58679,0.43868,0.73695
602.188,28.57282,-3.58738,0.43885,0.7364
602.888,28.5957,-3.58739,0.43828,0.73584
603.588,28.6185,-3.58739,0.43694,0.73528
604.288,28.64133,-3.58739,0.43715,0.73472
604.988,28.6643,-3.58739,0.43726,0.73416
605.688,28.68726,-3.58739,0.4352,0.7336
606.388,28.71015,-3.58739,0.43624,0.73304
607.088,28.73315,-3.58739,0.43561,0.73248
607.788,28.75602,-3.58739,0.43479,0.73192
608.488,28.7789,-3.58739,0.43563,0.73136
609.188,28.80187,-3.58881,0.43468,0.7308
609.888,28.82478,-3.59011,0.43605,0.73023
610.588,28.8477,-3.59002,0.43397,0.72967
611.288,28.8706,-3.59002,0.43436,0.72911
611.988,28.89351,-3.59002,0.43511,0.72855
612.688,28.9164,-3.59002,0.43145,0.72799
613.388,28.9393,-3.59002,0.43238,0.72743
614.088,28.9623,-3.59002,0.43268,0.72687
614.788,28.98524,-3.59003,0.43166,0.72631
615.488,29.0082,-3.5906,0.43112,0.72574
616.188,29.0313,-3.59133,0.4306,0.72518
616.888,29.0542,-3.59128,0.43002,0.72462
617.588,29.07718,-3.58999,0.42994,0.72406
618.288,29.10016,-3.59003,0.43221,0.7235
618.988,29.12306,-3.59003,0.43203,0.72293
619.688,29.14607,-3.59003,0.43275,0.72237
620.388,29.16896,-3.59003,0.43367,0.72181
621.088,29.192,-3.59064,0.43406,0.72124
621.788,29.215,-3.59133,0.43509,0.72068
622.488,29.23791,-3.59135,0.43418,0.72012
623.188,29.26095,-3.59132,0.4323,0.71956
623.888,29.2839,-3.59283,0.42836,0.71899
624.588,29.30692,-3.59399,0.43496,0.71843
625.288,29.3299,-3.59397,0.4351,0.71786
625.988,29.3529,-3.59429,0.43405,0.7173
626.688,29.37578,-3.59529,0.43498,0.71674
627.388,29.3987,-3.59529,0.43425,0.71617
628.088,29.4216,-3.59529,0.43211,0.71561
628.788,29.4445,-3.59527,0.43327,0.71504
629.488,29.46749,-3.59476,0.4346,0.71448
630.188,29.49046,-3.59293,0.43529,0.71392
630.888,29.51355,-3.59302,0.43419,0.71335
631.588,29.53653,-3.59447,0.43452,0.71279
632.288,29.5595,-3.59444,0.43508,0.71222
632.988,29.58238,-3.59575,0.43448,0.71166
633.688,29.6053,-3.59574,0.43629,0.71109
634.388,29.6283,-3.59574,0.43529,0.71053
635.088,29.65127,-3.59575,0.43558,0.70996
635.788,29.67432,-3.59622,0.43634,0.7094
636.488,29.69738,-3.59705,0.43722,0.70883
637.188,29.72042,-3.59705,0.4369,0.70827
637.888,29.74343,-3.59705,0.43725,0.7077
638.588,29.76645,-3.597,0.43995,0.70713
639.288,29.78947,-3.59849,0.44034,0.70657
639.988,29.8125,-3.59842,0.43908,0.706
640.688,29.83553,-3.59977,0.4403,0.70544
641.388,29.85847,-3.5998,0.44146,0.70487
642.088,29.8814,-3.5998,0.44461,0.7043
642.788,29.9044,-3.5998,0.44688,0.70374
643.488,29.9273,-3.5998,0.44622,0.70317
644.188,29.9503,-3.5998,0.4469,0.70261
644.888,29.9733,-3.59967,0.44663,0.70204
645.588,29.9963,-3.59948,0.44544,0.70147
646.288,30.0193,-3.59947,0.44393,0.70091
646.988,30.04233,-3.59882,0.44559,0.70034
647.688,30.06536,-3.59818,0.44882,0.69977
648.388,30.0884,-3.59846,0.45027,0.6992
649.088,30.1113,-3.59894,0.45204,0.69864
649.788,30.1341,-3.60062,0.44996,0.69807
650.488,30.15708,-3.601,0.4509,0.6975
651.188,30.17995,-3.60059,0.45188,0.69694
651.888,30.20298,-3.59951,0.45101,0.69637
652.588,30.22614,-3.59944,0.45131,0.6958
653.288,30.2491,-3.59935,0.4516,0.69523
653.988,30.2722,-3.59935,0.44989,0.69466
654.688,30.29522,-3.59935,0.45002,0.6941
655.388,30.3181,-3.59935,0.44634,0.69353
656.088,30.34113,-3.59936,0.44551,0.69296
656.788,30.36417,-3.60076,0.44685,0.69239
657.488,30.38723,-3.60067,0.44594,0.69182
658.188,30.41033,-3.60067,0.4449,0.69126
658.888,30.4334,-3.6006,0.44581,0.69069
659.588,30.4564,-3.6024,0.44509,0.69012
660.288,30.4794,-3.60331,0.44308,0.68955
660.988,30.50243,-3.60331,0.44066,0.68898
661.688,30.5255,-3.60331,0.44063,0.68841
662.388,30.5485,-3.60331,0.4415,0.68784
663.088,30.57149,-3.60331,0.44286,0.68728
663.788,30.5946,-3.60339,0.44235,0.68671
664.488,30.6176,-3.60466,0.4402,0.68614
665.188,30.64061,-3.60463,0.44252,0.68557
665.888,30.66364,-3.60463,0.43934,0.685
666.588,30.68662,-3.60463,0.44156,0.68443
667.288,30.7096,-3.60463,0.44349,0.68386
667.988,30.73265,-3.60463,0.44113,0.68329
668.688,30.7555,-3.60463,0.44179,0.68272
669.388,30.7786,-3.60463,0.44156,0.68215
670.088,30.8017,-3.60463,0.44228,0.68158
670.788,30.82481,-3.60463,0.44251,0.68101
671.488,30.8481,-3.60463,0.4416,0.68044
672.188,30.8712,-3.60464,0.44445,0.67987
672.888,30.89426,-3.60497,0.44282,0.67931
673.588,30.9173,-3.60536,0.44516,0.67874
674.288,30.94035,-3.60397,0.44474,0.67817
674.988,30.9634,-3.60397,0.44363,0.6776
675.688,30.98637,-3.60397,0.44357,0.67703
676.388,31.00941,-3.60397,0.44375,0.67646
677.088,31.0326,-3.6033,0.44707,0.67589
677.788,31.0557,-3.60393,0.44773,0.67532
678.488,31.07875,-3.60473,0.44946,0.67474
679.188,31.10189,-3.60638,0.45165,0.67417
679.888,31.125,-3.60636,0.44865,0.6736
680.588,31.1481,-3.60886,0.44932,0.67303
681.288,31.1714,-3.60892,0.44847,0.67246
681.988,31.19445,-3.60897,0.44921,0.67189
682.688,31.2175,-3.60772,0.44952,0.67132
683.388,31.24063,-3.60626,0.44916,0.67075
684.088,31.26377,-3.60627,0.44995,0.67018
684.788,31.28687,-3.60627,0.45025,0.66961
685.488,31.31,-3.60627,0.45124,0.66904
686.188,31.3331,-3.60627,0.4529,0.66847
686.888,31.35615,-3.60627,0.45071,0.6679
687.588,31.37927,-3.60627,0.44974,0.66733
688.288,31.4024,-3.60629,0.44983,0.66676
688.988,31.4254,-3.60691,0.45261,0.66618
689.688,31.44854,-3.60726,0.45296,0.66561
690.388,31.47164,-3.60727,0.4509,0.66504
691.088,31.4948,-3.60745,0.45148,0.66447
691.788,31.518,-3.60759,0.45241,0.6639
692.488,31.5411,-3.60759,0.4517,0.66333
693.188,31.5643,-3.60759,0.44983,0.66276
693.888,31.58735,-3.6076,0.45053,0.66219
694.588,31.61052,-3.60836,0.45045,0.66162
695.288,31.63365,-3.6089,0.45146,0.66104
695.988,31.6567,-3.60893,0.45146,0.66047
696.688,31.6799,-3.60995,0.45259,0.6599
697.388,31.70294,-3.61022,0.45054,0.65933
698.088,31.72605,-3.61022,0.45016,0.65876
698.788,31.7491,-3.61022,0.45172,0.65819
699.488,31.7722,-3.61028,0.45193,0.65762
700.188,31.79547,-3.60894,0.45265,0.65704
700.888,31.8186,-3.60891,0.45347,0.65647
701.588,31.84191,-3.60831,0.45368,0.6559
702.288,31.8651,-3.60762,0.45239,0.65533
702.988,31.8882,-3.6076,0.45468,0.65476
703.688,31.9114,-3.60761,0.45651,0.65419
704.388,31.93455,-3.60789,0.4548,0.65361
705.088,31.95767,-3.60892,0.45499,0.65304
705.788,31.98088,-3.60891,0.45469,0.65247
706.488,32.0041,-3.60892,0.45601,0.6519
707.188,32.02726,-3.60793,0.45859,0.65133
707.888,32.05052,-3.60889,0.45688,0.65075
708.588,32.07371,-3.60891,0.45561,0.65018
709.288,32.0969,-3.60891,0.45815,0.64961
709.988,32.12011,-3.60891,0.45698,0.64904
710.688,32.1433,-3.60891,0.45914,0.64847
711.388,32.16653,-3.60891,0.46109,0.64789
712.088,32.1897,-3.60891,0.46217,0.64732
712.788,32.2129,-3.60891,0.46149,0.64675
713.488,32.23614,-3.60891,0.46111,0.64618
714.188,32.25932,-3.60925,0.46313,0.64561
714.888,32.28265,-3.6102,0.4647,0.64503
715.588,32.30592,-3.61023,0.46587,0.64446
716.288,32.32914,-3.61023,0.46582,0.64389
716.988,32.35239,-3.61023,0.46604,0.64332
717.688,32.37559,-3.61018,0.46659,0.64275
718.388,32.3989,-3.61154,0.46657,0.64217
719.088,32.42217,-3.61155,0.46638,0.6416
719.788,32.4454,-3.61155,0.46566,0.64103
720.488,32.46863,-3.61156,0.46485,0.64046
721.188,32.49183,-3.61264,0.46604,0.63988
721.888,32.51509,-3.61245,0.46576,0.63931
722.588,32.53836,-3.61385,0.46313,0.63874
723.288,32.56163,-3.61385,0.46284,0.63817
723.988,32.58488,-3.61385,0.46153,0.6376
724.688,32.60792,-3.61384,0.46124,0.63702
725.388,32.6312,-3.61303,0.46251,0.63645
726.088,32.65441,-3.61255,0.46288,0.63588
726.788,32.6777,-3.61255,0.46322,0.63531
727.488,32.70117,-3.61289,0.46271,0.63473
728.188,32.72448,-3.61286,0.46596,0.63416
728.888,32.7478,-3.61286,0.46624,0.63359
729.588,32.7711,-3.61425,0.4671,0.63302
730.288,32.79436,-3.61506,0.46542,0.63245
730.988,32.81766,-3.61549,0.46635,0.63187
731.688,32.84089,-3.61629,0.46688,0.6313
732.388,32.86419,-3.6168,0.46286,0.63073
733.088,32.88748,-3.61681,0.46317,0.63016
733.788,32.91075,-3.61681,0.46233,0.62958
734.488,32.93401,-3.61681,0.46411,0.62901
735.188,32.95733,-3.61681,0.46544,0.62844
735.888,32.98065,-3.61676,0.46776,0.62787
736.588,33.00397,-3.61686,0.46555,0.6273
737.288,33.02733,-3.61682,0.46313,0.62672
737.988,33.05065,-3.61682,0.46288,0.62615
738.688,33.07397,-3.61682,0.46384,0.62558
739.388,33.09725,-3.61683,0.46232,0.62501
740.088,33.12052,-3.61673,0.46236,0.62444
740.788,33.14389,-3.61549,0.46078,0.62386
741.488,33.1672,-3.6155,0.46282,0.62329
742.188,33.1905,-3.6155,0.46505,0.62272
742.888,33.21382,-3.6155,0.46542,0.62215
743.588,33.23706,-3.6155,0.46035,0.62158
744.288,33.26035,-3.6155,0.46169,0.621
744.988,33.28375,-3.61559,0.46174,0.62043
745.688,33.30717,-3.61419,0.46114,0.61986
746.388,33.33048,-3.61463,0.46156,0.61929
747.088,33.35383,-3.61547,0.46223,0.61872
747.788,33.3772,-3.61549,0.46157,0.61814
748.488,33.40045,-3.61594,0.4625,0.61757
749.188,33.42378,-3.61678,0.46327,0.617
749.888,33.4471,-3.61679,0.4647,0.61643
750.588,33.4704,-3.61573,0.46382,0.61586
751.288,33.49365,-3.61549,0.46175,0.61528
751.988,33.51702,-3.61549,0.46084,0.61471
752.688,33.5404,-3.61549,0.46109,0.61414
753.388,33.56374,-3.61549,0.46132,0.61357
754.088,33.58719,-3.61549,0.46463,0.613
754.788,33.61053,-3.61549,0.46455,0.61243
755.488,33.63388,-3.6155,0.46412,0.61185
756.188,33.65703,-3.616,0.46161,0.61128
756.888,33.6802,-3.61648,0.46056,0.61071
757.588,33.7036,-3.61649,0.46176,0.61014
758.288,33.72692,-3.61675,0.4597,0.60957
758.988,33.75046,-3.61681,0.46037,0.609
759.688,33.7739,-3.61682,0.4603,0.60842
760.388,33.79723,-3.61706,0.46356,0.60785
761.088,33.8206,-3.61747,0.46313,0.60728
761.788,33.84389,-3.61779,0.46346,0.60671
762.488,33.86732,-3.6182,0.46151,0.60614
763.188,33.89069,-3.61682,0.46385,0.60557
763.888,33.914,-3.61707,0.46544,0.605
764.588,33.93739,-3.61815,0.46483,0.60442
765.288,33.9607,-3.61813,0.46335,0.60385
765.988,33.984,-3.61807,0.46404,0.60328
766.688,34.00734,-3.6188,0.46288,0.60271
767.388,34.03068,-3.61878,0.46026,0.60214
768.088,34.05404,-3.61878,0.4623,0.60157
768.788,34.0774,-3.61878,0.46587,0.601
769.488,34.10082,-3.61878,0.46455,0.60043
770.188,34.1241,-3.6188,0.46488,0.59986
770.888,34.14744,-3.61961,0.46403,0.59929
771.588,34.1708,-3.6201,0.468,0.59872
772.288,34.19415,-3.6201,0.46502,0.59814
772.988,34.2176,-3.6201,0.46248,0.59757
773.688,34.241,-3.62012,0.46453,0.597
774.388,34.2643,-3.61937,0.46444,0.59643
775.088,34.28764,-3.61942,0.46592,0.59586
775.788,34.31091,-3.61834,0.46412,0.59529
776.488,34.33424,-3.61813,0.46561,0.59472
777.188,34.35759,-3.61813,0.46525,0.59415
777.888,34.38097,-3.61813,0.46773,0.59358
778.588,34.40435,-3.61814,0.46598,0.59301
779.288,34.42776,-3.61867,0.46794,0.59244
779.988,34.45114,-3.61944,0.47052,0.59187
780.688,34.4745,-3.61945,0.4683,0.5913
781.388,34.49792,-3.61947,0.46816,0.59073
782.088,34.52126,-3.62059,0.46743,0.59016
782.788,34.54453,-3.62077,0.47108,0.58959
783.488,34.56791,-3.62077,0.47206,0.58902
784.188,34.59133,-3.62077,0.46765,0.58845
784.888,34.61475,-3.61985,0.47088,0.58788
785.588,34.63824,-3.61945,0.47065,0.58731
786.288,34.66167,-3.61945,0.46792,0.58674
786.988,34.68506,-3.61945,0.46859,0.58617
787.688,34.7085,-3.61943,0.4698,0.5856
788.388,34.7319,-3.62081,0.46957,0.58503
789.088,34.75533,-3.62076,0.4689,0.58446
789.788,34.77875,-3.62076,0.47024,0.58389
790.488,34.80215,-3.62076,0.47103,0.58332
791.188,34.82555,-3.62076,0.47098,0.58275
791.888,34.84892,-3.62107,0.47435,0.58219
792.588,34.8724,-3.62205,0.47212,0.58162
793.288,34.89582,-3.62208,0.47065,0.58105
793.988,34.91923,-3.62208,0.46936,0.58048
794.688,34.94262,-3.62208,0.46896,0.57991
795.388,34.96602,-3.62207,0.47187,0.57934
796.088,34.98943,-3.62341,0.47206,0.57877
796.288,34.9963,-3.62348,0.47284,0.57861