File: 01_Data/Feather_PillowA_Cover/STA/N2/30K_min/Feather_Pillow_Cover_STA_N2_30KData_2226_R3.csv
##Temp./Â°C,Time/min,Mass loss(subtr.2)/mg,DSC(subtr.2)/(mW/mg),Sensit./(uV/mW)
48.525,10.00917,-0.00658,0.02358389,1.05401
49.225,10.55702,-0.004924774,0.06808111,1.05387
49.925,10.68213,-0.004211233,0.10844,1.05373
50.625,10.77215,-0.003580963,0.14205,1.05358
51.325,10.846,-0.002932089,0.174,1.05344
52.025,10.9093,-0.0049209,0.20284,1.05329
52.725,10.96622,-0.00471249,0.23372,1.05315
53.425,11.01782,-0.003369454,0.25605,1.053
54.125,11.06585,-0.004135,0.28225,1.05285
54.825,11.1111,-0.003573958,0.30578,1.0527
55.525,11.1538,-0.004432523,0.32713,1.05255
56.225,11.19476,-0.003820175,0.34856,1.0524
56.925,11.2339,-0.004088741,0.36905,1.05225
57.625,11.27162,-0.004018248,0.38951,1.0521
58.325,11.30792,-0.00276633,0.41091,1.05194
59.025,11.34335,-0.003823572,0.42874,1.05179
59.725,11.37767,-0.005052545,0.4455,1.05163
60.425,11.41103,-0.00363632,0.46737,1.05148
61.125,11.44374,-0.003192222,0.48247,1.05132
61.825,11.47579,-0.004019435,0.49802,1.05116
62.525,11.5072,-0.00490361,0.51426,1.05101
63.225,11.53791,-0.004415877,0.53195,1.05085
63.925,11.5682,-0.003941403,0.5468,1.05068
64.625,11.59796,-0.004702296,0.55986,1.05052
65.325,11.6272,-0.005130696,0.57743,1.05036
66.025,11.65622,-0.004766294,0.59119,1.0502
66.725,11.68502,-0.00457162,0.60468,1.05003
67.425,11.7136,-0.004726048,0.61833,1.04987
68.125,11.74156,-0.005023377,0.63257,1.0497
68.825,11.76939,-0.00526029,0.64668,1.04954
69.525,11.79683,-0.004970368,0.65793,1.04937
70.225,11.8245,-0.004913393,0.6686,1.0492
70.925,11.85175,-0.005842825,0.68222,1.04903
71.625,11.87871,-0.006500385,0.69688,1.04886
72.325,11.90519,-0.005569236,0.70815,1.04869
73.025,11.93165,-0.00573997,0.7187,1.04852
73.725,11.95801,-0.005699556,0.73189,1.04835
74.425,11.98442,-0.00605956,0.74144,1.04817
75.125,12.01084,-0.00676407,0.75473,1.048
75.825,12.03695,-0.00680039,0.76375,1.04782
76.525,12.06272,-0.00640452,0.77578,1.04765
77.225,12.08826,-0.006770408,0.78788,1.04747
77.925,12.11377,-0.007248674,0.79748,1.04729
78.625,12.13927,-0.008541696,0.80736,1.04711
79.325,12.16458,-0.008863766,0.81738,1.04693
80.025,12.18989,-0.008418145,0.82943,1.04675
80.725,12.21514,-0.007232555,0.83961,1.04657
81.425,12.24028,-0.008664114,0.84878,1.04639
82.125,12.26533,-0.008134426,0.85891,1.0462
82.825,12.29012,-0.008982242,0.87057,1.04602
83.525,12.31484,-0.008955601,0.87953,1.04583
84.225,12.33941,-0.009978447,0.88788,1.04565
84.925,12.36407,-0.009715975,0.89725,1.04546
85.625,12.38872,-0.01006956,0.90603,1.04527
86.325,12.4132,-0.01031719,0.91629,1.04509
87.025,12.4377,-0.01042128,0.92631,1.0449
87.725,12.46198,-0.01149944,0.935,1.04471
88.425,12.48623,-0.01162391,0.94478,1.04452
89.125,12.51019,-0.01094213,0.95439,1.04432
89.825,12.53402,-0.01153057,0.95953,1.04413
90.525,12.5581,-0.01240876,0.9686,1.04394
91.225,12.5821,-0.01282772,0.97713,1.04374
91.925,12.60633,-0.01236448,0.98284,1.04355
92.625,12.63048,-0.01288063,0.99037,1.04335
93.325,12.65435,-0.01284393,0.99773,1.04315
94.025,12.6782,-0.01283687,1.00655,1.04296
94.725,12.70205,-0.0130736,1.01141,1.04276
95.425,12.72582,-0.01416142,1.01683,1.04256
96.125,12.74964,-0.01417349,1.02399,1.04236
96.825,12.77339,-0.01515787,1.02888,1.04216
97.525,12.79711,-0.01417982,1.03347,1.04195
98.225,12.82083,-0.01527047,1.04055,1.04175
98.925,12.84446,-0.01547833,1.04729,1.04155
99.625,12.86801,-0.01547996,1.04997,1.04134
100.325,12.89155,-0.01548067,1.05198,1.04114
101.025,12.91509,-0.01549969,1.05635,1.04093
101.725,12.93862,-0.01769798,1.06047,1.04072
102.425,12.96229,-0.01811044,1.06305,1.04052
103.125,12.98584,-0.01915192,1.06549,1.04031
103.825,13.00935,-0.01943062,1.06813,1.0401
104.525,13.03278,-0.0193955,1.06899,1.03989
105.225,13.0562,-0.0206669,1.07385,1.03968
105.925,13.07967,-0.01941685,1.0729,1.03946
106.625,13.1031,-0.01942648,1.07486,1.03925
107.325,13.1265,-0.01942983,1.07571,1.03904
108.025,13.14985,-0.01943023,1.07347,1.03882
108.725,13.1731,-0.01945054,1.07577,1.03861
109.425,13.19621,-0.02012611,1.07422,1.03839
110.125,13.2195,-0.02073975,1.07622,1.03817
110.825,13.24285,-0.02075017,1.07706,1.03796
111.525,13.2663,-0.02116173,1.07324,1.03774
112.225,13.2898,-0.02207751,1.07534,1.03752
112.925,13.3132,-0.02343093,1.07472,1.0373
113.625,13.3365,-0.02338193,1.07415,1.03708
114.325,13.35992,-0.02337997,1.06944,1.03685
115.025,13.38318,-0.02337999,1.06721,1.03663
115.725,13.4065,-0.02337997,1.06737,1.03641
116.425,13.42968,-0.02338016,1.06361,1.03618
117.125,13.4528,-0.02339889,1.06233,1.03596
117.825,13.47599,-0.02404962,1.05899,1.03573
118.525,13.4992,-0.0247,1.05808,1.0355
119.225,13.52234,-0.02469985,1.05783,1.03528
119.925,13.5455,-0.0246995,1.0545,1.03505
120.625,13.5686,-0.02469791,1.0511,1.03482
121.325,13.5917,-0.0248929,1.04635,1.03459
122.025,13.61459,-0.02601657,1.04692,1.03436
122.725,13.63755,-0.02601016,1.04408,1.03412
123.425,13.66059,-0.02601,1.0392,1.03389
124.125,13.6836,-0.02601025,1.03698,1.03366
124.825,13.70669,-0.02601786,1.03402,1.03342
125.525,13.72965,-0.02602002,1.03366,1.03319
126.225,13.7525,-0.02601967,1.02801,1.03295
126.925,13.77532,-0.02601315,1.0279,1.03272
127.625,13.7981,-0.02596956,1.02744,1.03248
128.325,13.82085,-0.02733518,1.02507,1.03224
129.025,13.8437,-0.02733039,1.01919,1.032
129.725,13.8665,-0.02732831,1.01861,1.03176
130.425,13.8893,-0.02733236,1.01653,1.03152
131.125,13.91206,-0.02616436,1.0157,1.03128
131.825,13.9348,-0.02602163,1.0137,1.03104
132.525,13.9573,-0.02601984,1.01194,1.03079
133.225,13.97984,-0.02602163,1.01,1.03055
133.925,14.0024,-0.0261699,1.00998,1.0303
134.625,14.0249,-0.02737208,1.00735,1.03006
135.325,14.04768,-0.02733099,1.00641,1.02981
136.025,14.0703,-0.02733033,1.00732,1.02956
136.725,14.093,-0.0273665,1.00315,1.02932
137.425,14.1155,-0.02869185,1.0059,1.02907
138.125,14.13807,-0.02774226,1.00623,1.02882
138.825,14.16065,-0.02765219,1.00256,1.02857
139.525,14.18309,-0.0275361,1.00618,1.02832
140.225,14.20554,-0.0273369,1.00312,1.02806
140.925,14.2279,-0.02733016,1.00186,1.02781
141.625,14.25029,-0.02732999,1.0048,1.02756
142.325,14.2726,-0.02733,1.00423,1.0273
143.025,14.295,-0.02733,1.00803,1.02705
143.725,14.31732,-0.02733,1.00739,1.02679
144.425,14.33956,-0.02733,1.01058,1.02654
145.125,14.36178,-0.02733,1.01057,1.02628
145.825,14.38396,-0.02733,1.01444,1.02602
146.525,14.40611,-0.02733003,1.0137,1.02576
147.225,14.4283,-0.0273302,1.0161,1.0255
147.925,14.45054,-0.02732291,1.0176,1.02524
148.625,14.47272,-0.02593201,1.01856,1.02498
149.325,14.49495,-0.02655477,1.02082,1.02472
150.025,14.5171,-0.0273325,1.02255,1.02445
150.725,14.53921,-0.02733,1.02403,1.02419
151.425,14.5613,-0.02732999,1.02689,1.02392
152.125,14.58339,-0.02733,1.02673,1.02366
152.825,14.6055,-0.02733,1.03214,1.02339
153.525,14.62757,-0.02733002,1.03373,1.02313
154.225,14.64959,-0.02732989,1.03494,1.02286
154.925,14.6716,-0.02731947,1.0347,1.02259
155.625,14.6936,-0.02701277,1.04069,1.02232
156.325,14.71556,-0.02703916,1.04096,1.02205
157.025,14.73756,-0.02700119,1.04509,1.02178
157.725,14.7595,-0.02699999,1.04714,1.02151
158.425,14.78159,-0.02699999,1.04889,1.02124
159.125,14.80344,-0.02699997,1.0527,1.02096
159.825,14.82536,-0.02699951,1.05404,1.02069
160.525,14.8474,-0.02699477,1.05639,1.02041
161.225,14.8693,-0.0270067,1.05922,1.02014
161.925,14.89139,-0.02831072,1.06075,1.01986
162.625,14.91344,-0.02690213,1.06286,1.01959
163.325,14.9352,-0.0269945,1.06571,1.01931
164.025,14.95711,-0.0269998,1.0701,1.01903
164.725,14.97895,-0.027,1.07322,1.01875
165.425,15.00071,-0.027,1.07364,1.01847
166.125,15.02261,-0.027,1.07843,1.01819
166.825,15.04445,-0.027,1.08133,1.01791
167.525,15.0662,-0.027,1.08328,1.01763
168.225,15.08813,-0.027,1.08581,1.01734
168.925,15.1099,-0.027,1.08813,1.01706
169.625,15.13154,-0.027,1.09257,1.01677
170.325,15.1532,-0.027,1.09492,1.01649
171.025,15.17489,-0.027,1.09718,1.0162
171.725,15.1965,-0.027,1.09881,1.01592
172.425,15.2184,-0.027,1.10422,1.01563
173.125,15.24029,-0.027,1.1046,1.01534
173.825,15.262,-0.02699991,1.10941,1.01505
174.525,15.2837,-0.02699813,1.11202,1.01476
175.225,15.30548,-0.02697025,1.11288,1.01447
175.925,15.3272,-0.02757932,1.11519,1.01418
176.625,15.3489,-0.02897079,1.11791,1.01389
177.325,15.37055,-0.02898276,1.12214,1.0136
178.025,15.3921,-0.02899,1.1255,1.0133
178.725,15.4137,-0.02832258,1.12703,1.01301
179.425,15.43524,-0.02800287,1.12879,1.01271
180.125,15.4568,-0.02799056,1.13241,1.01242
180.825,15.47838,-0.02799001,1.13694,1.01212
181.525,15.4999,-0.02799,1.1388,1.01182
182.225,15.52135,-0.02799,1.13927,1.01153
182.925,15.54284,-0.02799,1.14336,1.01123
183.625,15.56432,-0.02799,1.14828,1.01093
184.325,15.58579,-0.02799,1.14831,1.01063
185.025,15.60728,-0.02799,1.15106,1.01033
185.725,15.6287,-0.02799,1.15217,1.01003
186.425,15.6502,-0.02799,1.15605,1.00972
187.125,15.67159,-0.02799001,1.15951,1.00942
187.825,15.69302,-0.02799024,1.16142,1.00912
188.525,15.7145,-0.02799424,1.16301,1.00881
189.225,15.7359,-0.0280507,1.16691,1.00851
189.925,15.75734,-0.02702373,1.16847,1.0082
190.625,15.7787,-0.02700031,1.17033,1.00789
191.325,15.8002,-0.02699996,1.17313,1.00759
192.025,15.82148,-0.02699999,1.17543,1.00728
192.725,15.84273,-0.02699997,1.17527,1.00697
193.425,15.8639,-0.02699953,1.17892,1.00666
194.125,15.8852,-0.02699286,1.18067,1.00635
194.825,15.90661,-0.02811816,1.18465,1.00604
195.525,15.92801,-0.02831451,1.18642,1.00573
196.225,15.9495,-0.02832008,1.18792,1.00541
196.925,15.97083,-0.02832,1.19137,1.0051
197.625,15.9922,-0.02831939,1.19285,1.00479
198.325,16.01352,-0.02830816,1.1948,1.00447
199.025,16.0349,-0.0280066,1.19548,1.00416
199.725,16.05615,-0.0269685,1.20043,1.00384
200.425,16.0774,-0.02699871,1.20089,1.00352
201.125,16.09864,-0.02699998,1.20492,1.00321
201.825,16.1199,-0.027,1.20583,1.00289
202.525,16.1411,-0.027,1.20507,1.00257
203.225,16.16242,-0.02700005,1.21161,1.00225
203.925,16.18369,-0.02700088,1.21056,1.00193
204.625,16.20502,-0.02701384,1.21392,1.00161
205.325,16.2263,-0.0274242,1.21637,1.00129
206.025,16.2475,-0.02833632,1.21886,1.00097
206.725,16.26874,-0.02832026,1.21895,1.00064
207.425,16.28999,-0.02831997,1.22433,1.00032
208.125,16.31118,-0.02831999,1.22419,0.99999
208.825,16.33238,-0.02831998,1.2247,0.99967
209.525,16.35357,-0.02831957,1.22723,0.99934
210.225,16.37474,-0.02831317,1.22867,0.99902
210.925,16.39599,-0.02822479,1.23053,0.99869
211.625,16.4172,-0.02962733,1.23276,0.99836
212.325,16.4385,-0.02963977,1.23723,0.99803
213.025,16.4597,-0.02964001,1.23715,0.9977
213.725,16.48088,-0.02963996,1.23753,0.99737
214.425,16.50208,-0.02963074,1.23956,0.99704
215.125,16.5232,-0.02797881,1.24206,0.99671
215.825,16.5444,-0.028094,1.24446,0.99638
216.525,16.5656,-0.02812553,1.24576,0.99605
217.225,16.58683,-0.02886208,1.24799,0.99571
217.925,16.608,-0.02942115,1.24987,0.99538
218.625,16.62923,-0.0294203,1.25196,0.99504
219.325,16.65046,-0.02951706,1.2521,0.99471
220.025,16.67161,-0.03038454,1.2544,0.99437
220.725,16.69278,-0.03040797,1.25588,0.99403
221.425,16.7139,-0.03040986,1.25716,0.9937
222.125,16.735,-0.03040999,1.25956,0.99336
222.825,16.75617,-0.03041,1.2602,0.99302
223.525,16.77733,-0.03041,1.26172,0.99268
224.225,16.7985,-0.03041001,1.26486,0.99234
224.925,16.81964,-0.03040985,1.26502,0.992
225.625,16.84081,-0.03040181,1.26684,0.99166
226.325,16.86197,-0.03085574,1.2698,0.99131
227.025,16.8832,-0.03107061,1.27127,0.99097
227.725,16.9043,-0.03124029,1.27268,0.99063
228.425,16.92543,-0.03138685,1.27834,0.99028
229.125,16.94652,-0.03249948,1.27865,0.98994
229.825,16.9676,-0.03270183,1.2794,0.98959
230.525,16.98868,-0.03270873,1.27913,0.98925
231.225,17.00981,-0.03233722,1.28343,0.9889
231.925,17.03099,-0.03169866,1.28479,0.98855
232.625,17.05208,-0.03289844,1.28513,0.9882
233.325,17.0732,-0.03303816,1.28745,0.98785
234.025,17.09431,-0.0330399,1.29089,0.9875
234.725,17.11538,-0.03304027,1.2909,0.98715
235.425,17.1364,-0.03304362,1.29165,0.9868
236.125,17.15754,-0.03174121,1.29424,0.98645
236.825,17.17861,-0.03161284,1.29554,0.9861
237.525,17.19973,-0.03160916,1.2972,0.98575
238.225,17.22083,-0.03157925,1.30116,0.98539
238.925,17.24196,-0.03278671,1.30065,0.98504
239.625,17.2631,-0.03305216,1.3027,0.98468
240.325,17.28412,-0.03326394,1.30375,0.98433
241.025,17.3052,-0.03360029,1.30566,0.98397
241.725,17.32624,-0.03461046,1.30957,0.98361
242.425,17.34724,-0.0345814,1.30933,0.98326
243.125,17.36836,-0.03458009,1.31094,0.9829
243.825,17.38942,-0.0345797,1.3125,0.98254
244.525,17.41052,-0.03455542,1.31736,0.98218
245.225,17.43169,-0.03573648,1.31927,0.98182
245.925,17.4527,-0.03588841,1.31837,0.98146
246.625,17.4738,-0.03588943,1.324,0.9811
247.325,17.49492,-0.03588291,1.32586,0.98074
248.025,17.51595,-0.03579134,1.32653,0.98037
248.725,17.53698,-0.03704691,1.32975,0.98001
249.425,17.55803,-0.03666897,1.33281,0.97964
250.125,17.57904,-0.03764162,1.33147,0.97928
250.825,17.6,-0.03765323,1.3359,0.97891
251.525,17.62104,-0.03765024,1.33887,0.97855
252.225,17.64211,-0.03764589,1.33839,0.97818
252.925,17.6631,-0.0383886,1.34135,0.97781
253.625,17.68415,-0.03894587,1.34342,0.97745
254.325,17.7052,-0.0389685,1.346,0.97708
255.025,17.7262,-0.03896945,1.349,0.97671
255.725,17.74726,-0.03896464,1.35059,0.97634
256.425,17.76833,-0.03892921,1.35032,0.97597
257.125,17.78937,-0.04028087,1.35314,0.9756
257.825,17.81043,-0.04028063,1.35516,0.97523
258.525,17.83152,-0.04028896,1.35819,0.97485
259.225,17.8525,-0.0404968,1.35973,0.97448
259.925,17.87351,-0.04284196,1.35999,0.97411
260.625,17.89454,-0.04291227,1.36215,0.97373
261.325,17.91552,-0.04392878,1.36474,0.97336
262.025,17.93656,-0.04423945,1.36503,0.97298
262.725,17.9576,-0.04477321,1.36621,0.97261
263.425,17.97863,-0.0455722,1.36681,0.97223
264.125,17.9997,-0.04489506,1.36805,0.97185
264.825,18.0206,-0.04627054,1.36972,0.97148
265.525,18.04158,-0.04621419,1.37184,0.9711
266.225,18.06263,-0.04617455,1.37149,0.97072
266.925,18.08369,-0.04723269,1.37386,0.97034
267.625,18.10481,-0.04751872,1.37202,0.96996
268.325,18.1259,-0.04753621,1.37521,0.96958
269.025,18.14692,-0.04776688,1.37625,0.96919
269.725,18.1679,-0.04819402,1.37569,0.96881
270.425,18.18894,-0.04818432,1.37623,0.96843
271.125,18.20996,-0.04975984,1.37565,0.96805
271.825,18.23106,-0.05025972,1.37738,0.96766
272.525,18.25209,-0.05112278,1.38028,0.96728
273.225,18.2731,-0.05114802,1.38278,0.96689
273.925,18.29419,-0.05115062,1.38351,0.96651
274.625,18.31513,-0.05116132,1.38765,0.96612
275.325,18.33612,-0.05152439,1.38703,0.96573
276.025,18.35717,-0.05298614,1.38976,0.96535
276.725,18.37826,-0.05458394,1.39004,0.96496
277.425,18.39931,-0.05609994,1.39284,0.96457
278.125,18.42039,-0.05657133,1.39394,0.96418
278.825,18.44143,-0.05781454,1.39691,0.96379
279.525,18.46246,-0.0594546,1.40065,0.9634
280.225,18.48353,-0.06017288,1.40104,0.96301
280.925,18.5046,-0.06063256,1.40124,0.96261
281.625,18.52571,-0.06200329,1.4053,0.96222
282.325,18.54678,-0.06218646,1.40838,0.96183
283.025,18.56786,-0.0636061,1.40932,0.96144
283.725,18.5889,-0.06365627,1.41284,0.96104
284.425,18.60999,-0.06499501,1.41628,0.96065
285.125,18.63103,-0.06506223,1.4164,0.96025
285.825,18.6521,-0.06632206,1.41861,0.95986
286.525,18.67313,-0.06733603,1.42348,0.95946
287.225,18.69419,-0.06797042,1.42563,0.95906
287.925,18.71529,-0.06923424,1.42629,0.95866
288.625,18.7363,-0.06986031,1.42873,0.95827
289.325,18.7574,-0.07060693,1.43149,0.95787
290.025,18.77851,-0.07160989,1.43468,0.95747
290.725,18.79955,-0.07214688,1.43753,0.95707
291.425,18.82065,-0.07388913,1.44003,0.95667
292.125,18.84178,-0.07570925,1.44079,0.95627
292.825,18.86289,-0.07703181,1.44265,0.95586
293.525,18.88394,-0.07758592,1.44539,0.95546
294.225,18.90506,-0.0785097,1.45138,0.95506
294.925,18.92612,-0.08009622,1.45053,0.95465
295.625,18.94714,-0.08158295,1.45517,0.95425
296.325,18.96827,-0.08234698,1.45649,0.95385
297.025,18.9893,-0.08332241,1.45861,0.95344
297.725,19.01041,-0.08512105,1.4596,0.95303
298.425,19.0316,-0.08707391,1.46366,0.95263
299.125,19.05273,-0.08878097,1.46973,0.95222
299.825,19.07395,-0.09016176,1.47147,0.95181
300.525,19.09504,-0.09091579,1.47548,0.95141
301.225,19.11616,-0.09245597,1.47744,0.951
301.925,19.13723,-0.09286209,1.47969,0.95059
302.625,19.15834,-0.09438182,1.48661,0.95018
303.325,19.17944,-0.09595046,1.48664,0.94977
304.025,19.20056,-0.09786626,1.49132,0.94936
304.725,19.22167,-0.09967085,1.4943,0.94894
305.425,19.24277,-0.1008,1.49709,0.94853
306.125,19.2639,-0.10253,1.49917,0.94812
306.825,19.28504,-0.10408,1.50432,0.94771
307.525,19.30617,-0.10618,1.50631,0.94729
308.225,19.32728,-0.10832,1.51065,0.94688
308.925,19.34838,-0.11077,1.51467,0.94646
309.625,19.36952,-0.11277,1.51736,0.94605
310.325,19.39065,-0.11422,1.52245,0.94563
311.025,19.4118,-0.11617,1.52279,0.94522
311.725,19.43296,-0.11805,1.52748,0.9448
312.425,19.4541,-0.12004,1.53192,0.94438
313.125,19.47524,-0.12222,1.53836,0.94396
313.825,19.49641,-0.12459,1.53949,0.94354
314.525,19.51756,-0.12672,1.54433,0.94313
315.225,19.5386,-0.12882,1.54917,0.94271
315.925,19.55978,-0.13128,1.55395,0.94229
316.625,19.58099,-0.13408,1.55883,0.94186
317.325,19.60217,-0.13704,1.56291,0.94144
318.025,19.6234,-0.13964,1.56945,0.94102
318.725,19.64465,-0.14194,1.57578,0.9406
319.425,19.6658,-0.14442,1.583,0.94018
320.125,19.68696,-0.14847,1.58512,0.93975
320.825,19.70818,-0.15127,1.59012,0.93933
321.525,19.72941,-0.1545,1.59737,0.9389
322.225,19.7506,-0.157,1.60449,0.93848
322.925,19.7718,-0.16008,1.61134,0.93805
323.625,19.79297,-0.16236,1.61564,0.93763
324.325,19.81415,-0.16609,1.62219,0.9372
325.025,19.8354,-0.16971,1.62922,0.93677
325.725,19.85662,-0.17223,1.63721,0.93634
326.425,19.87779,-0.1756,1.64526,0.93592
327.125,19.8991,-0.17881,1.65316,0.93549
327.825,19.9203,-0.18248,1.65919,0.93506
328.525,19.94153,-0.18617,1.66793,0.93463
329.225,19.96281,-0.19054,1.67691,0.9342
329.925,19.98406,-0.19512,1.68524,0.93377
330.625,20.00527,-0.19922,1.69463,0.93334
331.325,20.02648,-0.20332,1.70308,0.9329
332.025,20.0477,-0.20591,1.71516,0.93247
332.725,20.0689,-0.20885,1.72689,0.93204
333.425,20.0902,-0.21453,1.73699,0.9316
334.125,20.1115,-0.2219,1.7489,0.93117
334.825,20.13279,-0.22858,1.75898,0.93074
335.525,20.15405,-0.23421,1.77266,0.9303
336.225,20.17534,-0.2393,1.78529,0.92986
336.925,20.1966,-0.24521,1.79759,0.92943
337.625,20.21784,-0.2507,1.81439,0.92899
338.325,20.23915,-0.25776,1.82902,0.92855
339.025,20.26039,-0.26326,1.84491,0.92812
339.725,20.28169,-0.26868,1.86069,0.92768
340.425,20.303,-0.27435,1.88067,0.92724
341.125,20.32422,-0.28178,1.89643,0.9268
341.825,20.3455,-0.28967,1.91561,0.92636
342.525,20.3668,-0.29752,1.93794,0.92592
343.225,20.38805,-0.30452,1.95993,0.92548
343.925,20.4094,-0.31239,1.97965,0.92504
344.625,20.43074,-0.32016,2.00083,0.9246
345.325,20.45212,-0.32843,2.02834,0.92416
346.025,20.47355,-0.33772,2.05412,0.92371
346.725,20.49488,-0.34594,2.07964,0.92327
347.425,20.5163,-0.35582,2.10742,0.92283
348.125,20.53766,-0.36475,2.1366,0.92238
348.825,20.55902,-0.37626,2.16941,0.92194
349.525,20.5804,-0.38573,2.20312,0.92149
350.225,20.6018,-0.39795,2.23704,0.92105
350.925,20.6232,-0.40823,2.2708,0.9206
351.625,20.64452,-0.42069,2.3121,0.92015
352.325,20.666,-0.43133,2.35151,0.91971
353.025,20.68736,-0.44427,2.39362,0.91926
353.725,20.70886,-0.45724,2.44068,0.91881
354.425,20.7303,-0.47106,2.48677,0.91836
355.125,20.75187,-0.48595,2.5377,0.91791
355.825,20.77338,-0.50029,2.58803,0.91746
356.525,20.79477,-0.51709,2.6387,0.91701
357.225,20.81621,-0.53202,2.69763,0.91656
357.925,20.83761,-0.55023,2.75581,0.91611
358.625,20.8591,-0.56553,2.8168,0.91566
359.325,20.8806,-0.58542,2.88116,0.91521
360.025,20.90212,-0.60206,2.94923,0.91475
360.725,20.9237,-0.62356,3.0176,0.9143
361.425,20.94523,-0.64285,3.09166,0.91385
362.125,20.96679,-0.66593,3.16704,0.91339
362.825,20.98829,-0.68737,3.24671,0.91294
363.525,21.00984,-0.71124,3.32712,0.91248
364.225,21.03138,-0.73625,3.41491,0.91203
364.925,21.05294,-0.761,3.49805,0.91157
365.625,21.07456,-0.78905,3.58907,0.91112
366.325,21.09615,-0.81432,3.68422,0.91066
367.025,21.1177,-0.84576,3.78037,0.9102
367.725,21.13937,-0.87294,3.87922,0.90975
368.425,21.161,-0.90702,3.98312,0.90929
369.125,21.18264,-0.93558,4.08839,0.90883
369.825,21.20419,-0.97128,4.19556,0.90837
370.525,21.22576,-1.00304,4.30582,0.90791
371.225,21.2474,-1.04067,4.4157,0.90745
371.925,21.26905,-1.07695,4.53014,0.90699
372.625,21.29085,-1.11649,4.64856,0.90653
373.325,21.3127,-1.15871,4.76647,0.90607
374.025,21.33445,-1.19807,4.88577,0.90561
374.725,21.35624,-1.24461,5.00457,0.90514
375.425,21.37803,-1.28499,5.12346,0.90468
376.125,21.39984,-1.33631,5.24136,0.90422
376.825,21.42165,-1.37887,5.35828,0.90375
377.525,21.44346,-1.4321,5.4716,0.90329
378.225,21.46526,-1.47855,5.58225,0.90282
378.925,21.487,-1.53192,5.68978,0.90236
379.625,21.50887,-1.58239,5.79321,0.90189
380.325,21.53066,-1.63442,5.89211,0.90143
381.025,21.55244,-1.69745,5.97991,0.90096
381.725,21.5743,-1.76404,6.06393,0.90049
382.425,21.5961,-1.82013,6.1375,0.90003
383.125,21.61798,-1.87822,6.20034,0.89956
383.825,21.63991,-1.9359,6.25549,0.89909
384.525,21.66181,-1.99474,6.29671,0.89862
385.225,21.6836,-2.05303,6.32723,0.89815
385.925,21.70551,-2.11238,6.34339,0.89768
386.625,21.72735,-2.1719,6.34517,0.89721
387.325,21.7492,-2.23109,6.33076,0.89674
388.025,21.77101,-2.28968,6.30402,0.89627
388.725,21.79281,-2.34744,6.26287,0.8958
389.425,21.81459,-2.40424,6.20316,0.89533
390.125,21.83632,-2.46033,6.12774,0.89486
390.825,21.8581,-2.51568,6.03588,0.89439
391.525,21.87978,-2.56991,5.92894,0.89391
392.225,21.90146,-2.62299,5.80728,0.89344
392.925,21.9232,-2.67653,5.66427,0.89297
393.625,21.94492,-2.72783,5.50478,0.89249
394.325,21.96657,-2.78154,5.32516,0.89202
395.025,21.98825,-2.81882,5.13017,0.89154
395.725,22.0099,-2.86314,4.91576,0.89107
396.425,22.03138,-2.90056,4.68315,0.89059
397.125,22.05292,-2.94441,4.43804,0.89011
397.825,22.07442,-2.97888,4.18146,0.88964
398.525,22.09581,-3.01616,3.91413,0.88916
399.225,22.11719,-3.04664,3.63624,0.88868
399.925,22.13857,-3.07714,3.35985,0.8882
400.625,22.15994,-3.10239,3.08001,0.88772
401.325,22.18133,-3.12495,2.80326,0.88725
402.025,22.20274,-3.14552,2.53729,0.88677
402.725,22.22403,-3.16255,2.28353,0.88629
403.425,22.24529,-3.17875,2.04944,0.88581
404.125,22.2665,-3.19152,1.83187,0.88533
404.825,22.2877,-3.20327,1.63345,0.88484
405.525,22.30895,-3.21141,1.45277,0.88436
406.225,22.33022,-3.21949,1.29641,0.88388
406.925,22.35146,-3.22494,1.15457,0.8834
407.625,22.3727,-3.23085,1.03454,0.88292
408.325,22.39394,-3.235,0.92702,0.88243
409.025,22.41504,-3.23823,0.83852,0.88195
409.725,22.4363,-3.24084,0.76261,0.88147
410.425,22.4576,-3.24131,0.69227,0.88098
411.125,22.47889,-3.24319,0.64026,0.8805
411.825,22.50036,-3.24467,0.59079,0.88001
412.525,22.52175,-3.24576,0.55011,0.87953
413.225,22.54306,-3.247,0.5156,0.87904
413.925,22.5644,-3.24909,0.48692,0.87855
414.625,22.58584,-3.25099,0.46244,0.87807
415.325,22.6073,-3.25209,0.44019,0.87758
416.025,22.6287,-3.25341,0.42263,0.87709
416.725,22.65022,-3.25386,0.40827,0.8766
417.425,22.6717,-3.25483,0.39746,0.87612
418.125,22.6931,-3.25651,0.38329,0.87563
418.825,22.7147,-3.25669,0.37821,0.87514
419.525,22.7362,-3.25773,0.36651,0.87465
420.225,22.75769,-3.2577,0.35982,0.87416
420.925,22.77928,-3.25903,0.35252,0.87367
421.625,22.80085,-3.25915,0.34971,0.87318
422.325,22.82245,-3.26061,0.34261,0.87269
423.025,22.844,-3.26254,0.34145,0.8722
423.725,22.8655,-3.26293,0.33924,0.8717
424.425,22.88712,-3.26445,0.33503,0.87121
425.125,22.9087,-3.26441,0.33212,0.87072
425.825,22.93048,-3.26549,0.33113,0.87023
426.525,22.9523,-3.26565,0.32895,0.86973
427.225,22.97392,-3.26715,0.32446,0.86924
427.925,22.99567,-3.26762,0.32145,0.86874
428.625,23.01739,-3.26861,0.32054,0.86825
429.325,23.03908,-3.26955,0.31973,0.86776
430.025,23.06084,-3.26931,0.31917,0.86726
430.725,23.08257,-3.27039,0.31579,0.86676
431.425,23.10426,-3.2704,0.31641,0.86627
432.125,23.12585,-3.2717,0.31525,0.86577
432.825,23.1474,-3.2716,0.31364,0.86528
433.525,23.16909,-3.27296,0.312,0.86478
434.225,23.1907,-3.27295,0.31145,0.86428
434.925,23.21251,-3.27389,0.30928,0.86378
435.625,23.2345,-3.27428,0.3087,0.86328
436.325,23.25635,-3.27468,0.3085,0.86279
437.025,23.27828,-3.27583,0.30701,0.86229
437.725,23.3003,-3.27731,0.3057,0.86179
438.425,23.32224,-3.27752,0.30316,0.86129
439.125,23.34413,-3.27875,0.30297,0.86079
439.825,23.36598,-3.27996,0.30311,0.86029
440.525,23.38784,-3.28011,0.3017,0.85979
441.225,23.4097,-3.2808,0.30174,0.85929
441.925,23.43147,-3.2814,0.30072,0.85878
442.625,23.45337,-3.28143,0.29917,0.85828
443.325,23.4753,-3.282,0.30009,0.85778
444.025,23.49713,-3.28273,0.29653,0.85728
444.725,23.51908,-3.28273,0.29639,0.85677
445.425,23.54101,-3.28406,0.29414,0.85627
446.125,23.5629,-3.28423,0.29545,0.85577
446.825,23.5849,-3.28541,0.29238,0.85526
447.525,23.60683,-3.28528,0.29141,0.85476
448.225,23.6287,-3.2869,0.28904,0.85425
448.925,23.6506,-3.28736,0.28957,0.85375
449.625,23.67248,-3.2882,0.28913,0.85324
450.325,23.69441,-3.28828,0.28839,0.85274
451.025,23.71637,-3.29069,0.28866,0.85223
451.725,23.73842,-3.29084,0.28633,0.85172
452.425,23.7604,-3.29221,0.28435,0.85122
453.125,23.7824,-3.29218,0.28499,0.85071
453.825,23.80442,-3.29218,0.28443,0.8502
454.525,23.82641,-3.29217,0.28377,0.8497
455.225,23.84844,-3.29218,0.28442,0.84919
455.925,23.87043,-3.29325,0.28383,0.84868
456.625,23.89247,-3.29342,0.28325,0.84817
457.325,23.91452,-3.29475,0.28324,0.84766
458.025,23.93661,-3.2948,0.28316,0.84715
458.725,23.95863,-3.2961,0.28214,0.84664
459.425,23.98065,-3.29612,0.28113,0.84613
460.125,24.00269,-3.29706,0.2788,0.84562
460.825,24.02456,-3.29733,0.27688,0.84511
461.525,24.04654,-3.29896,0.27743,0.8446
462.225,24.0686,-3.29992,0.27784,0.84409
462.925,24.09065,-3.30041,0.27785,0.84357
463.625,24.1128,-3.30043,0.27604,0.84306
464.325,24.1349,-3.30096,0.27679,0.84255
465.025,24.15705,-3.30172,0.27351,0.84204
465.725,24.1791,-3.30205,0.27312,0.84152
466.425,24.20124,-3.30313,0.27149,0.84101
467.125,24.22351,-3.3032,0.27233,0.8405
467.825,24.24566,-3.30454,0.27138,0.83998
468.525,24.26783,-3.30447,0.2693,0.83947
469.225,24.2899,-3.30487,0.26871,0.83895
469.925,24.31196,-3.30577,0.26887,0.83844
470.625,24.33401,-3.30604,0.26817,0.83792
471.325,24.35612,-3.30713,0.26723,0.83741
472.025,24.3782,-3.30708,0.26606,0.83689
472.725,24.4005,-3.30845,0.26406,0.83637
473.425,24.42261,-3.30836,0.26377,0.83586
474.125,24.4448,-3.30975,0.26257,0.83534
474.825,24.46699,-3.30977,0.26294,0.83482
475.525,24.4892,-3.31117,0.26311,0.8343
476.225,24.51137,-3.31117,0.26177,0.83379
476.925,24.5335,-3.31113,0.2581,0.83327
477.625,24.55574,-3.31232,0.25957,0.83275
478.325,24.57791,-3.31249,0.25935,0.83223
479.025,24.6001,-3.31354,0.25942,0.83171
479.725,24.62236,-3.31381,0.25913,0.83119
480.425,24.64452,-3.3143,0.25796,0.83067
481.125,24.6666,-3.31514,0.25855,0.83015
481.825,24.68885,-3.31575,0.25749,0.82963
482.525,24.711,-3.31643,0.25542,0.82911
483.225,24.73325,-3.31644,0.25611,0.82859
483.925,24.75551,-3.31654,0.25656,0.82807
484.625,24.7777,-3.31778,0.25749,0.82755
485.325,24.79995,-3.31775,0.25472,0.82702
486.025,24.82219,-3.31838,0.25514,0.8265
486.725,24.8445,-3.31904,0.25356,0.82598
487.425,24.86673,-3.31898,0.25328,0.82546
488.125,24.88897,-3.32039,0.2538,0.82493
488.825,24.9112,-3.32039,0.25235,0.82441
489.525,24.93344,-3.32031,0.25297,0.82388
490.225,24.9557,-3.32168,0.2534,0.82336
490.925,24.97799,-3.32171,0.25263,0.82284
491.625,25.00023,-3.32169,0.25016,0.82231
492.325,25.02254,-3.3229,0.24802,0.82179
493.025,25.0448,-3.32302,0.24801,0.82126
493.725,25.06711,-3.32321,0.24838,0.82074
494.425,25.08945,-3.32434,0.24848,0.82021
495.125,25.1117,-3.32435,0.24771,0.81968
495.825,25.134,-3.32478,0.246,0.81916
496.525,25.1563,-3.32566,0.245,0.81863
497.225,25.17859,-3.32566,0.24675,0.8181
497.925,25.2009,-3.32704,0.24473,0.81758
498.625,25.22318,-3.32694,0.243,0.81705
499.325,25.24554,-3.32812,0.24148,0.81652
500.025,25.26784,-3.32829,0.24244,0.81599
500.725,25.29022,-3.32872,0.2422,0.81546
501.425,25.31257,-3.32958,0.24269,0.81494
502.125,25.33486,-3.3296,0.24184,0.81441
502.825,25.3572,-3.33078,0.24347,0.81388
503.525,25.3795,-3.33093,0.2428,0.81335
504.225,25.40169,-3.33093,0.24286,0.81282
504.925,25.424,-3.33093,0.24292,0.81229
505.625,25.44629,-3.33095,0.24235,0.81176
506.325,25.46862,-3.33186,0.24186,0.81123
507.025,25.49108,-3.33224,0.24068,0.8107
507.725,25.51347,-3.33302,0.24246,0.81017
508.425,25.53582,-3.33354,0.24145,0.80963
509.125,25.55825,-3.33354,0.24,0.8091
509.825,25.58061,-3.33491,0.24111,0.80857
510.525,25.60301,-3.33488,0.24021,0.80804
511.225,25.6254,-3.33489,0.23936,0.80751
511.925,25.64781,-3.33543,0.23915,0.80697
512.625,25.67025,-3.33619,0.23949,0.80644
513.325,25.6926,-3.33616,0.23946,0.80591
514.025,25.71505,-3.33731,0.2401,0.80537
514.725,25.73743,-3.33751,0.23957,0.80484
515.425,25.75981,-3.33751,0.24112,0.80431
516.125,25.7822,-3.33753,0.24137,0.80377
516.825,25.8046,-3.33802,0.24183,0.80324
517.525,25.82701,-3.33883,0.24292,0.8027
518.225,25.84939,-3.33883,0.24361,0.80217
518.925,25.87181,-3.33942,0.24459,0.80163
519.625,25.89422,-3.34013,0.24569,0.8011
520.325,25.9166,-3.34017,0.24418,0.80056
521.025,25.939,-3.34113,0.24426,0.80002
521.725,25.96141,-3.34147,0.24645,0.79949
522.425,25.9838,-3.34148,0.24842,0.79895
523.125,26.0063,-3.34189,0.24599,0.79841
523.825,26.02874,-3.34278,0.24735,0.79788
524.525,26.05119,-3.34278,0.24597,0.79734
525.225,26.07365,-3.34277,0.24631,0.7968
525.925,26.09613,-3.34385,0.24674,0.79626
526.625,26.1186,-3.3441,0.24681,0.79573
527.325,26.14105,-3.3441,0.24736,0.79519
528.025,26.1634,-3.3441,0.24945,0.79465
528.725,26.18586,-3.3441,0.24792,0.79411
529.425,26.20831,-3.34436,0.24705,0.79357
530.125,26.23077,-3.3454,0.24662,0.79303
530.825,26.25327,-3.34542,0.24746,0.79249
531.525,26.27573,-3.34554,0.2476,0.79195
532.225,26.2982,-3.34676,0.24665,0.79141
532.925,26.32067,-3.34672,0.2451,0.79087
533.625,26.34318,-3.34631,0.24712,0.79033
534.325,26.36567,-3.34673,0.24544,0.78979
535.025,26.3881,-3.34675,0.24635,0.78925
535.725,26.4107,-3.34752,0.24585,0.78871
536.425,26.43314,-3.34806,0.2451,0.78817
537.125,26.45569,-3.34846,0.24491,0.78763
537.825,26.47822,-3.34904,0.24511,0.78708
538.525,26.5007,-3.34915,0.24595,0.78654
539.225,26.5233,-3.35037,0.24683,0.786
539.925,26.5458,-3.35036,0.24768,0.78546
540.625,26.5683,-3.35036,0.24982,0.78491
541.325,26.5908,-3.34988,0.25109,0.78437
542.025,26.6133,-3.34907,0.25434,0.78383
542.725,26.6359,-3.35009,0.25662,0.78328
543.425,26.6584,-3.35037,0.25981,0.78274
544.125,26.68095,-3.35038,0.26449,0.7822
544.825,26.70348,-3.35075,0.26474,0.78165
545.525,26.726,-3.35168,0.26607,0.78111
546.225,26.7485,-3.35168,0.26796,0.78056
546.925,26.77086,-3.35168,0.26918,0.78002
547.625,26.7934,-3.35168,0.27192,0.77947
548.325,26.8159,-3.35168,0.27676,0.77893
549.025,26.83855,-3.35166,0.27603,0.77838
549.725,26.8613,-3.35304,0.27879,0.77784
550.425,26.88387,-3.353,0.28059,0.77729
551.125,26.90645,-3.35302,0.28297,0.77675
551.825,26.92902,-3.35528,0.28055,0.7762
552.525,26.95158,-3.35563,0.2826,0.77565
553.225,26.97413,-3.35564,0.28305,0.77511
553.925,26.9967,-3.35571,0.28242,0.77456
554.625,27.01933,-3.35432,0.28563,0.77401
555.325,27.04195,-3.35568,0.28716,0.77346
556.025,27.0646,-3.35563,0.2881,0.77292
556.725,27.08721,-3.35563,0.28912,0.77237
557.425,27.1098,-3.35562,0.29189,0.77182
558.125,27.13246,-3.35682,0.29372,0.77127
558.825,27.15502,-3.35695,0.29604,0.77072
559.525,27.1777,-3.35698,0.29567,0.77018
560.225,27.20034,-3.35879,0.29763,0.76963
560.925,27.22301,-3.35956,0.29718,0.76908
561.625,27.24571,-3.35958,0.29975,0.76853
562.325,27.2684,-3.35958,0.2983,0.76798
563.025,27.29093,-3.35959,0.30014,0.76743
563.725,27.31353,-3.361,0.30133,0.76688
564.425,27.3362,-3.3609,0.30248,0.76633
565.125,27.35884,-3.3609,0.30641,0.76578
565.825,27.38155,-3.36091,0.30441,0.76523
566.525,27.4042,-3.36136,0.30382,0.76468
567.225,27.42685,-3.36201,0.30468,0.76413
567.925,27.4495,-3.36123,0.30604,0.76358
568.625,27.4722,-3.36123,0.30625,0.76303
569.325,27.4949,-3.36104,0.30668,0.76247
570.025,27.5176,-3.3609,0.30659,0.76192
570.725,27.54032,-3.3609,0.30783,0.76137
571.425,27.56301,-3.36086,0.30787,0.76082
572.125,27.58577,-3.36206,0.30499,0.76027
572.825,27.60848,-3.36222,0.30611,0.75972
573.525,27.63117,-3.36218,0.30314,0.75916
574.225,27.6539,-3.36347,0.30185,0.75861
574.925,27.6765,-3.36354,0.30083,0.75806
575.625,27.69926,-3.36354,0.29836,0.7575
576.325,27.72203,-3.36354,0.29829,0.75695
577.025,27.7447,-3.36354,0.29782,0.7564
577.725,27.76747,-3.36354,0.29786,0.75584
578.425,27.7903,-3.36354,0.29486,0.75529
579.125,27.81308,-3.36373,0.29272,0.75474
579.825,27.836,-3.3649,0.29135,0.75418
580.525,27.85871,-3.36487,0.28926,0.75363
581.225,27.88147,-3.36359,0.28762,0.75307
581.925,27.90423,-3.36489,0.28485,0.75252
582.625,27.92698,-3.36485,0.28449,0.75197
583.325,27.9498,-3.36485,0.28369,0.75141
584.025,27.9726,-3.36485,0.28107,0.75086
584.725,27.9954,-3.36485,0.28115,0.7503
585.425,28.01823,-3.36485,0.28078,0.74974
586.125,28.041,-3.36485,0.27762,0.74919
586.825,28.06382,-3.36485,0.27826,0.74863
587.525,28.0866,-3.3648,0.27622,0.74808
588.225,28.10946,-3.36619,0.27371,0.74752
588.925,28.1322,-3.36754,0.27414,0.74697
589.625,28.1551,-3.36749,0.27044,0.74641
590.325,28.17793,-3.36743,0.26981,0.74585
591.025,28.20072,-3.36803,0.26804,0.7453
591.725,28.22355,-3.3675,0.265,0.74474
592.425,28.2464,-3.36749,0.26331,0.74418
593.125,28.26915,-3.36749,0.26279,0.74362
593.825,28.292,-3.36749,0.26257,0.74307
594.525,28.31485,-3.36749,0.25833,0.74251
595.225,28.3377,-3.36771,0.25776,0.74195
595.925,28.3606,-3.36879,0.25832,0.74139
596.625,28.38353,-3.3688,0.25577,0.74084
597.325,28.4063,-3.36838,0.25411,0.74028
598.025,28.4291,-3.36749,0.25281,0.73972
598.725,28.452,-3.36885,0.25197,0.73916
599.425,28.4749,-3.3688,0.24913,0.7386
600.125,28.49778,-3.36874,0.24907,0.73804
600.825,28.52072,-3.37013,0.24765,0.73748
601.525,28.54368,-3.37013,0.24612,0.73693
602.225,28.56662,-3.37055,0.24495,0.73637
602.925,28.58952,-3.37042,0.24557,0.73581
603.625,28.61246,-3.37012,0.2432,0.73525
604.325,28.63535,-3.37012,0.24073,0.73469
605.025,28.65825,-3.37012,0.24147,0.73413
605.725,28.6812,-3.37012,0.24028,0.73357
606.425,28.7041,-3.37012,0.2404,0.73301
607.125,28.72695,-3.37012,0.23819,0.73245
607.825,28.7498,-3.37012,0.23725,0.73189
608.525,28.7727,-3.37009,0.23717,0.73133
609.225,28.79562,-3.37149,0.23396,0.73077
609.925,28.8186,-3.37177,0.23548,0.73021
610.625,28.84155,-3.37177,0.23391,0.72964
611.325,28.8645,-3.37267,0.23394,0.72908
612.025,28.88741,-3.37308,0.23363,0.72852
612.725,28.91037,-3.37309,0.23149,0.72796
613.425,28.9333,-3.37309,0.23238,0.7274
614.125,28.95625,-3.37307,0.23103,0.72684
614.825,28.9792,-3.3721,0.22905,0.72628
615.525,29.0022,-3.37177,0.22792,0.72571
616.225,29.0251,-3.37187,0.22758,0.72515
616.925,29.04815,-3.3731,0.22692,0.72459
617.625,29.07118,-3.37308,0.22502,0.72403
618.325,29.09416,-3.37308,0.22539,0.72347
619.025,29.11717,-3.37308,0.22464,0.7229
619.725,29.1401,-3.37308,0.22525,0.72234
620.425,29.16302,-3.37301,0.22386,0.72178
621.125,29.18597,-3.37437,0.22257,0.72121
621.825,29.20887,-3.3744,0.22394,0.72065
622.525,29.23173,-3.3744,0.22235,0.72009
623.225,29.2547,-3.37439,0.22053,0.71953
623.925,29.27763,-3.37561,0.22171,0.71896
624.625,29.3006,-3.37572,0.22052,0.7184
625.325,29.32371,-3.37572,0.21979,0.71783
626.025,29.3468,-3.37572,0.21572,0.71727
626.725,29.3698,-3.37572,0.21698,0.71671
627.425,29.39279,-3.37565,0.22025,0.71614
628.125,29.41575,-3.37701,0.21643,0.71558
628.825,29.43865,-3.37704,0.21397,0.71502
629.525,29.4616,-3.37704,0.21442,0.71445
630.225,29.48462,-3.37704,0.21371,0.71389
630.925,29.5076,-3.37705,0.21213,0.71332
631.625,29.53067,-3.37774,0.213,0.71276
632.325,29.55367,-3.3777,0.2141,0.71219
633.025,29.5767,-3.3777,0.21461,0.71163
633.725,29.5996,-3.3777,0.2148,0.71106
634.425,29.6227,-3.3777,0.21352,0.7105
635.125,29.64568,-3.37771,0.21326,0.70993
635.825,29.6687,-3.37772,0.21263,0.70937
636.525,29.69173,-3.37706,0.21332,0.7088
637.225,29.71479,-3.37723,0.21211,0.70824
637.925,29.73785,-3.37737,0.21482,0.70767
638.625,29.76088,-3.37738,0.21283,0.7071
639.325,29.78397,-3.37775,0.215,0.70654
640.025,29.8068,-3.37964,0.21666,0.70597
640.725,29.82961,-3.37967,0.21632,0.70541
641.425,29.8525,-3.37967,0.21537,0.70484
642.125,29.87547,-3.37967,0.21917,0.70427
642.825,29.8986,-3.37967,0.21909,0.70371
643.525,29.92172,-3.37964,0.21686,0.70314
644.225,29.9448,-3.38077,0.21787,0.70258
644.925,29.9678,-3.38099,0.21864,0.70201
645.625,29.9908,-3.38099,0.21695,0.70144
646.325,30.01397,-3.381,0.2206,0.70088
647.025,30.0371,-3.381,0.22039,0.70031
647.725,30.06012,-3.381,0.21922,0.69974
648.425,30.0832,-3.381,0.22091,0.69917
649.125,30.10616,-3.381,0.22112,0.69861
649.825,30.12916,-3.381,0.22024,0.69804
650.525,30.15223,-3.38163,0.22067,0.69747
651.225,30.1752,-3.3823,0.21854,0.69691
651.925,30.19835,-3.38104,0.21744,0.69634
652.625,30.2214,-3.38098,0.21957,0.69577
653.325,30.24445,-3.38101,0.2202,0.6952
654.025,30.2675,-3.38182,0.22054,0.69463
654.725,30.29045,-3.38231,0.21865,0.69407
655.425,30.31343,-3.3823,0.21879,0.6935
656.125,30.3365,-3.38222,0.2193,0.69293
656.825,30.35946,-3.38363,0.21674,0.69236
657.525,30.38249,-3.3829,0.21553,0.69179
658.225,30.4055,-3.38297,0.21526,0.69123
658.925,30.4285,-3.38297,0.21215,0.69066
659.625,30.4515,-3.38297,0.21504,0.69009
660.325,30.47455,-3.38297,0.21186,0.68952
661.025,30.49754,-3.38297,0.2066,0.68895
661.725,30.5207,-3.38298,0.20787,0.68838
662.425,30.54376,-3.38338,0.20668,0.68781
663.125,30.56682,-3.38429,0.20717,0.68725
663.825,30.5898,-3.38429,0.20604,0.68668
664.525,30.6129,-3.38429,0.20331,0.68611
665.225,30.63604,-3.38429,0.20309,0.68554
665.925,30.6591,-3.38429,0.20099,0.68497
666.625,30.6822,-3.38426,0.20132,0.6844
667.325,30.7052,-3.38541,0.20187,0.68383
668.025,30.7283,-3.38559,0.19983,0.68326
668.725,30.75127,-3.38518,0.19884,0.68269
669.425,30.7743,-3.38495,0.19899,0.68212
670.125,30.79743,-3.38494,0.20003,0.68155
670.825,30.8205,-3.38494,0.20024,0.68098
671.525,30.84367,-3.38494,0.20017,0.68041
672.225,30.86679,-3.38494,0.20024,0.67984
672.925,30.88983,-3.38495,0.19964,0.67928
673.625,30.91289,-3.38373,0.20141,0.67871
674.325,30.9359,-3.38362,0.20334,0.67814
675.025,30.959,-3.38362,0.19897,0.67757
675.725,30.982,-3.38475,0.20118,0.677
676.425,31.00507,-3.38625,0.19933,0.67643
677.125,31.02822,-3.38626,0.20127,0.67586
677.825,31.0514,-3.38626,0.20116,0.67528
678.525,31.07455,-3.38626,0.19999,0.67471
679.225,31.09773,-3.38623,0.20224,0.67414
679.925,31.1208,-3.38755,0.20174,0.67357
680.625,31.14387,-3.38621,0.2021,0.673
681.325,31.16698,-3.38626,0.20292,0.67243
682.025,31.19006,-3.38626,0.20089,0.67186
682.725,31.2131,-3.38626,0.20041,0.67129
683.425,31.23619,-3.38626,0.20238,0.67072
684.125,31.2592,-3.38626,0.2023,0.67015
684.825,31.28231,-3.38626,0.20186,0.66958
685.525,31.30548,-3.38644,0.20248,0.66901
686.225,31.32865,-3.38692,0.20279,0.66844
686.925,31.35185,-3.38693,0.2047,0.66787
687.625,31.375,-3.38731,0.2033,0.6673
688.325,31.39808,-3.38758,0.20446,0.66673
689.025,31.4212,-3.38758,0.20345,0.66615
689.725,31.44438,-3.38758,0.20747,0.66558
690.425,31.4675,-3.38759,0.2054,0.66501
691.125,31.4907,-3.38833,0.20661,0.66444
691.825,31.51383,-3.38855,0.20451,0.66387
692.525,31.537,-3.38832,0.20523,0.6633
693.225,31.56012,-3.3879,0.20543,0.66273
693.925,31.58323,-3.38791,0.20674,0.66216
694.625,31.6064,-3.38815,0.21012,0.66159
695.325,31.6295,-3.38823,0.21064,0.66101
696.025,31.65263,-3.38823,0.21096,0.66044
696.725,31.67577,-3.38823,0.21121,0.65987
697.425,31.6989,-3.38823,0.21139,0.6593
698.125,31.72208,-3.38819,0.21418,0.65873
698.825,31.74527,-3.38896,0.21274,0.65816
699.525,31.7684,-3.38951,0.21448,0.65758
700.225,31.7916,-3.38883,0.21529,0.65701
700.925,31.8148,-3.38889,0.21719,0.65644
701.625,31.838,-3.38889,0.21741,0.65587
702.325,31.86119,-3.38889,0.21637,0.6553
703.025,31.88437,-3.38889,0.21792,0.65473
703.725,31.90748,-3.38889,0.22,0.65415
704.425,31.93058,-3.38889,0.21926,0.65358
705.125,31.95372,-3.38912,0.21928,0.65301
705.825,31.97685,-3.39023,0.21853,0.65244
706.525,32.00002,-3.39021,0.2208,0.65187
707.225,32.02321,-3.39021,0.22007,0.6513
707.925,32.04639,-3.3902,0.2196,0.65072
708.625,32.06964,-3.38987,0.21882,0.65015
709.325,32.09284,-3.38974,0.21931,0.64958
710.025,32.11609,-3.39091,0.21816,0.64901
710.725,32.13932,-3.39088,0.21851,0.64844
711.425,32.16256,-3.39088,0.21976,0.64786
712.125,32.18575,-3.39088,0.21864,0.64729
712.825,32.2089,-3.39088,0.21879,0.64672
713.525,32.23193,-3.39148,0.22042,0.64615
714.225,32.255,-3.39216,0.22236,0.64558
714.925,32.2783,-3.3919,0.22298,0.645
715.625,32.30158,-3.39154,0.22179,0.64443
716.325,32.32493,-3.39153,0.22004,0.64386
717.025,32.3483,-3.39153,0.22048,0.64329
717.725,32.3715,-3.39153,0.22036,0.64272
718.425,32.3947,-3.39153,0.21897,0.64214
719.125,32.41794,-3.39152,0.22042,0.64157
719.825,32.4412,-3.3904,0.21952,0.641
720.525,32.46438,-3.39021,0.2187,0.64043
721.225,32.48765,-3.39022,0.22029,0.63985
721.925,32.51088,-3.39102,0.21829,0.63928
722.625,32.53417,-3.39198,0.21585,0.63871
723.325,32.55747,-3.39285,0.21886,0.63814
724.025,32.58077,-3.39285,0.21865,0.63757
724.725,32.60409,-3.39285,0.21625,0.63699
725.425,32.62741,-3.39285,0.21889,0.63642
726.125,32.6507,-3.39285,0.21474,0.63585
726.825,32.6739,-3.39271,0.21594,0.63528
727.525,32.6971,-3.39301,0.21893,0.6347
728.225,32.72033,-3.39383,0.21969,0.63413
728.925,32.74365,-3.39358,0.2221,0.63356
729.625,32.7669,-3.39284,0.22376,0.63299
730.325,32.79022,-3.39285,0.22421,0.63242
731.025,32.81354,-3.39285,0.21936,0.63184
731.725,32.8369,-3.39285,0.22085,0.63127
732.425,32.86023,-3.39285,0.22087,0.6307
733.125,32.8835,-3.39277,0.22348,0.63013
733.825,32.90676,-3.39415,0.22338,0.62955
734.525,32.93,-3.39417,0.22433,0.62898
735.225,32.95321,-3.39417,0.22144,0.62841
735.925,32.9765,-3.39417,0.22189,0.62784
736.625,32.9998,-3.39417,0.22199,0.62727
737.325,33.02308,-3.39417,0.22046,0.62669
738.025,33.04645,-3.39417,0.22353,0.62612
738.725,33.06974,-3.39417,0.22468,0.62555
739.425,33.0931,-3.39417,0.22076,0.62498
740.125,33.11635,-3.39417,0.22082,0.62441
740.825,33.13963,-3.39381,0.22032,0.62383
741.525,33.16299,-3.39318,0.22161,0.62326
742.225,33.18619,-3.39401,0.22156,0.62269
742.925,33.20943,-3.39416,0.22191,0.62212
743.625,33.23274,-3.39416,0.2209,0.62154
744.325,33.25608,-3.39415,0.22037,0.62097
745.025,33.27945,-3.3955,0.22068,0.6204
745.725,33.30281,-3.39549,0.22278,0.61983
746.425,33.32612,-3.39548,0.2203,0.61926
747.125,33.34942,-3.39548,0.22217,0.61868
747.825,33.37277,-3.39545,0.22081,0.61811
748.525,33.39613,-3.3941,0.22022,0.61754
749.225,33.41938,-3.39416,0.22062,0.61697
749.925,33.44254,-3.39416,0.21964,0.6164
750.625,33.46588,-3.39416,0.22045,0.61583
751.325,33.48915,-3.39416,0.21973,0.61525
752.025,33.51259,-3.39416,0.21907,0.61468
752.725,33.5361,-3.39416,0.21945,0.61411
753.425,33.55945,-3.39416,0.21504,0.61354
754.125,33.5828,-3.39512,0.2185,0.61297
754.825,33.60621,-3.39547,0.21831,0.61239
755.525,33.6295,-3.39548,0.22071,0.61182
756.225,33.65283,-3.39548,0.22038,0.61125
756.925,33.67625,-3.39548,0.22155,0.61068
757.625,33.69963,-3.39548,0.22052,0.61011
758.325,33.723,-3.39548,0.21774,0.60954
759.025,33.7463,-3.39549,0.21694,0.60897
759.725,33.7695,-3.39415,0.21747,0.60839
760.425,33.79287,-3.39487,0.21542,0.60782
761.125,33.81622,-3.39547,0.21457,0.60725
761.825,33.83968,-3.39549,0.21402,0.60668
762.525,33.86316,-3.39549,0.21408,0.60611
763.225,33.8866,-3.39549,0.21304,0.60554
763.925,33.91002,-3.39549,0.2109,0.60497
764.625,33.9334,-3.39549,0.21329,0.60439
765.325,33.95681,-3.39549,0.21351,0.60382
766.025,33.98016,-3.39554,0.20945,0.60325
766.725,34.00355,-3.39612,0.21092,0.60268
767.425,34.02695,-3.39614,0.21567,0.60211
768.125,34.0503,-3.39615,0.21017,0.60154
768.825,34.07367,-3.39541,0.21078,0.60097
769.525,34.09707,-3.39548,0.21071,0.6004
770.225,34.1205,-3.39548,0.20967,0.59983
770.925,34.14385,-3.39548,0.20929,0.59926
771.625,34.16729,-3.39548,0.21031,0.59869
772.325,34.1907,-3.39545,0.21113,0.59811
773.025,34.2141,-3.39673,0.21259,0.59754
773.725,34.23752,-3.3968,0.21059,0.59697
774.425,34.26092,-3.3968,0.21141,0.5964
775.125,34.28434,-3.3968,0.21009,0.59583
775.825,34.30774,-3.3968,0.20802,0.59526
776.525,34.33112,-3.3968,0.21001,0.59469
777.225,34.35451,-3.39694,0.2101,0.59412
777.925,34.37797,-3.39747,0.20774,0.59355
778.625,34.40143,-3.39746,0.20846,0.59298
779.325,34.42487,-3.39746,0.20956,0.59241
780.025,34.44828,-3.39721,0.21052,0.59184
780.725,34.4717,-3.39689,0.20935,0.59127
781.425,34.4951,-3.39683,0.20803,0.5907
782.125,34.5185,-3.39773,0.20764,0.59013
782.825,34.5419,-3.39812,0.20435,0.58956
783.525,34.56528,-3.39812,0.20558,0.58899
784.225,34.58872,-3.39812,0.2071,0.58842
784.925,34.6121,-3.39811,0.20461,0.58785
785.625,34.63547,-3.39753,0.20521,0.58728
786.325,34.65892,-3.39583,0.20403,0.58671
787.025,34.68224,-3.39582,0.20742,0.58614
787.725,34.70562,-3.39582,0.20621,0.58557
788.425,34.72913,-3.39582,0.20559,0.585
789.125,34.75261,-3.3965,0.20975,0.58443
789.825,34.77625,-3.39711,0.2098,0.58386
790.525,34.79975,-3.39713,0.20903,0.58329
791.225,34.8232,-3.39855,0.20798,0.58272
791.925,34.84664,-3.39845,0.21075,0.58216
792.625,34.8701,-3.39845,0.20577,0.58159
793.325,34.89355,-3.39845,0.20363,0.58102
794.025,34.917,-3.39845,0.2025,0.58045
794.725,34.9405,-3.39845,0.20491,0.57988
795.425,34.96387,-3.39927,0.20539,0.57931
796.125,34.98729,-3.39976,0.20396,0.57874
796.425,34.99725,-3.39977,0.20509,0.5785