File: 01_Data/Overstuffed_Chair_Polyester_Fabric/STA/N2/10K_min/Overstuffed_Chair_Polyester_Fabric_STA_N2_10KData_220131_R1.csv
##Temp./Â°C,Time/min,Mass(subtr.2)/%,DSC(subtr.2)/(mW/mg),Sensit./(uV/mW)
49.246,10.00917,99.10875,0.01455622,1.07447
49.846,10.72856,99.05441,0.04320985,1.07443
50.446,10.92046,99.04956,0.06438593,1.07439
51.046,11.06033,99.00775,0.08503472,1.07435
51.646,11.1778,99.04469,0.09876952,1.0743
52.246,11.2828,99.02786,0.11167,1.07426
52.846,11.37985,98.98465,0.1229,1.07421
53.446,11.4703,99.0021,0.13224,1.07417
54.046,11.5558,99.0133,0.14125,1.07412
54.646,11.63717,99.0295,0.14809,1.07407
55.246,11.71585,99.032,0.15673,1.07402
55.846,11.79215,98.91724,0.16339,1.07397
56.446,11.86652,98.99812,0.16781,1.07392
57.046,11.93942,99.03752,0.17048,1.07387
57.646,12.0117,98.9924,0.17627,1.07382
58.246,12.0828,98.9782,0.1781,1.07377
58.846,12.15294,98.9973,0.18134,1.07371
59.446,12.22213,98.9948,0.18257,1.07366
60.046,12.29073,98.9734,0.18437,1.0736
60.646,12.35897,98.99348,0.18902,1.07355
61.246,12.42647,98.94148,0.18982,1.07349
61.846,12.49338,98.9863,0.1925,1.07343
62.446,12.56,98.92705,0.19231,1.07337
63.046,12.6263,98.9512,0.19637,1.07331
63.646,12.69244,98.99292,0.19582,1.07325
64.246,12.75815,98.99353,0.19634,1.07319
64.846,12.82347,98.96074,0.19993,1.07313
65.446,12.88819,98.96075,0.19921,1.07306
66.046,12.9529,98.9603,0.20133,1.073
66.646,13.0174,98.9576,0.20077,1.07294
67.246,13.08276,98.92607,0.20285,1.07287
67.846,13.14846,98.93759,0.20311,1.0728
68.446,13.2134,98.96085,0.20423,1.07274
69.046,13.2779,98.95193,0.20244,1.07267
69.646,13.3421,98.97454,0.20594,1.0726
70.246,13.40616,98.93873,0.20832,1.07253
70.846,13.47021,98.90592,0.20774,1.07246
71.446,13.53395,98.87063,0.20834,1.07239
72.046,13.5977,98.90585,0.20838,1.07231
72.646,13.66106,98.9053,0.21232,1.07224
73.246,13.72444,98.92655,0.21158,1.07217
73.846,13.78765,98.9363,0.20907,1.07209
74.446,13.8506,98.9195,0.2107,1.07202
75.046,13.91342,98.90608,0.21358,1.07194
75.646,13.9762,98.872,0.21527,1.07186
76.246,14.0389,98.90575,0.21465,1.07178
76.846,14.10144,98.94072,0.21795,1.07171
77.446,14.1638,98.9062,0.21828,1.07163
78.046,14.22601,98.91456,0.21895,1.07154
78.646,14.28832,98.90576,0.2206,1.07146
79.246,14.3505,98.93871,0.21875,1.07138
79.846,14.4123,98.9209,0.22129,1.0713
80.446,14.4741,98.90822,0.2216,1.07121
81.046,14.53599,98.90559,0.22137,1.07113
81.646,14.5975,98.87369,0.22448,1.07104
82.246,14.6589,98.90566,0.22636,1.07096
82.846,14.71976,98.88971,0.22433,1.07087
83.446,14.781,98.90734,0.22678,1.07078
84.046,14.84181,98.919,0.22854,1.07069
84.646,14.9026,98.90575,0.22907,1.0706
85.246,14.96333,98.90561,0.23207,1.07051
85.846,15.0239,98.91802,0.23078,1.07042
86.446,15.0845,98.91843,0.23131,1.07033
87.046,15.1451,98.9063,0.23135,1.07023
87.646,15.2055,98.90596,0.23273,1.07014
88.246,15.2659,98.8729,0.23529,1.07004
88.846,15.32616,98.873,0.23484,1.06995
89.446,15.38641,98.90705,0.23558,1.06985
90.046,15.4465,98.90515,0.23409,1.06976
90.646,15.5067,98.87301,0.23708,1.06966
91.246,15.56679,98.84031,0.23649,1.06956
91.846,15.6267,98.82865,0.23703,1.06946
92.446,15.68634,98.84074,0.2384,1.06936
93.046,15.746,98.84005,0.23879,1.06926
93.646,15.80565,98.87313,0.23808,1.06915
94.246,15.8655,98.8736,0.23867,1.06905
94.846,15.925,98.9071,0.23959,1.06895
95.446,15.9844,98.87302,0.23764,1.06884
96.046,16.04368,98.87315,0.24227,1.06874
96.646,16.10295,98.84005,0.24156,1.06863
97.246,16.16231,98.84011,0.24307,1.06852
97.846,16.22139,98.80705,0.24387,1.06841
98.446,16.28053,98.84081,0.24595,1.06831
99.046,16.33974,98.8395,0.24642,1.0682
99.646,16.3989,98.80725,0.24806,1.06809
100.246,16.4579,98.83985,0.2465,1.06797
100.846,16.51695,98.81125,0.24707,1.06786
101.446,16.57592,98.82743,0.24806,1.06775
102.046,16.63498,98.83175,0.24913,1.06764
102.646,16.6938,98.83095,0.25266,1.06752
103.246,16.75295,98.84,0.25297,1.0674
103.846,16.81181,98.84025,0.25172,1.06729
104.446,16.87065,98.84062,0.25425,1.06717
105.046,16.92942,98.80725,0.25546,1.06705
105.646,16.98829,98.80736,0.25828,1.06693
106.246,17.04739,98.87305,0.2582,1.06682
106.846,17.1064,98.84376,0.25772,1.06669
107.446,17.16538,98.84096,0.25727,1.06657
108.046,17.22423,98.84,0.25925,1.06645
108.646,17.28271,98.83999,0.25922,1.06633
109.246,17.34121,98.86503,0.25857,1.06621
109.846,17.39951,98.843,0.26137,1.06608
110.446,17.45806,98.8102,0.26107,1.06596
111.046,17.5169,98.77704,0.2642,1.06583
111.646,17.57556,98.81094,0.26755,1.0657
112.246,17.63411,98.81,0.26545,1.06557
112.846,17.69258,98.81003,0.26648,1.06545
113.446,17.75088,98.84121,0.26554,1.06532
114.046,17.80971,98.80975,0.26718,1.06519
114.646,17.8682,98.811,0.27052,1.06506
115.246,17.92695,98.78525,0.2702,1.06492
115.846,17.9851,98.8112,0.27069,1.06479
116.446,18.0434,98.80082,0.27036,1.06466
117.046,18.10199,98.7976,0.27219,1.06452
117.646,18.1604,98.83148,0.27422,1.06439
118.246,18.21904,98.7937,0.27493,1.06425
118.846,18.2776,98.7935,0.27525,1.06412
119.446,18.3361,98.79349,0.27735,1.06398
120.046,18.39473,98.81649,0.27867,1.06384
120.646,18.45322,98.80155,0.28051,1.0637
121.246,18.5117,98.82865,0.28116,1.06356
121.846,18.57031,98.82455,0.28283,1.06342
122.446,18.62876,98.7935,0.28424,1.06328
123.046,18.68714,98.7935,0.28747,1.06314
123.646,18.74551,98.7955,0.28769,1.06299
124.246,18.80375,98.7933,0.29039,1.06285
124.846,18.86196,98.79332,0.2916,1.06271
125.446,18.92033,98.7769,0.29352,1.06256
126.046,18.97883,98.777,0.29573,1.06241
126.646,19.03724,98.777,0.29753,1.06227
127.246,19.09542,98.77343,0.30212,1.06212
127.846,19.15343,98.777,0.3021,1.06197
128.446,19.2114,98.777,0.30748,1.06182
129.046,19.2696,98.77637,0.31026,1.06167
129.646,19.32785,98.74399,0.31315,1.06152
130.246,19.38607,98.7271,0.31433,1.06137
130.846,19.44404,98.73512,0.31815,1.06122
131.446,19.50187,98.76872,0.31743,1.06106
132.046,19.56012,98.76881,0.31935,1.06091
132.646,19.61819,98.8018,0.31908,1.06075
133.246,19.67684,98.76902,0.31689,1.0606
133.846,19.73485,98.7685,0.31318,1.06044
134.446,19.79263,98.7354,0.30985,1.06028
135.046,19.85069,98.7689,0.30301,1.06012
135.646,19.9088,98.76875,0.29818,1.05996
136.246,19.96694,98.76875,0.29681,1.05981
136.846,20.02497,98.75,0.28962,1.05964
137.446,20.08258,98.744,0.29063,1.05948
138.046,20.14039,98.744,0.28248,1.05932
138.646,20.19817,98.74399,0.27961,1.05916
139.246,20.25624,98.73571,0.27812,1.05899
139.846,20.31455,98.76871,0.27529,1.05883
140.446,20.37261,98.77039,0.27457,1.05866
141.046,20.4306,98.736,0.27314,1.0585
141.646,20.48849,98.736,0.27361,1.05833
142.246,20.5463,98.73831,0.27126,1.05816
142.846,20.60442,98.7379,0.2713,1.05799
143.446,20.66246,98.73575,0.27207,1.05782
144.046,20.72041,98.73575,0.27161,1.05765
144.646,20.77836,98.73575,0.27124,1.05748
145.246,20.8361,98.73575,0.27118,1.05731
145.846,20.89378,98.73584,0.2726,1.05714
146.446,20.95176,98.70309,0.2752,1.05697
147.046,21.0095,98.7358,0.2741,1.05679
147.646,21.06768,98.73603,0.27396,1.05662
148.246,21.12594,98.71127,0.27737,1.05644
148.846,21.18376,98.71125,0.27742,1.05627
149.446,21.24149,98.71125,0.27931,1.05609
150.046,21.2992,98.7443,0.27873,1.05591
150.646,21.3571,98.7443,0.27963,1.05573
151.246,21.41508,98.73595,0.28184,1.05555
151.846,21.47265,98.73192,0.28184,1.05537
152.446,21.5304,98.703,0.28253,1.05519
153.046,21.5881,98.70919,0.28285,1.05501
153.646,21.6459,98.73575,0.28242,1.05483
154.246,21.70361,98.7251,0.28284,1.05464
154.846,21.7613,98.67904,0.28337,1.05446
155.446,21.81883,98.6785,0.28445,1.05427
156.046,21.87646,98.6892,0.28393,1.05409
156.646,21.9341,98.7111,0.2856,1.0539
157.246,21.99173,98.74421,0.28497,1.05371
157.846,22.0496,98.72691,0.28623,1.05352
158.446,22.10746,98.71126,0.28773,1.05334
159.046,22.16535,98.67918,0.28567,1.05315
159.646,22.2232,98.67931,0.28654,1.05296
160.246,22.2807,98.71125,0.28682,1.05276
160.846,22.33819,98.69444,0.29055,1.05257
161.446,22.39572,98.69324,0.28944,1.05238
162.046,22.45291,98.71947,0.29057,1.05219
162.646,22.51054,98.7033,0.29055,1.05199
163.246,22.56804,98.703,0.28929,1.0518
163.846,22.62548,98.703,0.2922,1.0516
164.446,22.68327,98.66797,0.29176,1.0514
165.046,22.74085,98.64463,0.29373,1.05121
165.646,22.7983,98.70303,0.29324,1.05101
166.246,22.85585,98.70295,0.29424,1.05081
166.846,22.91339,98.67008,0.29372,1.05061
167.446,22.97083,98.6703,0.29386,1.05041
168.046,23.02833,98.67827,0.29488,1.05021
168.646,23.08584,98.69579,0.29564,1.05001
169.246,23.14312,98.67825,0.29593,1.0498
169.846,23.2007,98.67554,0.2993,1.0496
170.446,23.2582,98.64524,0.29769,1.04939
171.046,23.3157,98.67761,0.29672,1.04919
171.646,23.37323,98.6453,0.29906,1.04898
172.246,23.4307,98.64525,0.2979,1.04878
172.846,23.48809,98.64516,0.29753,1.04857
173.446,23.54563,98.67578,0.29789,1.04836
174.046,23.6031,98.65391,0.30084,1.04815
174.646,23.66068,98.6455,0.29954,1.04794
175.246,23.7183,98.63728,0.29944,1.04773
175.846,23.77575,98.63725,0.29879,1.04752
176.446,23.8328,98.63725,0.29825,1.04731
177.046,23.8903,98.63726,0.301,1.0471
177.646,23.94773,98.66983,0.30063,1.04688
178.246,24.00529,98.66995,0.30119,1.04667
178.846,24.06309,98.63682,0.30367,1.04645
179.446,24.12059,98.637,0.30101,1.04624
180.046,24.1781,98.637,0.3017,1.04602
180.646,24.23562,98.63699,0.30181,1.0458
181.246,24.29315,98.6662,0.30402,1.04559
181.846,24.35043,98.6617,0.30152,1.04537
182.446,24.40769,98.6365,0.30482,1.04515
183.046,24.46515,98.63725,0.3034,1.04493
183.646,24.52251,98.63725,0.30394,1.04471
184.246,24.58006,98.63725,0.30614,1.04449
184.846,24.63738,98.63675,0.30447,1.04426
185.446,24.6948,98.60424,0.30587,1.04404
186.046,24.7521,98.6028,0.30736,1.04382
186.646,24.8094,98.63725,0.3058,1.04359
187.246,24.86668,98.63725,0.30845,1.04337
187.846,24.9239,98.63725,0.30883,1.04314
188.446,24.98123,98.63674,0.3105,1.04291
189.046,25.03836,98.67,0.30803,1.04268
189.646,25.09564,98.67,0.30838,1.04246
190.246,25.15289,98.66911,0.30949,1.04223
190.846,25.21023,98.63699,0.31241,1.042
191.446,25.26765,98.637,0.30975,1.04177
192.046,25.32483,98.637,0.31088,1.04153
192.646,25.3818,98.63409,0.31211,1.0413
193.246,25.43909,98.60425,0.31255,1.04107
193.846,25.49642,98.5916,0.31537,1.04084
194.446,25.5538,98.62046,0.31541,1.0406
195.046,25.61115,98.61785,0.31394,1.04037
195.646,25.66845,98.60425,0.31401,1.04013
196.246,25.72546,98.6293,0.31484,1.03989
196.846,25.78269,98.63725,0.31676,1.03966
197.446,25.83974,98.63725,0.31569,1.03942
198.046,25.89675,98.63725,0.31841,1.03918
198.646,25.95414,98.63725,0.32037,1.03894
199.246,26.01136,98.6022,0.3236,1.0387
199.846,26.06869,98.61154,0.32337,1.03846
200.446,26.1257,98.63726,0.3218,1.03822
201.046,26.18296,98.63725,0.32292,1.03797
201.646,26.2403,98.6374,0.32207,1.03773
202.246,26.29767,98.629,0.32225,1.03749
202.846,26.3549,98.629,0.32582,1.03724
203.446,26.4123,98.6297,0.32543,1.037
204.046,26.46971,98.6287,0.32657,1.03675
204.646,26.5273,98.62875,0.32837,1.0365
205.246,26.58462,98.62963,0.33041,1.03626
205.846,26.642,98.6205,0.3269,1.03601
206.446,26.69929,98.6205,0.33091,1.03576
207.046,26.7566,98.65293,0.33184,1.03551
207.646,26.814,98.61352,0.33316,1.03526
208.246,26.8712,98.58774,0.33274,1.03501
208.846,26.92847,98.58775,0.33325,1.03475
209.446,26.98595,98.62272,0.33648,1.0345
210.046,27.04327,98.5878,0.33639,1.03425
210.646,27.1006,98.6216,0.3396,1.03399
211.246,27.15762,98.62075,0.34037,1.03374
211.846,27.21473,98.6207,0.34174,1.03348
212.446,27.2718,98.58758,0.34205,1.03323
213.046,27.3291,98.58775,0.34453,1.03297
213.646,27.3862,98.59813,0.34649,1.03271
214.246,27.4434,98.62076,0.347,1.03245
214.846,27.5006,98.62075,0.34994,1.03219
215.446,27.5578,98.62075,0.35077,1.03193
216.046,27.61498,98.62075,0.35455,1.03167
216.646,27.67213,98.63395,0.35564,1.03141
217.246,27.7292,98.64525,0.35811,1.03115
217.846,27.7864,98.64525,0.35813,1.03089
218.446,27.8437,98.61016,0.36169,1.03062
219.046,27.901,98.6125,0.363,1.03036
219.646,27.95835,98.6125,0.36474,1.0301
220.246,28.01565,98.61245,0.3678,1.02983
220.846,28.0732,98.58004,0.37097,1.02956
221.446,28.1307,98.59705,0.3735,1.0293
222.046,28.18818,98.596,0.37853,1.02903
222.646,28.245,98.59595,0.38164,1.02876
223.246,28.30208,98.5628,0.38386,1.02849
223.846,28.35932,98.563,0.38844,1.02822
224.446,28.41675,98.563,0.39497,1.02795
225.046,28.47448,98.563,0.39945,1.02768
225.646,28.5318,98.56441,0.4024,1.02741
226.246,28.58905,98.5381,0.40667,1.02713
226.846,28.6464,98.57125,0.40724,1.02686
227.446,28.7038,98.5509,0.40758,1.02659
228.046,28.76121,98.53823,0.40077,1.02631
228.646,28.81855,98.54647,0.39521,1.02604
229.246,28.8758,98.5465,0.39111,1.02576
229.846,28.933,98.54705,0.38889,1.02548
230.446,28.9901,98.57123,0.38315,1.02521
231.046,29.04717,98.57197,0.38131,1.02493
231.646,29.1043,98.5653,0.3821,1.02465
232.246,29.1613,98.52972,0.3784,1.02437
232.846,29.2185,98.4972,0.38004,1.02409
233.446,29.2756,98.53022,0.37995,1.02381
234.046,29.3327,98.53025,0.37847,1.02353
234.646,29.38983,98.52919,0.3816,1.02324
235.246,29.44688,98.49725,0.38294,1.02296
235.846,29.5041,98.49884,0.3852,1.02268
236.446,29.5613,98.53,0.38724,1.02239
237.046,29.6185,98.49726,0.38663,1.02211
237.646,29.67587,98.49725,0.39306,1.02182
238.246,29.73307,98.49725,0.3949,1.02153
238.846,29.7904,98.49725,0.39801,1.02125
239.446,29.8475,98.51297,0.40362,1.02096
240.046,29.90458,98.48132,0.40563,1.02067
240.646,29.9618,98.48085,0.41054,1.02038
241.246,30.01908,98.41521,0.41639,1.02009
241.846,30.0763,98.4449,0.41982,1.0198
242.446,30.1336,98.448,0.42554,1.01951
243.046,30.19074,98.42826,0.43021,1.01922
243.646,30.24805,98.41525,0.43598,1.01892
244.246,30.30541,98.41525,0.44342,1.01863
244.846,30.36269,98.41525,0.45098,1.01834
245.446,30.4199,98.41525,0.46151,1.01804
246.046,30.47713,98.41525,0.47158,1.01775
246.646,30.5343,98.4067,0.4819,1.01745
247.246,30.5917,98.3858,0.49371,1.01715
247.846,30.6491,98.3575,0.5111,1.01685
248.446,30.7066,98.36149,0.53929,1.01656
249.046,30.76391,98.39274,0.58428,1.01626
249.646,30.82153,98.3575,0.62997,1.01596
250.246,30.8791,98.3575,0.67899,1.01566
250.846,30.93675,98.3492,0.72913,1.01536
251.446,30.99444,98.34923,0.78457,1.01505
252.046,31.05203,98.31501,0.84471,1.01475
252.646,31.10955,98.31662,0.90775,1.01445
253.246,31.1674,98.34099,0.96869,1.01415
253.846,31.22503,98.32701,1.02162,1.01384
254.446,31.2827,98.308,1.06027,1.01354
255.046,31.3405,98.27285,1.07635,1.01323
255.646,31.39852,98.2585,1.07137,1.01292
256.246,31.4565,98.2585,1.03628,1.01262
256.846,31.51417,98.26677,0.98369,1.01231
257.446,31.5717,98.27683,0.91611,1.012
258.046,31.6288,98.26754,0.84865,1.01169
258.646,31.686,98.25046,0.78025,1.01138
259.246,31.7432,98.2505,0.72628,1.01107
259.846,31.80023,98.25072,0.67379,1.01076
260.446,31.85735,98.2122,0.63251,1.01045
261.046,31.9144,98.21209,0.59695,1.01014
261.646,31.9715,98.23103,0.56828,1.00983
262.246,32.0285,98.212,0.54095,1.00951
262.846,32.08554,98.212,0.51817,1.0092
263.446,32.14246,98.212,0.49692,1.00888
264.046,32.1993,98.21199,0.48087,1.00857
264.646,32.25654,98.14702,0.46551,1.00825
265.246,32.3136,98.14646,0.45283,1.00793
265.846,32.37081,98.11338,0.44321,1.00762
266.446,32.42807,98.1142,0.43342,1.0073
267.046,32.48532,98.07876,0.425,1.00698
267.646,32.5426,98.09701,0.42052,1.00666
268.246,32.59953,98.09696,0.41413,1.00634
268.846,32.65651,98.12858,0.40948,1.00602
269.446,32.7137,98.13,0.40573,1.0057
270.046,32.7709,98.1177,0.40195,1.00538
270.646,32.82824,98.097,0.40218,1.00505
271.246,32.88541,98.07743,0.40011,1.00473
271.846,32.94258,98.07225,0.39889,1.00441
272.446,32.99975,98.07225,0.39648,1.00408
273.046,33.0569,98.07338,0.3959,1.00376
273.646,33.11423,98.03968,0.39397,1.00343
274.246,33.17153,98.039,0.39573,1.0031
274.846,33.229,98.0397,0.39584,1.00278
275.446,33.28641,98.0065,0.39401,1.00245
276.046,33.34384,98.00661,0.39472,1.00212
276.646,33.40116,97.99024,0.3939,1.00179
277.246,33.45864,97.9824,0.39426,1.00146
277.846,33.51615,97.94875,0.39721,1.00113
278.446,33.57334,97.9421,0.39587,1.0008
279.046,33.6305,97.93225,0.39505,1.00047
279.646,33.6878,97.93195,0.39682,1.00013
280.246,33.7453,97.9161,0.39596,0.9998
280.846,33.80273,97.94159,0.39901,0.99947
281.446,33.86023,97.916,0.39763,0.99913
282.046,33.91767,97.88319,0.39984,0.9988
282.646,33.97473,97.8499,0.39822,0.99846
283.246,34.03223,97.84087,0.39852,0.99813
283.846,34.08959,97.84175,0.39709,0.99779
284.446,34.1474,97.82848,0.39794,0.99745
285.046,34.20514,97.8173,0.39813,0.99711
285.646,34.26273,97.79292,0.39804,0.99678
286.246,34.32035,97.78395,0.39588,0.99644
286.846,34.37798,97.77601,0.40085,0.9961
287.446,34.43544,97.74945,0.39786,0.99576
288.046,34.49304,97.71879,0.39913,0.99542
288.646,34.55045,97.7186,0.3957,0.99507
289.246,34.60797,97.68576,0.39615,0.99473
289.846,34.66553,97.66051,0.39799,0.99439
290.446,34.72334,97.65276,0.39488,0.99404
291.046,34.78087,97.63373,0.39625,0.9937
291.646,34.83852,97.59529,0.39727,0.99336
292.246,34.89618,97.59525,0.39674,0.99301
292.846,34.95381,97.59532,0.39694,0.99266
293.446,35.0115,97.51948,0.39778,0.99232
294.046,35.0692,97.5155,0.39571,0.99197
294.646,35.12684,97.54858,0.39126,0.99162
295.246,35.1845,97.5235,0.39389,0.99127
295.846,35.24191,97.5322,0.39398,0.99092
296.446,35.2995,97.49931,0.39241,0.99057
297.046,35.35694,97.4992,0.39355,0.99022
297.646,35.41437,97.46506,0.39194,0.98987
298.246,35.47197,97.46624,0.39352,0.98952
298.846,35.5293,97.43338,0.39318,0.98917
299.446,35.58679,97.43308,0.39118,0.98882
300.046,35.64424,97.36753,0.39145,0.98846
300.646,35.70158,97.3675,0.38791,0.98811
301.246,35.75894,97.3597,0.38946,0.98775
301.846,35.81625,97.32226,0.38871,0.9874
302.446,35.8735,97.318,0.3885,0.98704
303.046,35.93076,97.3159,0.38619,0.98669
303.646,35.98816,97.28571,0.39051,0.98633
304.246,36.0456,97.2852,0.3868,0.98597
304.846,36.10281,97.2521,0.38811,0.98561
305.446,36.16024,97.23352,0.38735,0.98525
306.046,36.21745,97.2189,0.38745,0.98489
306.646,36.27482,97.20269,0.38555,0.98453
307.246,36.3324,97.17016,0.38647,0.98417
307.846,36.38977,97.17025,0.38731,0.98381
308.446,36.44716,97.13928,0.38746,0.98345
309.046,36.50438,97.13725,0.38628,0.98309
309.646,36.56162,97.13725,0.38536,0.98272
310.246,36.61888,97.12134,0.38466,0.98236
310.846,36.67628,97.10445,0.38606,0.982
311.446,36.73381,97.07133,0.38299,0.98163
312.046,36.79133,97.07149,0.38307,0.98127
312.646,36.84904,97.06336,0.38483,0.9809
313.246,36.90661,97.04675,0.3849,0.98053
313.846,36.9643,97.04675,0.38204,0.98017
314.446,37.02192,97.03742,0.3819,0.9798
315.046,37.0794,97.00495,0.38597,0.97943
315.646,37.13693,96.9894,0.38298,0.97906
316.246,37.19443,96.9382,0.38297,0.97869
316.846,37.25213,96.9395,0.38321,0.97832
317.446,37.30984,96.9067,0.38215,0.97795
318.046,37.36779,96.90654,0.38228,0.97758
318.646,37.42549,96.87393,0.38391,0.97721
319.246,37.4833,96.874,0.38309,0.97684
319.846,37.54097,96.87445,0.38176,0.97646
320.446,37.59875,96.84099,0.38012,0.97609
321.046,37.6565,96.8411,0.38224,0.97571
321.646,37.7142,96.8085,0.38322,0.97534
322.246,37.77169,96.77408,0.38382,0.97496
322.846,37.82946,96.77526,0.38184,0.97459
323.446,37.88709,96.73402,0.38284,0.97421
324.046,37.94493,96.72618,0.38045,0.97384
324.646,38.00334,96.70124,0.3818,0.97346
325.246,38.06128,96.70125,0.38311,0.97308
325.846,38.1192,96.70125,0.38238,0.9727
326.446,38.17711,96.66728,0.38386,0.97232
327.046,38.235,96.66761,0.38495,0.97194
327.646,38.29285,96.63524,0.38421,0.97156
328.246,38.3506,96.63541,0.38558,0.97118
328.846,38.40845,96.6356,0.38562,0.9708
329.446,38.46625,96.60433,0.38593,0.97042
330.046,38.52408,96.56952,0.38593,0.97003
330.646,38.58206,96.56889,0.38762,0.96965
331.246,38.63995,96.5372,0.38694,0.96927
331.846,38.69758,96.49562,0.38729,0.96888
332.446,38.7549,96.46254,0.38754,0.9685
333.046,38.81263,96.46262,0.38886,0.96811
333.646,38.8705,96.4298,0.38689,0.96773
334.246,38.92856,96.43058,0.38731,0.96734
334.846,38.9865,96.3719,0.3876,0.96695
335.446,39.04417,96.3483,0.39005,0.96656
336.046,39.1019,96.36664,0.39124,0.96618
336.646,39.15961,96.33944,0.39252,0.96579
337.246,39.21736,96.30623,0.39161,0.9654
337.846,39.2752,96.27242,0.39462,0.96501
338.446,39.33316,96.24879,0.39268,0.96462
339.046,39.39103,96.24048,0.39349,0.96423
339.646,39.44895,96.20767,0.39493,0.96383
340.246,39.50678,96.20326,0.39556,0.96344
340.846,39.56446,96.17491,0.39693,0.96305
341.446,39.62225,96.14139,0.39748,0.96266
342.046,39.68016,96.09825,0.39835,0.96226
342.646,39.73814,96.05022,0.39708,0.96187
343.246,39.79606,96.04649,0.39819,0.96147
343.846,39.85389,96.00952,0.39927,0.96108
344.446,39.91174,95.98004,0.39759,0.96068
345.046,39.96982,95.97723,0.40003,0.96028
345.646,40.02786,95.9192,0.39836,0.95989
346.246,40.08592,95.8905,0.39949,0.95949
346.846,40.14392,95.86078,0.40278,0.95909
347.446,40.20208,95.85385,0.40005,0.95869
348.046,40.26016,95.81056,0.40065,0.95829
348.646,40.3183,95.76523,0.40269,0.95789
349.246,40.37641,95.7135,0.40226,0.95749
349.846,40.4345,95.65865,0.4051,0.95709
350.446,40.49263,95.61283,0.40539,0.95669
351.046,40.55077,95.59545,0.4054,0.95629
351.646,40.60857,95.54942,0.40436,0.95589
352.246,40.66673,95.51621,0.40667,0.95548
352.846,40.7248,95.48358,0.40894,0.95508
353.446,40.78297,95.4315,0.40777,0.95468
354.046,40.8414,95.3857,0.40877,0.95427
354.646,40.89967,95.33846,0.40698,0.95387
355.246,40.9581,95.30465,0.40958,0.95346
355.846,41.0163,95.27478,0.40821,0.95306
356.446,41.07442,95.19762,0.41035,0.95265
357.046,41.1325,95.15589,0.41005,0.95224
357.646,41.19061,95.0912,0.41285,0.95183
358.246,41.24872,95.01825,0.41159,0.95143
358.846,41.3069,94.98428,0.41441,0.95102
359.446,41.36515,94.92926,0.41436,0.95061
360.046,41.42341,94.89141,0.41695,0.9502
360.646,41.48165,94.84429,0.41795,0.94979
361.246,41.54014,94.77955,0.4179,0.94938
361.846,41.5983,94.738,0.41867,0.94897
362.446,41.6565,94.66466,0.41999,0.94855
363.046,41.71471,94.6053,0.42125,0.94814
363.646,41.77279,94.56237,0.42139,0.94773
364.246,41.83102,94.48533,0.42022,0.94732
364.846,41.8891,94.44474,0.42261,0.9469
365.446,41.94706,94.37679,0.42246,0.94649
366.046,42.00519,94.33168,0.42138,0.94607
366.646,42.06345,94.3026,0.42162,0.94566
367.246,42.12174,94.1973,0.42285,0.94524
367.846,42.1799,94.1151,0.42508,0.94483
368.446,42.23806,94.06582,0.42332,0.94441
369.046,42.29612,94.00604,0.42386,0.94399
369.646,42.35439,93.95316,0.42273,0.94357
370.246,42.41261,93.93692,0.42198,0.94315
370.846,42.47072,93.84744,0.42023,0.94274
371.446,42.52908,93.71755,0.42282,0.94232
372.046,42.58747,93.67426,0.42395,0.9419
372.646,42.64573,93.60307,0.42221,0.94148
373.246,42.7042,93.53355,0.42183,0.94105
373.846,42.7624,93.45649,0.42058,0.94063
374.446,42.82046,93.3808,0.42039,0.94021
375.046,42.87867,93.30409,0.42035,0.93979
375.646,42.9368,93.2444,0.41523,0.93937
376.246,42.9951,93.17299,0.41381,0.93894
376.846,43.05341,93.1025,0.4165,0.93852
377.446,43.1117,93.02425,0.41672,0.93809
378.046,43.1701,92.94672,0.41537,0.93767
378.646,43.2284,92.8652,0.41678,0.93724
379.246,43.28669,92.78735,0.41306,0.93682
379.846,43.34512,92.72277,0.41144,0.93639
380.446,43.40337,92.6632,0.41196,0.93597
381.046,43.46174,92.58038,0.40997,0.93554
381.646,43.52017,92.49775,0.40971,0.93511
382.246,43.57866,92.39408,0.41039,0.93468
382.846,43.63706,92.34952,0.40815,0.93425
383.446,43.69536,92.31579,0.40683,0.93382
384.046,43.75365,92.17795,0.40661,0.93339
384.646,43.81205,92.06526,0.40699,0.93296
385.246,43.87044,91.9988,0.40676,0.93253
385.846,43.9289,91.92241,0.40864,0.9321
386.446,43.9873,91.8198,0.41078,0.93167
387.046,44.04573,91.71765,0.41261,0.93124
387.646,44.10422,91.6617,0.41493,0.93081
388.246,44.1624,91.5521,0.41744,0.93037
388.846,44.22082,91.46504,0.42196,0.92994
389.446,44.2791,91.3706,0.42763,0.92951
390.046,44.3376,91.24964,0.43063,0.92907
390.646,44.3962,91.14384,0.43467,0.92864
391.246,44.4546,91.03604,0.43977,0.9282
391.846,44.51321,90.9119,0.44489,0.92776
392.446,44.5717,90.75997,0.45039,0.92733
393.046,44.63026,90.63426,0.45432,0.92689
393.646,44.6886,90.50554,0.45585,0.92645
394.246,44.74692,90.38801,0.46256,0.92602
394.846,44.80533,90.2264,0.46322,0.92558
395.446,44.8638,90.01135,0.46557,0.92514
396.046,44.92224,89.84607,0.46531,0.9247
396.646,44.9807,89.7132,0.46526,0.92426
397.246,45.03917,89.5662,0.46929,0.92382
397.846,45.09744,89.3806,0.46618,0.92338
398.446,45.15605,89.1893,0.4669,0.92294
399.046,45.21445,88.99633,0.45696,0.9225
399.646,45.2729,88.79648,0.45131,0.92206
400.246,45.33135,88.5698,0.446,0.92161
400.846,45.3899,88.38636,0.44182,0.92117
401.446,45.44835,88.17097,0.43764,0.92073
402.046,45.50683,87.96899,0.43922,0.92028
402.646,45.56521,87.7217,0.4352,0.91984
403.246,45.6235,87.49574,0.43474,0.9194
403.846,45.6819,87.23663,0.43414,0.91895
404.446,45.74029,86.97293,0.43498,0.91851
405.046,45.79873,86.65634,0.43466,0.91806
405.646,45.85712,86.34439,0.43331,0.91761
406.246,45.9156,86.09788,0.4353,0.91717
406.846,45.9741,85.8126,0.43898,0.91672
407.446,46.03265,85.52067,0.43872,0.91627
408.046,46.09109,85.17283,0.44375,0.91582
408.646,46.1496,84.83609,0.4508,0.91537
409.246,46.20819,84.46681,0.45563,0.91493
409.846,46.26685,84.1183,0.45996,0.91448
410.446,46.3255,83.7248,0.46719,0.91403
411.046,46.3837,83.3309,0.47386,0.91358
411.646,46.44227,82.93523,0.48392,0.91312
412.246,46.50087,82.49109,0.48782,0.91267
412.846,46.55964,82.035,0.49352,0.91222
413.446,46.61887,81.5558,0.50038,0.91177
414.046,46.67753,81.08697,0.50821,0.91132
414.646,46.73611,80.55116,0.52201,0.91086
415.246,46.7947,80.06951,0.53345,0.91041
415.846,46.8533,79.4984,0.54608,0.90996
416.446,46.91194,78.95354,0.55688,0.9095
417.046,46.9707,78.37777,0.5689,0.90905
417.646,47.0296,77.79604,0.57762,0.90859
418.246,47.08835,77.1735,0.58774,0.90814
418.846,47.14719,76.54839,0.59656,0.90768
419.446,47.2059,75.90592,0.6046,0.90723
420.046,47.26457,75.19435,0.6045,0.90677
420.646,47.3232,74.53626,0.61473,0.90631
421.246,47.38201,73.7781,0.62614,0.90585
421.846,47.44059,73.09527,0.63145,0.9054
422.446,47.49924,72.28408,0.64181,0.90494
423.046,47.55792,71.55545,0.65158,0.90448
423.646,47.61665,70.74373,0.65221,0.90402
424.246,47.67558,69.93384,0.65542,0.90356
424.846,47.73454,69.10046,0.65226,0.9031
425.446,47.79334,68.2971,0.64676,0.90264
426.046,47.85212,67.43496,0.64886,0.90218
426.646,47.91095,66.56864,0.65574,0.90172
427.246,47.96958,65.6776,0.66524,0.90125
427.846,48.02833,64.75793,0.6683,0.90079
428.446,48.08712,63.86744,0.67417,0.90033
429.046,48.14611,62.9268,0.67986,0.89987
429.646,48.20487,61.99055,0.68605,0.8994
430.246,48.26367,60.94295,0.69281,0.89894
430.846,48.32241,59.97889,0.69774,0.89847
431.446,48.38113,58.9026,0.70452,0.89801
432.046,48.44001,57.9148,0.70706,0.89755
432.646,48.49892,56.8841,0.70762,0.89708
433.246,48.55782,55.85125,0.70714,0.89661
433.846,48.6168,54.7135,0.70709,0.89615
434.446,48.67579,53.66684,0.70468,0.89568
435.046,48.73448,52.55699,0.70624,0.89521
435.646,48.79343,51.4844,0.70139,0.89475
436.246,48.85224,50.38541,0.69558,0.89428
436.846,48.91107,49.30055,0.69414,0.89381
437.446,48.96987,48.13825,0.68953,0.89334
438.046,49.02863,47.09324,0.68239,0.89287
438.646,49.08744,46.05135,0.67715,0.8924
439.246,49.14622,44.95832,0.66805,0.89193
439.846,49.20528,43.93192,0.65707,0.89146
440.446,49.2642,42.8513,0.64655,0.89099
441.046,49.32313,41.83918,0.63439,0.89052
441.646,49.3819,40.78537,0.62315,0.89005
442.246,49.44059,39.76739,0.60917,0.88958
442.846,49.49925,38.78567,0.59656,0.88911
443.446,49.558,37.8652,0.58123,0.88863
444.046,49.61658,36.9239,0.56498,0.88816
444.646,49.67536,36.07139,0.54778,0.88769
445.246,49.7342,35.19475,0.52841,0.88721
445.846,49.793,34.3979,0.5083,0.88674
446.446,49.8521,33.6211,0.49101,0.88627
447.046,49.91089,32.8669,0.47147,0.88579
447.646,49.96949,32.16288,0.45059,0.88532
448.246,50.02798,31.5085,0.43255,0.88484
448.846,50.08663,30.87902,0.41212,0.88436
449.446,50.1451,30.26734,0.39158,0.88389
450.046,50.20364,29.7454,0.37507,0.88341
450.646,50.26222,29.21841,0.35607,0.88293
451.246,50.3206,28.7655,0.34138,0.88246
451.846,50.37916,28.26807,0.32482,0.88198
452.446,50.43778,27.8525,0.30905,0.8815
453.046,50.4963,27.43865,0.29615,0.88102
453.646,50.55489,27.0754,0.28365,0.88054
454.246,50.6135,26.7133,0.27404,0.88006
454.846,50.672,26.3524,0.25966,0.87958
455.446,50.73085,26.05432,0.25135,0.8791
456.046,50.78953,25.74853,0.24199,0.87862
456.646,50.84822,25.47788,0.23211,0.87814
457.246,50.9071,25.2177,0.22146,0.87766
457.846,50.9657,24.94806,0.21086,0.87718
458.446,51.02467,24.69275,0.20556,0.8767
459.046,51.08367,24.4457,0.19421,0.87622
459.646,51.14266,24.21813,0.18638,0.87573
460.246,51.20177,24.01781,0.17543,0.87525
460.846,51.26082,23.79117,0.16618,0.87477
461.446,51.31977,23.60161,0.15671,0.87428
462.046,51.37885,23.41507,0.14718,0.8738
462.646,51.43776,23.23293,0.13756,0.87331
463.246,51.49667,23.0874,0.12894,0.87283
463.846,51.55547,22.92689,0.11906,0.87234
464.446,51.61436,22.75375,0.11004,0.87186
465.046,51.67344,22.6243,0.10027,0.87137
465.646,51.73254,22.50745,0.09115484,0.87089
466.246,51.79153,22.367,0.08203801,0.8704
466.846,51.85078,22.21096,0.07030753,0.86991
467.446,51.90992,22.12705,0.06379172,0.86943
468.046,51.96903,22.0026,0.0544534,0.86894
468.646,52.02811,21.8837,0.04730976,0.86845
469.246,52.0871,21.82493,0.03714106,0.86796
469.846,52.1462,21.69705,0.02914132,0.86747
470.446,52.20534,21.60698,0.02264268,0.86699
471.046,52.26447,21.48554,0.01684127,0.8665
471.646,52.32362,21.40717,0.0108161,0.86601
472.246,52.38276,21.32292,0.00138197,0.86552
472.846,52.44185,21.2456,-0.004331298,0.86503
473.446,52.5008,21.14505,-0.00541936,0.86454
474.046,52.5598,21.07916,-0.01655073,0.86405
474.646,52.6188,21.01805,-0.02209689,0.86355
475.246,52.6777,20.93667,-0.02615105,0.86306
475.846,52.73673,20.8528,-0.02993453,0.86257
476.446,52.7956,20.81705,-0.03637079,0.86208
477.046,52.85462,20.78635,-0.03873046,0.86159
477.646,52.91355,20.68429,-0.04133335,0.86109
478.246,52.9726,20.6349,-0.04547748,0.8606
478.846,53.03161,20.573,-0.04743052,0.86011
479.446,53.0907,20.53255,-0.04909329,0.85961
480.046,53.14949,20.46867,-0.05548443,0.85912
480.646,53.2084,20.46965,-0.05441054,0.85862
481.246,53.2673,20.4317,-0.05259877,0.85813
481.846,53.32643,20.36725,-0.04918278,0.85763
482.446,53.3857,20.3342,-0.05193346,0.85714
483.046,53.4447,20.28667,-0.050247,0.85664
483.646,53.5038,20.22478,-0.05018559,0.85615
484.246,53.5627,20.1673,-0.04808247,0.85565
484.846,53.62175,20.16045,-0.04868556,0.85515
485.446,53.6805,20.12357,-0.04583062,0.85466
486.046,53.73949,20.0911,-0.04775645,0.85416
486.646,53.79841,20.05799,-0.04141785,0.85366
487.246,53.8573,20.02437,-0.04404508,0.85316
487.846,53.9163,20.0076,-0.04215659,0.85266
488.446,53.97521,19.96025,-0.03723117,0.85217
489.046,54.0341,19.92525,-0.03893848,0.85167
489.646,54.0931,19.90134,-0.03833269,0.85117
490.246,54.15229,19.86665,-0.03939853,0.85067
490.846,54.2115,19.86871,-0.03664728,0.85017
491.446,54.2707,19.83586,-0.03930862,0.84967
492.046,54.3298,19.76669,-0.03984806,0.84917
492.646,54.38905,19.7675,-0.03910549,0.84867
493.246,54.44825,19.7343,-0.04117781,0.84817
493.846,54.5075,19.73457,-0.04250736,0.84766
494.446,54.5668,19.70206,-0.04419558,0.84716
495.046,54.62624,19.6688,-0.04470142,0.84666
495.646,54.68583,19.64276,-0.04638518,0.84616
496.246,54.7454,19.61125,-0.04814055,0.84565
496.846,54.8049,19.58654,-0.04719675,0.84515
497.446,54.86436,19.58625,-0.05097362,0.84465
498.046,54.9238,19.5864,-0.05312202,0.84414
498.646,54.98327,19.5533,-0.0536237,0.84364
499.246,55.0429,19.52115,-0.05479266,0.84314
499.846,55.1025,19.52061,-0.05587465,0.84263
500.446,55.1623,19.48755,-0.05764707,0.84213
501.046,55.22189,19.47259,-0.05586786,0.84162
501.646,55.2814,19.45475,-0.05870582,0.84112
502.246,55.34078,19.45466,-0.06044912,0.84061
502.846,55.4,19.41639,-0.06152982,0.84011
503.446,55.45969,19.38326,-0.06402688,0.8396
504.046,55.5191,19.38326,-0.06363776,0.83909
504.646,55.57884,19.3505,-0.06500598,0.83859
505.246,55.6387,19.3348,-0.06778231,0.83808
505.846,55.69823,19.33401,-0.06721816,0.83757
506.446,55.75792,19.35884,-0.07191196,0.83706
507.046,55.81729,19.36251,-0.07123728,0.83656
507.646,55.8767,19.29275,-0.07056309,0.83605
508.246,55.93609,19.294,-0.07108572,0.83554
508.846,55.9954,19.26002,-0.07085012,0.83503
509.446,56.0547,19.26018,-0.07513108,0.83452
510.046,56.11427,19.22704,-0.0730377,0.83401
510.646,56.1737,19.22695,-0.07343779,0.8335
511.246,56.23324,19.19408,-0.07570933,0.83299
511.846,56.2928,19.19417,-0.07492126,0.83248
512.446,56.35221,19.16939,-0.07732949,0.83197
513.046,56.41179,19.1604,-0.07636639,0.83146
513.646,56.47126,19.16125,-0.07832182,0.83095
514.246,56.53085,19.12646,-0.07774721,0.83044
514.846,56.5905,19.16103,-0.07938004,0.82993
515.446,56.6504,19.16125,-0.07991469,0.82942
516.046,56.71014,19.1595,-0.08038998,0.82891
516.646,56.7699,19.1285,-0.08138509,0.82839
517.246,56.82937,19.1285,-0.0842703,0.82788
517.846,56.88886,19.1285,-0.08299724,0.82737
518.446,56.9485,19.0956,-0.08250694,0.82686
519.046,57.00805,19.0955,-0.0823707,0.82634
519.646,57.0676,19.06542,-0.0869671,0.82583
520.246,57.1273,19.08735,-0.08813357,0.82531
520.846,57.18675,19.0875,-0.09059779,0.8248
521.446,57.2463,19.06032,-0.08564882,0.82429
522.046,57.30582,19.02538,-0.08850641,0.82377
522.646,57.36561,19.06191,-0.08868313,0.82326
523.246,57.42535,19.02457,-0.09003479,0.82274
523.846,57.4852,19.0031,-0.09056807,0.82223
524.446,57.5449,19.01847,-0.09168283,0.82171
525.046,57.60448,18.98866,-0.09543992,0.82119
525.646,57.66409,18.95453,-0.09366219,0.82068
526.246,57.72361,18.95583,-0.09479062,0.82016
526.846,57.7832,18.9231,-0.09402303,0.81965
527.446,57.84296,18.9227,-0.0959073,0.81913
528.046,57.90274,18.9311,-0.09362842,0.81861
528.646,57.96255,18.93358,-0.09586704,0.81809
529.246,58.0222,18.93925,-0.09475079,0.81758
529.846,58.08205,18.93928,-0.0966597,0.81706
530.446,58.1416,18.97279,-0.09410245,0.81654
531.046,58.20139,18.93927,-0.09243886,0.81602
531.646,58.26116,18.93974,-0.09207867,0.8155
532.246,58.32088,18.87256,-0.0923794,0.81498
532.846,58.3806,18.8735,-0.09367121,0.81447
533.446,58.44022,18.87347,-0.09355409,0.81395
534.046,58.4998,18.8731,-0.09093829,0.81343
534.646,58.5595,18.84,-0.09312563,0.81291
535.246,58.61923,18.84049,-0.09298567,0.81239
535.846,58.67886,18.80775,-0.09306899,0.81187
536.446,58.7384,18.81447,-0.0935722,0.81135
537.046,58.798,18.8405,-0.09741148,0.81082
537.646,58.8577,18.83493,-0.09354053,0.8103
538.246,58.91765,18.8063,-0.09380249,0.80978
538.846,58.97732,18.824,-0.09450994,0.80926
539.446,59.03702,18.824,-0.09617962,0.80874
540.046,59.0967,18.81251,-0.10047,0.80822
540.646,59.15639,18.791,-0.10151,0.8077
541.246,59.21615,18.76172,-0.10101,0.80717
541.846,59.27584,18.75135,-0.09920841,0.80665
542.446,59.3354,18.74995,-0.09849711,0.80613
543.046,59.395,18.75,-0.09989247,0.8056
543.646,59.45463,18.7417,-0.10055,0.80508
544.246,59.5141,18.72525,-0.10128,0.80456
544.846,59.57369,18.7239,-0.10383,0.80403
545.446,59.63315,18.69249,-0.10665,0.80351
546.046,59.69266,18.69247,-0.10633,0.80299
546.646,59.7524,18.65849,-0.10952,0.80246
547.246,59.81204,18.69258,-0.107,0.80194
547.846,59.8717,18.65955,-0.10761,0.80141
548.446,59.9313,18.6595,-0.11176,0.80089
549.046,59.99089,18.6595,-0.11177,0.80036
549.646,60.0505,18.6595,-0.11269,0.79984
550.246,60.1101,18.62566,-0.11082,0.79931
550.846,60.1696,18.6268,-0.11353,0.79878
551.446,60.229,18.62678,-0.11277,0.79826
552.046,60.2882,18.59529,-0.11596,0.79773
552.646,60.3477,18.56007,-0.11667,0.79721
553.246,60.4072,18.56075,-0.11699,0.79668
553.846,60.46679,18.56075,-0.11282,0.79615
554.446,60.52649,18.5608,-0.11538,0.79563
555.046,60.58594,18.52872,-0.11785,0.7951
555.646,60.64544,18.528,-0.11855,0.79457
556.246,60.705,18.52809,-0.12016,0.79404
556.846,60.7644,18.49531,-0.12317,0.79351
557.446,60.82402,18.495,-0.12413,0.79299
558.046,60.8836,18.495,-0.12635,0.79246
558.646,60.9431,18.48115,-0.12393,0.79193
559.246,61.00277,18.48676,-0.1252,0.7914
559.846,61.0624,18.45439,-0.12256,0.79087
560.446,61.12191,18.43198,-0.12621,0.79034
561.046,61.18165,18.38805,-0.12797,0.78981
561.646,61.2412,18.35984,-0.12889,0.78928
562.246,61.30105,18.3879,-0.12919,0.78875
562.846,61.36105,18.42071,-0.1293,0.78822
563.446,61.42077,18.35474,-0.13367,0.78769
564.046,61.4807,18.37603,-0.1359,0.78716
564.646,61.54064,18.3227,-0.13619,0.78663
565.246,61.6007,18.35585,-0.13502,0.7861
565.846,61.6606,18.33547,-0.1353,0.78557
566.446,61.7207,18.322,-0.1364,0.78504
567.046,61.78066,18.32205,-0.13986,0.78451
567.646,61.8406,18.2893,-0.13866,0.78398
568.246,61.90081,18.28925,-0.14152,0.78345
568.846,61.9609,18.26912,-0.14073,0.78291
569.446,62.0211,18.25626,-0.14318,0.78238
570.046,62.08138,18.2621,-0.14486,0.78185
570.646,62.14153,18.2565,-0.14553,0.78132
571.246,62.2018,18.25931,-0.14707,0.78079
571.846,62.26204,18.251,-0.15068,0.78025
572.446,62.32204,18.2235,-0.15112,0.77972
573.046,62.38225,18.2075,-0.15119,0.77919
573.646,62.44245,18.1905,-0.14864,0.77865
574.246,62.50266,18.1905,-0.14932,0.77812
574.846,62.5627,18.19025,-0.14937,0.77759
575.446,62.6228,18.15653,-0.14991,0.77705
576.046,62.683,18.17792,-0.15392,0.77652
576.646,62.7431,18.14949,-0.15256,0.77598
577.246,62.80324,18.14946,-0.15377,0.77545
577.846,62.8632,18.1163,-0.15515,0.77492
578.446,62.9233,18.11651,-0.15835,0.77438
579.046,62.98325,18.0844,-0.1549,0.77385
579.646,63.04328,18.08376,-0.15844,0.77331
580.246,63.10317,18.0485,-0.16066,0.77278
580.846,63.16313,18.01523,-0.15889,0.77224
581.446,63.22306,18.05467,-0.16104,0.77171
582.046,63.28304,18.08391,-0.15761,0.77117
582.646,63.34307,18.06677,-0.16367,0.77063
583.246,63.4031,18.05379,-0.16038,0.7701
583.846,63.463,18.0084,-0.16322,0.76956
584.446,63.52284,17.98774,-0.16434,0.76903
585.046,63.58268,17.9881,-0.16561,0.76849
585.646,63.64236,17.9875,-0.16644,0.76795
586.246,63.70231,17.9875,-0.16661,0.76742
586.846,63.76203,17.95459,-0.1655,0.76688
587.446,63.8217,17.9548,-0.16489,0.76634
588.046,63.88117,17.92203,-0.16566,0.7658
588.646,63.9409,17.91859,-0.16392,0.76527
589.246,64.0009,17.8889,-0.16726,0.76473
589.846,64.06062,17.8709,-0.16546,0.76419
590.446,64.12054,17.85601,-0.16571,0.76365
591.046,64.18035,17.85601,-0.1676,0.76312
591.646,64.2402,17.86413,-0.17122,0.76258
592.246,64.30028,17.85612,-0.17168,0.76204
592.846,64.36018,17.82235,-0.16855,0.7615
593.446,64.4199,17.79019,-0.17046,0.76096
594.046,64.47984,17.77234,-0.17214,0.76042
594.646,64.53958,17.75759,-0.17294,0.75989
595.246,64.5997,17.79025,-0.17254,0.75935
595.846,64.65977,17.79025,-0.17328,0.75881
596.446,64.72,17.79045,-0.17215,0.75827
597.046,64.78026,17.7573,-0.17145,0.75773
597.646,64.8403,17.75725,-0.1762,0.75719
598.246,64.90041,17.75514,-0.17374,0.75665
598.846,64.96039,17.7245,-0.1795,0.75611
599.446,65.0205,17.69,-0.17821,0.75557
600.046,65.08072,17.6915,-0.18017,0.75503
600.646,65.1409,17.69148,-0.18262,0.75449
601.246,65.2012,17.6611,-0.18366,0.75395
601.846,65.26145,17.68349,-0.18068,0.75341
602.446,65.32175,17.64931,-0.1833,0.75287
603.046,65.3822,17.6505,-0.18182,0.75233
603.646,65.44261,17.6505,-0.18454,0.75179
604.246,65.503,17.65063,-0.18546,0.75125
604.846,65.56319,17.61755,-0.18735,0.7507
605.446,65.62347,17.6175,-0.18441,0.75016
606.046,65.6837,17.61758,-0.18787,0.74962
606.646,65.744,17.58507,-0.18876,0.74908
607.246,65.80418,17.58475,-0.18913,0.74854
607.846,65.86437,17.58475,-0.18897,0.748
608.446,65.92458,17.58475,-0.18918,0.74745
609.046,65.98484,17.56148,-0.19101,0.74691
609.646,66.04507,17.54341,-0.18752,0.74637
610.246,66.10531,17.5104,-0.1927,0.74583
610.846,66.1656,17.51049,-0.19062,0.74529
611.446,66.22577,17.5284,-0.19346,0.74474
612.046,66.28588,17.49428,-0.19314,0.7442
612.646,66.346,17.49425,-0.19253,0.74366
613.246,66.40607,17.49426,-0.196,0.74311
613.846,66.46632,17.46162,-0.19448,0.74257
614.446,66.52656,17.46125,-0.19671,0.74203
615.046,66.5868,17.46123,-0.19795,0.74149
615.646,66.6471,17.428,-0.19424,0.74094
616.246,66.70737,17.42718,-0.19487,0.7404
616.846,66.76769,17.44315,-0.19509,0.73986
617.446,66.82789,17.47772,-0.19638,0.73931
618.046,66.88802,17.44471,-0.19989,0.73877
618.646,66.94825,17.44584,-0.19931,0.73822
619.246,67.00839,17.37872,-0.19778,0.73768
619.846,67.06864,17.37875,-0.19794,0.73714
620.446,67.12876,17.37875,-0.19808,0.73659
621.046,67.18881,17.35499,-0.19717,0.73605
621.646,67.249,17.379,-0.20071,0.7355
622.246,67.3091,17.35426,-0.19932,0.73496
622.846,67.36925,17.35425,-0.20104,0.73441
623.446,67.4293,17.346,-0.19808,0.73387
624.046,67.48959,17.34596,-0.19945,0.73332
624.646,67.5499,17.29645,-0.19727,0.73278
625.246,67.61012,17.29642,-0.20029,0.73223
625.846,67.67025,17.29097,-0.19867,0.73169
626.446,67.7303,17.31325,-0.20041,0.73114
627.046,67.79029,17.31326,-0.20168,0.7306
627.646,67.85034,17.2969,-0.20091,0.73005
628.246,67.91045,17.26378,-0.20149,0.72951
628.846,67.97068,17.2637,-0.20132,0.72896
629.446,68.031,17.23891,-0.19867,0.72842
630.046,68.09128,17.239,-0.20299,0.72787
630.646,68.1513,17.239,-0.20138,0.72733
631.246,68.21144,17.239,-0.2029,0.72678
631.846,68.27169,17.239,-0.20373,0.72623
632.446,68.33192,17.23919,-0.20122,0.72569
633.046,68.3925,17.2721,-0.20532,0.72514
633.646,68.4529,17.26494,-0.20555,0.72459
634.246,68.5132,17.23114,-0.19908,0.72405
634.846,68.57366,17.19805,-0.1976,0.7235
635.446,68.63412,17.1986,-0.20168,0.72296
636.046,68.69454,17.231,-0.19932,0.72241
636.646,68.7551,17.212,-0.20166,0.72186
637.246,68.8155,17.2307,-0.19698,0.72131
637.846,68.87581,17.19789,-0.19628,0.72077
638.446,68.9358,17.19766,-0.20204,0.72022
639.046,68.99598,17.16755,-0.20037,0.71967
639.646,69.05625,17.13224,-0.19904,0.71913
640.246,69.11663,17.16451,-0.20464,0.71858
640.846,69.1772,17.165,-0.20271,0.71803
641.446,69.2375,17.165,-0.20253,0.71749
642.046,69.29782,17.17238,-0.20379,0.71694
642.646,69.35783,17.13992,-0.20406,0.71639
643.246,69.41797,17.14025,-0.20063,0.71584
643.846,69.47782,17.14025,-0.20129,0.71529
644.446,69.53791,17.14033,-0.20325,0.71475
645.046,69.59793,17.12397,-0.20406,0.7142
645.646,69.658,17.12399,-0.20501,0.71365
646.246,69.718,17.08226,-0.20405,0.7131
646.846,69.77786,17.08275,-0.20664,0.71256
647.446,69.8377,17.0492,-0.20663,0.71201
648.046,69.89779,17.07364,-0.20651,0.71146
648.646,69.95774,17.08269,-0.20677,0.71091
649.246,70.01782,17.08276,-0.20768,0.71036
649.846,70.07805,17.05013,-0.2071,0.70981
650.446,70.13838,17.05,-0.21048,0.70927
651.046,70.19864,17.05808,-0.21033,0.70872
651.646,70.2586,17.0659,-0.20848,0.70817
652.246,70.31863,17.06624,-0.21033,0.70762
652.846,70.37865,17.03368,-0.20932,0.70707
653.446,70.43898,17.05825,-0.21191,0.70652
654.046,70.4992,17.02528,-0.21476,0.70598
654.646,70.55955,17.02468,-0.21609,0.70543
655.246,70.61973,16.99225,-0.21466,0.70488
655.846,70.6799,16.99225,-0.21715,0.70433
656.446,70.7401,16.99246,-0.21768,0.70378
657.046,70.80025,16.95951,-0.22092,0.70323
657.646,70.86046,16.96172,-0.22184,0.70268
658.246,70.92065,16.9925,-0.22118,0.70213
658.846,70.9808,16.9925,-0.22303,0.70158
659.446,71.0411,16.9925,-0.22103,0.70103
660.046,71.10144,16.9925,-0.22167,0.70048
660.646,71.1618,16.9925,-0.16906,0.69994
661.246,71.22236,16.99256,-0.17738,0.69939
661.846,71.28265,16.95985,-0.18196,0.69884
662.446,71.343,16.99471,-0.18831,0.69829
663.046,71.40344,16.9596,-0.18725,0.69774
663.646,71.46387,16.99458,-0.18901,0.69719
664.246,71.52436,16.99225,-0.19248,0.69664
664.846,71.58463,16.99225,-0.19216,0.69609
665.446,71.6447,16.99226,-0.19397,0.69554
666.046,71.70492,16.96043,-0.19558,0.69499
666.646,71.76512,16.9353,-0.19794,0.69444
667.246,71.8256,16.9265,-0.19701,0.69389
667.846,71.88599,16.92633,-0.19617,0.69334
668.446,71.9464,16.95947,-0.19271,0.69279
669.046,72.00678,16.95893,-0.19445,0.69224
669.646,72.0672,16.92649,-0.19798,0.69169
670.246,72.1276,16.9265,-0.19642,0.69114
670.846,72.18819,16.92649,-0.19773,0.69059
671.446,72.24861,16.89336,-0.20085,0.69004
672.046,72.30909,16.86879,-0.20469,0.68949
672.646,72.36932,16.8935,-0.19849,0.68894
673.246,72.42968,16.8934,-0.20165,0.68839
673.846,72.48992,16.89347,-0.20416,0.68784
674.446,72.55049,16.89268,-0.20727,0.68729
675.046,72.6113,16.89251,-0.20706,0.68674
675.646,72.67185,16.92625,-0.21158,0.68619
676.246,72.73271,16.9263,-0.21084,0.68564
676.846,72.79342,16.90217,-0.20907,0.68509
677.446,72.85405,16.90175,-0.21036,0.68454
678.046,72.91473,16.90175,-0.21325,0.68399
678.646,72.97522,16.90188,-0.21274,0.68344
679.246,73.0361,16.86092,-0.21705,0.68289
679.846,73.09699,16.86075,-0.21441,0.68234
680.446,73.1578,16.86076,-0.21775,0.68179
681.046,73.2187,16.88503,-0.21984,0.68124
681.646,73.27938,16.86051,-0.22165,0.68069
682.246,73.33995,16.84238,-0.22155,0.68014
682.846,73.40058,16.82775,-0.22032,0.67959
683.446,73.46112,16.82907,-0.22738,0.67904
684.046,73.52169,16.836,-0.22582,0.67848
684.646,73.58208,16.83435,-0.22514,0.67793
685.246,73.64246,16.8358,-0.22989,0.67738
685.846,73.70283,16.82658,-0.22811,0.67683
686.446,73.7633,16.78145,-0.22735,0.67628
687.046,73.82381,16.8344,-0.23107,0.67573
687.646,73.88432,16.84701,-0.22926,0.67518
688.246,73.94473,16.81456,-0.23331,0.67463
688.846,74.00537,16.78559,-0.23378,0.67408
689.446,74.06585,16.781,-0.23543,0.67353
690.046,74.1263,16.781,-0.23211,0.67298
690.646,74.18665,16.781,-0.23778,0.67243
691.246,74.247,16.78108,-0.24251,0.67188
691.846,74.30752,16.74836,-0.23681,0.67133
692.446,74.3681,16.74825,-0.2646,0.67078
693.046,74.42855,16.74825,-0.27604,0.67023
693.646,74.4889,16.74825,-0.28308,0.66968
694.246,74.54909,16.74825,-0.28791,0.66912
694.846,74.60924,16.78125,-0.29126,0.66857
695.446,74.66971,16.7813,-0.29665,0.66802
696.046,74.7299,16.74827,-0.2997,0.66747
696.646,74.7903,16.7732,-0.30236,0.66692
697.246,74.85045,16.773,-0.30339,0.66637
697.846,74.9106,16.773,-0.30644,0.66582
698.446,74.97076,16.773,-0.30934,0.66527
698.646,74.99074,16.773,-0.31023,0.66509