File: 01_Data/Overstuffed_Chair_Polyester_Fabric/STA/N2/10K_min/Overstuffed_Chair_Polyester_Fabric_STA_N2_10KData_220204_R4.csv
##Temp./Â°C,Time/min,Mass(subtr.2)/%,DSC(subtr.2)/(mW/mg),Sensit./(uV/mW)
49.3,10.00917,100.223,0.00156248,1.07447
49.9,10.73291,100.238,0.02240608,1.07443
50.5,10.92078,100.206,0.03864628,1.07439
51.1,11.05998,100.245,0.05446605,1.07434
51.7,11.1778,100.252,0.06812125,1.0743
52.3,11.2834,100.293,0.07854735,1.07426
52.9,11.38025,100.297,0.08897831,1.07421
53.5,11.47027,100.296,0.0984768,1.07416
54.1,11.5557,100.268,0.10524,1.07412
54.7,11.6377,100.261,0.11374,1.07407
55.3,11.71692,100.24,0.11759,1.07402
55.9,11.79378,100.239,0.12316,1.07397
56.5,11.86856,100.25,0.12819,1.07392
57.1,11.9419,100.251,0.13284,1.07387
57.7,12.01415,100.249,0.13601,1.07382
58.3,12.08527,100.255,0.13776,1.07376
58.9,12.1553,100.276,0.1418,1.07371
59.5,12.22449,100.303,0.14213,1.07365
60.1,12.2932,100.326,0.14483,1.0736
60.7,12.3611,100.294,0.14556,1.07354
61.3,12.42882,100.296,0.14924,1.07348
61.9,12.49594,100.295,0.14954,1.07343
62.5,12.56277,100.297,0.15131,1.07337
63.1,12.62955,100.3271,0.15538,1.07331
63.7,12.6954,100.289,0.15372,1.07325
64.3,12.7614,100.259,0.15443,1.07318
64.9,12.8268,100.258,0.15569,1.07312
65.5,12.8923,100.291,0.15775,1.07306
66.1,12.9574,100.257,0.15841,1.07299
66.7,13.02241,100.258,0.16144,1.07293
67.3,13.08708,100.256,0.16054,1.07286
67.9,13.15175,100.2223,0.16125,1.0728
68.5,13.21606,100.268,0.16314,1.07273
69.1,13.28031,100.29,0.16522,1.07266
69.7,13.3441,100.324,0.16459,1.07259
70.3,13.40761,100.277,0.16873,1.07252
70.9,13.4713,100.254,0.1673,1.07245
71.5,13.53485,100.22,0.16721,1.07238
72.1,13.5987,100.19,0.16976,1.07231
72.7,13.66191,100.223,0.16923,1.07223
73.3,13.72504,100.224,0.17062,1.07216
73.9,13.78781,100.223,0.17327,1.07209
74.5,13.85091,100.222,0.17208,1.07201
75.1,13.91385,100.2872,0.17237,1.07193
75.7,13.97735,100.275,0.17206,1.07186
76.3,14.0403,100.254,0.17177,1.07178
76.9,14.10321,100.253,0.17254,1.0717
77.5,14.16557,100.223,0.17413,1.07162
78.1,14.22764,100.191,0.176,1.07154
78.7,14.2899,100.192,0.17653,1.07146
79.3,14.352,100.188,0.17626,1.07137
79.9,14.41431,100.191,0.17607,1.07129
80.5,14.4766,100.191,0.17788,1.07121
81.1,14.53839,100.1653,0.17858,1.07112
81.7,14.60024,100.189,0.17741,1.07103
82.3,14.66199,100.158,0.17926,1.07095
82.9,14.7237,100.164,0.17708,1.07086
83.5,14.785,100.184,0.17889,1.07077
84.1,14.84619,100.191,0.17975,1.07068
84.7,14.90725,100.191,0.18106,1.07059
85.3,14.9679,100.191,0.18197,1.0705
85.9,15.02883,100.158,0.18399,1.07041
86.5,15.0895,100.19,0.18285,1.07032
87.1,15.14993,100.1898,0.18167,1.07023
87.7,15.2107,100.185,0.18436,1.07013
88.3,15.271,100.17,0.1838,1.07004
88.9,15.331,100.189,0.18544,1.06994
89.5,15.39134,100.159,0.18681,1.06984
90.1,15.4512,100.2229,0.18739,1.06975
90.7,15.5116,100.195,0.18654,1.06965
91.3,15.5717,100.206,0.18838,1.06955
91.9,15.63199,100.191,0.19017,1.06945
92.5,15.69186,100.191,0.19015,1.06935
93.1,15.7516,100.191,0.19162,1.06925
93.7,15.8114,100.188,0.19207,1.06914
94.3,15.8711,100.159,0.19369,1.06904
94.9,15.9307,100.158,0.1941,1.06894
95.5,15.99029,100.177,0.19383,1.06883
96.1,16.04972,100.158,0.19492,1.06873
96.7,16.10913,100.191,0.19341,1.06862
97.3,16.16858,100.168,0.19455,1.06851
97.9,16.2276,100.191,0.19653,1.0684
98.5,16.28675,100.189,0.1967,1.0683
99.1,16.3456,100.224,0.19736,1.06819
99.7,16.4047,100.247,0.19644,1.06808
100.3,16.46395,100.248,0.19777,1.06796
100.9,16.52335,100.2149,0.19945,1.06785
101.5,16.58244,100.182,0.20159,1.06774
102.1,16.6416,100.183,0.19842,1.06762
102.7,16.7006,100.183,0.20144,1.06751
103.3,16.75949,100.15,0.20096,1.06739
103.9,16.81839,100.15,0.20137,1.06728
104.5,16.87709,100.149,0.2009,1.06716
105.1,16.93618,100.182,0.20436,1.06704
105.7,16.9953,100.183,0.20388,1.06692
106.3,17.05453,100.208,0.20187,1.0668
106.9,17.11374,100.177,0.20536,1.06668
107.5,17.17257,100.1213,0.20497,1.06656
108.1,17.2312,100.117,0.20622,1.06644
108.7,17.28961,100.15,0.20709,1.06632
109.3,17.34806,100.118,0.20839,1.06619
109.9,17.40694,100.148,0.20963,1.06607
110.5,17.46572,100.182,0.20996,1.06594
111.1,17.52457,100.196,0.20965,1.06582
111.7,17.58311,100.199,0.21118,1.06569
112.3,17.64171,100.2,0.21351,1.06556
112.9,17.70037,100.231,0.21194,1.06543
113.5,17.7591,100.172,0.21485,1.06531
114.1,17.8179,100.164,0.21558,1.06518
114.7,17.8765,100.164,0.21506,1.06504
115.3,17.9352,100.164,0.21708,1.06491
115.9,17.99362,100.164,0.21732,1.06478
116.5,18.0522,100.164,0.21834,1.06465
117.1,18.11075,100.162,0.2198,1.06451
117.7,18.1692,100.14,0.21995,1.06438
118.3,18.22795,100.171,0.22036,1.06424
118.9,18.28641,100.172,0.22026,1.0641
119.5,18.34496,100.171,0.22143,1.06397
120.1,18.40336,100.204,0.22219,1.06383
120.7,18.46183,100.218,0.22509,1.06369
121.3,18.52018,100.228,0.22563,1.06355
121.9,18.57863,100.22,0.22694,1.06341
122.5,18.63705,100.228,0.22944,1.06327
123.1,18.69558,100.225,0.2288,1.06312
123.7,18.75395,100.196,0.22906,1.06298
124.3,18.8122,100.196,0.23159,1.06284
124.9,18.8704,100.172,0.23346,1.06269
125.5,18.9286,100.172,0.23669,1.06255
126.1,18.98698,100.172,0.23687,1.0624
126.7,19.0453,100.171,0.23964,1.06225
127.3,19.10363,100.198,0.24154,1.06211
127.9,19.16191,100.164,0.24504,1.06196
128.5,19.21976,100.164,0.24692,1.06181
129.1,19.27795,100.164,0.25005,1.06166
129.7,19.33612,100.174,0.25448,1.06151
130.3,19.39431,100.196,0.25562,1.06135
130.9,19.45288,100.196,0.25675,1.0612
131.5,19.51091,100.194,0.25947,1.06105
132.1,19.56925,100.164,0.25812,1.06089
132.7,19.62745,100.196,0.2593,1.06074
133.3,19.68553,100.196,0.2573,1.06058
133.9,19.74359,100.195,0.25472,1.06043
134.5,19.80181,100.2281,0.25053,1.06027
135.1,19.85954,100.204,0.24589,1.06011
135.7,19.9176,100.236,0.24276,1.05995
136.3,19.97551,100.2702,0.23803,1.05979
136.9,20.03341,100.269,0.23263,1.05963
137.5,20.09136,100.26,0.22997,1.05947
138.1,20.1493,100.26,0.22646,1.05931
138.7,20.2075,100.228,0.22129,1.05914
139.3,20.26548,100.228,0.2216,1.05898
139.9,20.3235,100.219,0.2197,1.05881
140.5,20.38141,100.196,0.21818,1.05865
141.1,20.4387,100.165,0.2182,1.05848
141.7,20.49664,100.1317,0.21614,1.05832
142.3,20.55467,100.1317,0.21486,1.05815
142.9,20.61284,100.163,0.21488,1.05798
143.5,20.67116,100.177,0.21488,1.05781
144.1,20.72889,100.196,0.21691,1.05764
144.7,20.78637,100.196,0.2157,1.05747
145.3,20.84398,100.196,0.21506,1.0573
145.9,20.90172,100.228,0.21634,1.05712
146.5,20.9594,100.22,0.21725,1.05695
147.1,21.01752,100.228,0.21795,1.05678
147.7,21.07517,100.253,0.21681,1.0566
148.3,21.13299,100.233,0.21975,1.05643
148.9,21.19071,100.193,0.21695,1.05625
149.5,21.24861,100.1935,0.21982,1.05607
150.1,21.30621,100.225,0.22129,1.05589
150.7,21.36386,100.2076,0.22067,1.05571
151.3,21.42144,100.209,0.22358,1.05554
151.9,21.47924,100.2097,0.22217,1.05535
152.5,21.53685,100.226,0.222,1.05517
153.1,21.59449,100.222,0.22222,1.05499
153.7,21.65223,100.241,0.22288,1.05481
154.3,21.70986,100.24,0.22257,1.05463
154.9,21.76732,100.186,0.22464,1.05444
155.5,21.8249,100.184,0.22529,1.05426
156.1,21.88221,100.252,0.22361,1.05407
156.7,21.93978,100.217,0.22569,1.05388
157.3,21.99728,100.218,0.22731,1.0537
157.9,22.05473,100.185,0.22949,1.05351
158.5,22.11215,100.185,0.22908,1.05332
159.1,22.1694,100.185,0.23059,1.05313
159.7,22.22687,100.153,0.22987,1.05294
160.3,22.2842,100.211,0.22959,1.05275
160.9,22.3417,100.217,0.22852,1.05255
161.5,22.39924,100.185,0.23185,1.05236
162.1,22.4561,100.185,0.23118,1.05217
162.7,22.51357,100.185,0.23143,1.05197
163.3,22.57101,100.185,0.23222,1.05178
163.9,22.62837,100.211,0.23173,1.05158
164.5,22.68609,100.185,0.23239,1.05139
165.1,22.74355,100.185,0.23143,1.05119
165.7,22.80086,100.185,0.2333,1.05099
166.3,22.8583,100.185,0.23255,1.05079
166.9,22.91565,100.183,0.23347,1.05059
167.5,22.9729,100.201,0.23391,1.05039
168.1,23.03029,100.201,0.23477,1.05019
168.7,23.0877,100.217,0.23318,1.04999
169.3,23.145,100.2175,0.23284,1.04978
169.9,23.20255,100.2,0.23661,1.04958
170.5,23.2601,100.201,0.23537,1.04938
171.1,23.31754,100.205,0.23456,1.04917
171.7,23.37489,100.193,0.23851,1.04897
172.3,23.43205,100.201,0.24009,1.04876
172.9,23.48924,100.201,0.23768,1.04855
173.5,23.54658,100.184,0.23854,1.04834
174.1,23.6039,100.185,0.24002,1.04813
174.7,23.66143,100.25,0.23761,1.04792
175.3,23.71876,100.249,0.24219,1.04771
175.9,23.7762,100.2577,0.24202,1.0475
176.5,23.8337,100.258,0.24162,1.04729
177.1,23.89074,100.2257,0.24336,1.04708
177.7,23.948,100.204,0.24232,1.04686
178.3,24.00544,100.193,0.24486,1.04665
178.9,24.0628,100.154,0.24482,1.04643
179.5,24.12023,100.126,0.24515,1.04622
180.1,24.17748,100.158,0.24419,1.046
180.7,24.23463,100.158,0.2467,1.04578
181.3,24.29187,100.18,0.24857,1.04557
181.9,24.3491,100.19,0.2468,1.04535
182.5,24.40626,100.1903,0.24725,1.04513
183.1,24.4634,100.2225,0.2483,1.04491
183.7,24.52066,100.215,0.24603,1.04469
184.3,24.57779,100.209,0.24957,1.04447
184.9,24.635,100.1907,0.24993,1.04424
185.5,24.69209,100.195,0.24985,1.04402
186.1,24.74932,100.255,0.25109,1.0438
186.7,24.80658,100.256,0.25282,1.04357
187.3,24.86383,100.223,0.25325,1.04334
187.9,24.92084,100.19,0.2525,1.04312
188.5,24.97762,100.19,0.25521,1.04289
189.1,25.03443,100.158,0.25292,1.04266
189.7,25.09176,100.158,0.25377,1.04244
190.3,25.14904,100.223,0.25468,1.04221
190.9,25.20675,100.255,0.25379,1.04198
191.5,25.264,100.275,0.25437,1.04174
192.1,25.32095,100.2871,0.25468,1.04151
192.7,25.37782,100.255,0.2548,1.04128
193.3,25.4348,100.223,0.25568,1.04105
193.9,25.49191,100.223,0.2548,1.04081
194.5,25.54948,100.215,0.25562,1.04058
195.1,25.6068,100.215,0.25554,1.04034
195.7,25.66416,100.199,0.25568,1.04011
196.3,25.7214,100.199,0.25889,1.03987
196.9,25.77805,100.199,0.25653,1.03963
197.5,25.8348,100.199,0.25889,1.0394
198.1,25.89186,100.201,0.25834,1.03916
198.7,25.94913,100.207,0.25604,1.03892
199.3,26.00685,100.207,0.25829,1.03868
199.9,26.06428,100.207,0.25791,1.03844
200.5,26.12146,100.211,0.26164,1.03819
201.1,26.17858,100.231,0.26335,1.03795
201.7,26.23569,100.215,0.26296,1.03771
202.3,26.293,100.191,0.26427,1.03746
202.9,26.35015,100.167,0.26828,1.03722
203.5,26.4071,100.1665,0.26636,1.03697
204.1,26.4643,100.167,0.26852,1.03673
204.7,26.5214,100.211,0.26873,1.03648
205.3,26.5786,100.223,0.26884,1.03623
205.9,26.6357,100.1945,0.27061,1.03598
206.5,26.6927,100.1613,0.27168,1.03574
207.1,26.74995,100.1591,0.27386,1.03549
207.7,26.8072,100.19,0.27428,1.03524
208.3,26.8643,100.216,0.27623,1.03498
208.9,26.92135,100.2133,0.27673,1.03473
209.5,26.97803,100.175,0.27832,1.03448
210.1,27.0349,100.146,0.2793,1.03423
210.7,27.0921,100.174,0.2822,1.03397
211.3,27.1491,100.207,0.28241,1.03372
211.9,27.2068,100.2066,0.28499,1.03346
212.5,27.26395,100.205,0.2852,1.0332
213.1,27.3212,100.239,0.2863,1.03295
213.7,27.3786,100.239,0.28816,1.03269
214.3,27.4357,100.239,0.28976,1.03243
214.9,27.4927,100.239,0.2915,1.03217
215.5,27.54972,100.207,0.29446,1.03191
216.1,27.607,100.191,0.29613,1.03165
216.7,27.66409,100.158,0.29815,1.03139
217.3,27.7214,100.158,0.29983,1.03113
217.9,27.77862,100.158,0.30101,1.03086
218.5,27.83592,100.158,0.30395,1.0306
219.1,27.8932,100.158,0.30619,1.03034
219.7,27.95038,100.158,0.30789,1.03007
220.3,28.00747,100.158,0.30974,1.02981
220.9,28.0648,100.158,0.31518,1.02954
221.5,28.12205,100.158,0.31642,1.02927
222.1,28.17959,100.158,0.32088,1.029
222.7,28.2369,100.158,0.32368,1.02874
223.3,28.29428,100.1586,0.32964,1.02847
223.9,28.3516,100.1262,0.32986,1.0282
224.5,28.40902,100.126,0.33572,1.02793
225.1,28.4663,100.126,0.33814,1.02765
225.7,28.5235,100.126,0.34328,1.02738
226.3,28.58072,100.126,0.34712,1.02711
226.9,28.63788,100.1016,0.34908,1.02684
227.5,28.69518,100.102,0.3472,1.02656
228.1,28.7523,100.102,0.34416,1.02629
228.7,28.8095,100.102,0.34089,1.02601
229.3,28.86678,100.102,0.33706,1.02574
229.9,28.92395,100.099,0.33327,1.02546
230.5,28.98113,100.118,0.33047,1.02518
231.1,29.0383,100.086,0.32704,1.0249
231.7,29.0955,100.086,0.32545,1.02462
232.3,29.15264,100.086,0.32404,1.02434
232.9,29.2098,100.086,0.32402,1.02406
233.5,29.2668,100.084,0.3245,1.02378
234.1,29.32385,100.0774,0.32544,1.0235
234.7,29.38102,100.086,0.32673,1.02322
235.3,29.43836,100.08,0.32687,1.02293
235.9,29.4954,100.054,0.32927,1.02265
236.5,29.55265,100.053,0.33032,1.02237
237.1,29.60988,100.054,0.33271,1.02208
237.7,29.66685,100.054,0.33608,1.02179
238.3,29.72395,100.054,0.338,1.02151
238.9,29.78104,100.054,0.34339,1.02122
239.5,29.8383,100.0215,0.34514,1.02093
240.1,29.8957,100.055,0.35033,1.02064
240.7,29.95303,100.056,0.35344,1.02035
241.3,30.01032,100.056,0.36023,1.02006
241.9,30.06755,100.026,0.36246,1.01977
242.5,30.12487,100.017,0.3676,1.01948
243.1,30.18212,99.99217,0.37433,1.01919
243.7,30.2394,99.99226,0.3808,1.0189
244.3,30.29673,99.95992,0.38867,1.0186
244.9,30.35375,99.99342,0.39714,1.01831
245.5,30.41109,99.9922,0.40531,1.01801
246.1,30.4683,100.024,0.41555,1.01772
246.7,30.5255,100.024,0.4268,1.01742
247.3,30.5828,100.024,0.43874,1.01713
247.9,30.6399,99.9605,0.4542,1.01683
248.5,30.6971,99.96029,0.48093,1.01653
249.1,30.75465,99.92791,0.51686,1.01623
249.7,30.81202,99.9269,0.56227,1.01593
250.3,30.86942,99.89559,0.61018,1.01563
250.9,30.9269,99.89564,0.66117,1.01533
251.5,30.98415,99.92803,0.71309,1.01503
252.1,31.0418,99.92786,0.77187,1.01473
252.7,31.09968,99.89525,0.83176,1.01442
253.3,31.15752,99.8956,0.89063,1.01412
253.9,31.21541,99.91996,0.94759,1.01381
254.5,31.27315,99.92787,0.98779,1.01351
255.1,31.33104,99.92786,1.011,1.0132
255.7,31.3887,99.90378,1.01236,1.0129
256.3,31.44639,99.8713,0.98864,1.01259
256.9,31.5039,99.87139,0.9458,1.01228
257.5,31.56138,99.87135,0.88508,1.01197
258.1,31.6187,99.90378,0.82192,1.01167
258.7,31.6759,99.9327,0.75537,1.01136
259.3,31.7329,99.9035,0.69757,1.01104
259.9,31.78968,99.8875,0.64756,1.01073
260.5,31.8466,99.8715,0.60023,1.01042
261.1,31.9037,99.83999,0.56375,1.01011
261.7,31.96084,99.83936,0.53303,1.0098
262.3,32.0178,99.83935,0.50118,1.00948
262.9,32.0747,99.806,0.47841,1.00917
263.5,32.1314,99.80702,0.45644,1.00885
264.1,32.18809,99.8394,0.44025,1.00854
264.7,32.24516,99.8208,0.42319,1.00822
265.3,32.30242,99.77509,0.41013,1.00791
265.9,32.36005,99.77595,0.39878,1.00759
266.5,32.41725,99.77504,0.38847,1.00727
267.1,32.4742,99.7966,0.38283,1.00695
267.7,32.5313,99.79902,0.37573,1.00663
268.3,32.5881,99.79908,0.37002,1.00631
268.9,32.6451,99.73602,0.36506,1.00599
269.5,32.7024,99.73472,0.36309,1.00567
270.1,32.75936,99.73476,0.36158,1.00535
270.7,32.81653,99.7024,0.35765,1.00502
271.3,32.87369,99.70245,0.35759,1.0047
271.9,32.9307,99.70506,0.35373,1.00438
272.5,32.98807,99.7043,0.35341,1.00405
273.1,33.04533,99.70244,0.35243,1.00373
273.7,33.1028,99.6678,0.35302,1.0034
274.3,33.16024,99.67012,0.35062,1.00307
274.9,33.2175,99.63198,0.35338,1.00275
275.5,33.2748,99.60595,0.35104,1.00242
276.1,33.33211,99.60611,0.35222,1.00209
276.7,33.3895,99.60611,0.35117,1.00176
277.3,33.44668,99.6063,0.35273,1.00143
277.9,33.50385,99.57388,0.35427,1.0011
278.5,33.561,99.57384,0.35652,1.00077
279.1,33.6182,99.56764,0.35481,1.00044
279.7,33.67544,99.5418,0.35743,1.0001
280.3,33.73263,99.53453,0.35783,0.99977
280.9,33.79012,99.49337,0.35748,0.99944
281.5,33.84749,99.46133,0.35721,0.9991
282.1,33.90521,99.46112,0.35648,0.99877
282.7,33.96275,99.46112,0.35674,0.99843
283.3,34.02026,99.42787,0.35766,0.9981
283.9,34.07808,99.4291,0.35507,0.99776
284.5,34.13584,99.42949,0.35542,0.99742
285.1,34.1937,99.4049,0.35669,0.99708
285.7,34.25155,99.38905,0.35473,0.99675
286.3,34.30932,99.38069,0.35365,0.99641
286.9,34.36725,99.38069,0.35105,0.99607
287.5,34.42516,99.34886,0.35157,0.99573
288.1,34.48307,99.29297,0.3511,0.99538
288.7,34.54099,99.26258,0.35242,0.99504
289.3,34.59892,99.2626,0.35076,0.9947
289.9,34.6569,99.29494,0.35055,0.99436
290.5,34.71501,99.2949,0.34951,0.99401
291.1,34.77303,99.2949,0.34994,0.99367
291.7,34.83115,99.2949,0.35138,0.99332
292.3,34.88898,99.26256,0.35059,0.99298
292.9,34.94689,99.2307,0.3486,0.99263
293.5,35.005,99.22531,0.3498,0.99229
294.1,35.06236,99.23056,0.3522,0.99194
294.7,35.12035,99.22859,0.35542,0.99159
295.3,35.17812,99.1983,0.35498,0.99124
295.9,35.2361,99.166,0.35428,0.99089
296.5,35.2944,99.13414,0.3556,0.99054
297.1,35.35226,99.10176,0.35288,0.99019
297.7,35.4101,99.10171,0.35204,0.98984
298.3,35.46784,99.1015,0.34998,0.98949
298.9,35.5258,99.0694,0.34942,0.98914
299.5,35.58343,99.0694,0.34825,0.98878
300.1,35.64113,99.06591,0.35011,0.98843
300.7,35.6986,99.03778,0.34795,0.98808
301.3,35.75633,99.02696,0.34765,0.98772
301.9,35.81422,99.005,0.34817,0.98737
302.5,35.87205,98.98115,0.3467,0.98701
303.1,35.92995,98.9812,0.34368,0.98665
303.7,35.98775,98.9812,0.34286,0.9863
304.3,36.04542,98.976,0.34352,0.98594
304.9,36.10325,98.9231,0.34389,0.98558
305.5,36.16093,98.90906,0.34447,0.98522
306.1,36.21864,98.8758,0.34078,0.98486
306.7,36.27641,98.90881,0.34109,0.9845
307.3,36.33421,98.8772,0.34066,0.98414
307.9,36.39203,98.8446,0.33883,0.98378
308.5,36.44989,98.81134,0.34129,0.98342
309.1,36.5077,98.81222,0.33897,0.98306
309.7,36.5655,98.8034,0.34183,0.98269
310.3,36.62334,98.7799,0.33969,0.98233
310.9,36.68099,98.74733,0.34011,0.98196
311.5,36.7387,98.73154,0.34058,0.9816
312.1,36.7965,98.7315,0.34222,0.98123
312.7,36.85434,98.69934,0.3409,0.98087
313.3,36.9122,98.6993,0.34259,0.9805
313.9,36.96996,98.66686,0.34306,0.98013
314.5,37.02772,98.65135,0.34117,0.97977
315.1,37.0856,98.65134,0.3407,0.9794
315.7,37.1436,98.65134,0.34308,0.97903
316.3,37.20162,98.6488,0.3415,0.97866
316.9,37.25958,98.65115,0.34306,0.97829
317.5,37.31756,98.619,0.34374,0.97792
318.1,37.37556,98.61912,0.34357,0.97755
318.7,37.43345,98.60324,0.3436,0.97717
319.3,37.4914,98.5707,0.34313,0.9768
319.9,37.54935,98.57064,0.34347,0.97643
320.5,37.6074,98.5386,0.34374,0.97606
321.1,37.6654,98.50623,0.34616,0.97568
321.7,37.72336,98.50636,0.34505,0.97531
322.3,37.78139,98.5063,0.34802,0.97493
322.9,37.83935,98.47407,0.34627,0.97455
323.5,37.89747,98.47407,0.34703,0.97418
324.1,37.9555,98.46721,0.34997,0.9738
324.7,38.01337,98.4262,0.35461,0.97342
325.3,38.0711,98.42586,0.35932,0.97305
325.9,38.1288,98.39389,0.36569,0.97267
326.5,38.18652,98.3668,0.36885,0.97229
327.1,38.24414,98.36162,0.37698,0.97191
327.7,38.3018,98.36161,0.3841,0.97153
328.3,38.3593,98.32665,0.39472,0.97115
328.9,38.4169,98.29182,0.39875,0.97076
329.5,38.4747,98.25999,0.4051,0.97038
330.1,38.53246,98.2266,0.40911,0.97
330.7,38.59025,98.1631,0.41723,0.96962
331.3,38.64784,98.1499,0.41867,0.96923
331.9,38.70552,98.13105,0.42497,0.96885
332.5,38.76295,98.13112,0.42869,0.96846
333.1,38.82074,98.099,0.43325,0.96808
333.7,38.87849,98.09878,0.43627,0.96769
334.3,38.93629,98.0988,0.43971,0.9673
334.9,38.99391,98.06831,0.44269,0.96692
335.5,39.05155,98.0249,0.44772,0.96653
336.1,39.1091,98.0022,0.45102,0.96614
336.7,39.1664,97.97282,0.45405,0.96575
337.3,39.2241,98.0019,0.45672,0.96536
337.9,39.28171,98.03573,0.4637,0.96497
338.5,39.3395,97.96891,0.46438,0.96458
339.1,39.39744,97.90065,0.46944,0.96419
339.7,39.45516,97.839,0.47295,0.9638
340.3,39.5129,97.79842,0.47843,0.96341
340.9,39.57046,97.76651,0.48196,0.96301
341.5,39.62814,97.73396,0.48674,0.96262
342.1,39.68577,97.7059,0.48955,0.96223
342.7,39.74333,97.7354,0.4931,0.96183
343.3,39.80107,97.70228,0.49468,0.96144
343.9,39.85873,97.61151,0.50276,0.96104
344.5,39.91648,97.57324,0.50482,0.96065
345.1,39.97421,97.53822,0.50752,0.96025
345.7,40.03198,97.53839,0.51314,0.95985
346.3,40.0897,97.50629,0.51305,0.95945
346.9,40.14723,97.4729,0.52064,0.95906
347.5,40.20483,97.44168,0.52539,0.95866
348.1,40.26227,97.44075,0.52701,0.95826
348.7,40.31997,97.4417,0.53342,0.95786
349.3,40.37753,97.39649,0.53508,0.95746
349.9,40.43505,97.33147,0.54003,0.95706
350.5,40.4927,97.24105,0.5437,0.95666
351.1,40.55032,97.20746,0.54671,0.95625
351.7,40.60795,97.14056,0.54946,0.95585
352.3,40.6657,97.1416,0.55377,0.95545
352.9,40.72338,97.14044,0.55156,0.95504
353.5,40.78123,97.08815,0.55218,0.95464
354.1,40.83883,97.0368,0.55398,0.95424
354.7,40.89651,97.00455,0.55737,0.95383
355.3,40.95432,96.9611,0.55773,0.95343
355.9,41.01248,96.89644,0.55789,0.95302
356.5,41.07038,96.82937,0.56029,0.95261
357.1,41.1282,96.73591,0.56122,0.95221
357.7,41.18608,96.6955,0.55869,0.9518
358.3,41.2439,96.62063,0.55823,0.95139
358.9,41.30207,96.55317,0.56104,0.95098
359.5,41.36023,96.51148,0.56034,0.95057
360.1,41.41823,96.47998,0.55564,0.95016
360.7,41.47651,96.44023,0.55683,0.94975
361.3,41.53453,96.43393,0.55391,0.94934
361.9,41.59285,96.36386,0.55134,0.94893
362.5,41.65102,96.27028,0.54903,0.94852
363.1,41.7092,96.23765,0.54755,0.9481
363.7,41.7673,96.16564,0.54369,0.94769
364.3,41.8256,96.09841,0.54121,0.94728
364.9,41.88394,96.05799,0.5388,0.94686
365.5,41.94214,96.01003,0.53597,0.94645
366.1,42.00058,95.94014,0.53366,0.94604
366.7,42.05888,95.87631,0.52987,0.94562
367.3,42.11735,95.77293,0.52671,0.9452
367.9,42.17592,95.72503,0.52178,0.94479
368.5,42.23424,95.6647,0.51647,0.94437
369.1,42.2926,95.59437,0.51299,0.94395
369.7,42.35102,95.51687,0.51234,0.94354
370.3,42.40935,95.4438,0.50573,0.94312
370.9,42.46802,95.37256,0.50444,0.9427
371.5,42.52653,95.2675,0.50229,0.94228
372.1,42.585,95.19298,0.49904,0.94186
372.7,42.64349,95.14919,0.49329,0.94144
373.3,42.7018,95.0941,0.49042,0.94102
373.9,42.76027,95.03965,0.48659,0.9406
374.5,42.81862,94.95751,0.4829,0.94017
375.1,42.87705,94.86498,0.47895,0.93975
375.7,42.93573,94.79554,0.47315,0.93933
376.3,42.99437,94.71344,0.46894,0.9389
376.9,43.0529,94.6412,0.46201,0.93848
377.5,43.11125,94.5706,0.45869,0.93806
378.1,43.16955,94.4939,0.454,0.93763
378.7,43.228,94.39311,0.44835,0.93721
379.3,43.28638,94.29599,0.44609,0.93678
379.9,43.34492,94.24385,0.44166,0.93635
380.5,43.4032,94.1764,0.43693,0.93593
381.1,43.4616,94.09535,0.43357,0.9355
381.7,43.52016,93.9858,0.42921,0.93507
382.3,43.57844,93.9061,0.42442,0.93464
382.9,43.63691,93.8173,0.42635,0.93421
383.5,43.69527,93.76536,0.42585,0.93379
384.1,43.75356,93.6523,0.4241,0.93336
384.7,43.81211,93.58152,0.42351,0.93293
385.3,43.87063,93.5264,0.42261,0.93249
385.9,43.9292,93.47255,0.42069,0.93206
386.5,43.98767,93.37674,0.42246,0.93163
387.1,44.0462,93.31962,0.42545,0.9312
387.7,44.10463,93.23059,0.42499,0.93077
388.3,44.16321,93.1242,0.43077,0.93033
388.9,44.22167,93.03618,0.4324,0.9299
389.5,44.28024,92.92712,0.43311,0.92947
390.1,44.33868,92.843,0.43822,0.92903
390.7,44.39744,92.72286,0.44139,0.9286
391.3,44.45598,92.60807,0.44178,0.92816
391.9,44.5148,92.49367,0.44426,0.92773
392.5,44.57354,92.35986,0.44046,0.92729
393.1,44.6324,92.22974,0.43952,0.92685
393.7,44.69119,92.13712,0.4359,0.92642
394.3,44.74988,92.03049,0.43851,0.92598
394.9,44.80852,91.863,0.43755,0.92554
395.5,44.86703,91.7204,0.43665,0.9251
396.1,44.92562,91.511,0.43745,0.92466
396.7,44.9843,91.34363,0.43906,0.92422
397.3,45.04285,91.2033,0.44294,0.92378
397.9,45.10143,91.03907,0.44242,0.92334
398.5,45.15995,90.83542,0.44261,0.9229
399.1,45.2184,90.65414,0.44323,0.92246
399.7,45.277,90.47107,0.44449,0.92202
400.3,45.3355,90.28458,0.44637,0.92157
400.9,45.39412,90.0731,0.44248,0.92113
401.5,45.4525,89.8627,0.44718,0.92069
402.1,45.511,89.63893,0.44712,0.92024
402.7,45.56945,89.36568,0.45267,0.9198
403.3,45.62795,89.1546,0.45516,0.91936
403.9,45.68635,88.94151,0.45667,0.91891
404.5,45.74476,88.67965,0.45677,0.91847
405.1,45.8032,88.4183,0.46865,0.91802
405.7,45.86164,88.09804,0.47571,0.91757
406.3,45.92027,87.80149,0.48282,0.91713
406.9,45.97883,87.49959,0.49238,0.91668
407.5,46.03745,87.1727,0.50137,0.91623
408.1,46.09592,86.84651,0.5091,0.91578
408.7,46.15439,86.47674,0.51614,0.91533
409.3,46.2129,86.10791,0.52129,0.91488
409.9,46.27163,85.73394,0.53028,0.91444
410.5,46.3303,85.31908,0.53539,0.91399
411.1,46.3889,84.92196,0.54313,0.91353
411.7,46.44753,84.51689,0.55143,0.91308
412.3,46.5062,84.0685,0.55926,0.91263
412.9,46.56487,83.60123,0.55709,0.91218
413.5,46.6237,83.11669,0.55672,0.91173
414.1,46.6823,82.63848,0.55915,0.91128
414.7,46.74092,82.13546,0.56594,0.91082
415.3,46.79957,81.63929,0.57846,0.91037
415.9,46.85815,81.07842,0.58407,0.90992
416.5,46.91673,80.59446,0.5892,0.90946
417.1,46.97526,79.9809,0.59811,0.90901
417.7,47.0337,79.4058,0.60251,0.90855
418.3,47.09223,78.8125,0.62075,0.9081
418.9,47.15098,78.2234,0.63099,0.90764
419.5,47.2097,77.57542,0.63635,0.90718
420.1,47.26851,76.93714,0.65226,0.90673
420.7,47.32731,76.2533,0.6603,0.90627
421.3,47.3861,75.5755,0.66268,0.90581
421.9,47.44491,74.8817,0.68421,0.90535
422.5,47.5036,74.1058,0.698,0.9049
423.1,47.5623,73.33479,0.71115,0.90444
423.7,47.621,72.48961,0.71573,0.90398
424.3,47.67974,71.69395,0.71592,0.90352
424.9,47.7384,70.91035,0.71534,0.90306
425.5,47.79717,70.13575,0.71794,0.9026
426.1,47.8559,69.26129,0.72229,0.90214
426.7,47.9146,68.4064,0.72034,0.90167
427.3,47.97323,67.51426,0.72291,0.90121
427.9,48.03195,66.64801,0.72407,0.90075
428.5,48.0906,65.75617,0.72554,0.90029
429.1,48.14926,64.83497,0.73222,0.89982
429.7,48.20805,63.9206,0.73262,0.89936
430.3,48.26678,62.9092,0.73695,0.8989
430.9,48.32562,61.9525,0.74571,0.89843
431.5,48.38445,60.9331,0.74816,0.89797
432.1,48.44318,59.9799,0.74674,0.8975
432.7,48.50186,58.9214,0.7513,0.89704
433.3,48.5607,57.96382,0.75644,0.89657
433.9,48.61947,56.88202,0.75526,0.89611
434.5,48.67816,55.88326,0.75406,0.89564
435.1,48.73705,54.80526,0.75115,0.89517
435.7,48.7958,53.83141,0.74963,0.8947
436.3,48.8546,52.77949,0.74514,0.89424
436.9,48.91333,51.7815,0.7425,0.89377
437.5,48.97183,50.7783,0.73682,0.8933
438.1,49.03063,49.81366,0.7295,0.89283
438.7,49.08925,48.86978,0.71972,0.89236
439.3,49.14788,47.9119,0.70935,0.89189
439.9,49.20635,46.96363,0.6984,0.89142
440.5,49.26481,45.97123,0.69179,0.89095
441.1,49.3234,45.07034,0.67891,0.89048
441.7,49.38194,44.06302,0.66377,0.89001
442.3,49.44043,43.16745,0.6504,0.88954
442.9,49.49904,42.21719,0.63391,0.88906
443.5,49.55754,41.32975,0.61433,0.88859
444.1,49.6161,40.3977,0.59783,0.88812
444.7,49.67456,39.53217,0.58172,0.88764
445.3,49.73297,38.63602,0.5648,0.88717
445.9,49.79153,37.84806,0.54675,0.8867
446.5,49.8499,37.02462,0.52663,0.88622
447.1,49.90845,36.25521,0.50764,0.88575
447.7,49.9668,35.51198,0.48937,0.88527
448.3,50.02528,34.79337,0.46808,0.8848
448.9,50.08378,34.1378,0.44728,0.88432
449.5,50.14227,33.4901,0.43042,0.88384
450.1,50.20085,32.91223,0.40889,0.88337
450.7,50.25943,32.3326,0.39256,0.88289
451.3,50.31801,31.81138,0.37599,0.88241
451.9,50.37657,31.3142,0.36116,0.88194
452.5,50.4352,30.85585,0.34584,0.88146
453.1,50.4938,30.384,0.33177,0.88098
453.7,50.5523,29.9761,0.32011,0.8805
454.3,50.6109,29.5772,0.30817,0.88002
454.9,50.66945,29.18276,0.29627,0.87954
455.5,50.72814,28.835,0.28591,0.87906
456.1,50.78679,28.48716,0.27587,0.87858
456.7,50.8455,28.16638,0.26677,0.8781
457.3,50.90422,27.8458,0.25872,0.87762
457.9,50.96309,27.5514,0.25003,0.87714
458.5,51.02187,27.2348,0.23934,0.87665
459.1,51.0807,26.95563,0.23224,0.87617
459.7,51.13933,26.71063,0.22239,0.87569
460.3,51.19773,26.44582,0.21311,0.87521
460.9,51.2566,26.20215,0.20309,0.87472
461.5,51.31535,25.93654,0.1923,0.87424
462.1,51.37426,25.6996,0.18281,0.87376
462.7,51.43329,25.55262,0.17124,0.87327
463.3,51.49217,25.26647,0.16068,0.87279
463.9,51.5512,24.5552,0.15276,0.8723
464.5,51.61032,23.8196,0.14443,0.87182
465.1,51.66952,23.3682,0.13634,0.87133
465.7,51.72899,23.06206,0.12558,0.87084
466.3,51.7881,22.96677,0.11471,0.87036
466.9,51.84724,22.89249,0.10072,0.86987
467.5,51.90625,22.8578,0.08610129,0.86938
468.1,51.96503,22.87481,0.07852779,0.8689
468.7,52.02397,22.7609,0.06740244,0.86841
469.3,52.08193,22.71406,0.06741686,0.86792
469.9,52.1392,22.71565,0.09421733,0.86743
470.5,52.19585,22.69984,0.14227,0.86694
471.1,52.25248,22.66731,0.18298,0.86645
471.7,52.30952,22.61929,0.20249,0.86596
472.3,52.3675,22.59,0.19647,0.86547
472.9,52.42605,22.58704,0.17965,0.86498
473.5,52.48495,22.57355,0.15991,0.86449
474.1,52.5443,22.55484,0.13424,0.864
474.7,52.60375,22.55481,0.11,0.86351
475.3,52.6633,22.50141,0.09178967,0.86302
475.9,52.7229,22.48358,0.07293883,0.86253
476.5,52.78238,22.44693,0.06028614,0.86203
477.1,52.84189,22.4008,0.04579927,0.86154
477.7,52.9014,22.35541,0.03512655,0.86105
478.3,52.96095,22.35155,0.00995846,0.86056
478.9,53.0204,22.34273,-0.01345209,0.86006
479.5,53.08011,22.3107,-0.03529518,0.85957
480.1,53.1396,22.24602,-0.05502219,0.85907
480.7,53.19924,22.2087,-0.07584335,0.85858
481.3,53.2589,22.15309,-0.09324258,0.85808
481.9,53.31873,22.1213,-0.11071,0.85759
482.5,53.3787,22.06914,-0.12731,0.85709
483.1,53.43846,22.01279,-0.1441,0.8566
483.7,53.49807,21.9816,-0.16006,0.8561
484.3,53.55774,21.93298,-0.17699,0.8556
484.9,53.6176,21.9079,-0.18995,0.85511
485.5,53.67748,21.90653,-0.20424,0.85461
486.1,53.73724,21.87361,-0.22056,0.85411
486.7,53.79691,21.8391,-0.23317,0.85362
487.3,53.8567,21.78835,-0.24935,0.85312
487.9,53.9165,21.74108,-0.2587,0.85262
488.5,53.9762,21.71013,-0.27399,0.85212
489.1,54.0358,21.678,-0.28245,0.85162
489.7,54.0953,21.61444,-0.29058,0.85112
490.3,54.15485,21.61402,-0.30073,0.85062
490.9,54.2143,21.61329,-0.30509,0.85012
491.5,54.27364,21.60359,-0.31152,0.84962
492.1,54.3331,21.54678,-0.31602,0.84912
492.7,54.39241,21.5489,-0.32125,0.84862
493.3,54.4519,21.51747,-0.3309,0.84812
493.9,54.5115,21.4847,-0.33911,0.84762
494.5,54.57102,21.48501,-0.34246,0.84712
495.1,54.63052,21.4526,-0.34685,0.84661
495.7,54.6901,21.4526,-0.34882,0.84611
496.3,54.74963,21.4204,-0.34881,0.84561
496.9,54.8092,21.38825,-0.34676,0.84511
497.5,54.86864,21.3884,-0.34724,0.8446
498.1,54.92796,21.42055,-0.34912,0.8441
498.7,54.9873,21.40074,-0.3478,0.8436
499.3,55.04659,21.38769,-0.34559,0.84309
499.9,55.1061,21.35624,-0.34495,0.84259
500.5,55.1654,21.32444,-0.34545,0.84208
501.1,55.2246,21.32399,-0.34493,0.84158
501.7,55.28415,21.3274,-0.34394,0.84107
502.3,55.34364,21.31565,-0.34005,0.84057
502.9,55.4033,21.31578,-0.33988,0.84006
503.5,55.46264,21.28367,-0.33817,0.83955
504.1,55.5219,21.2836,-0.33813,0.83905
504.7,55.58116,21.25186,-0.33563,0.83854
505.3,55.6406,21.2518,-0.33754,0.83803
505.9,55.7002,21.23545,-0.33623,0.83753
506.5,55.75975,21.2261,-0.33623,0.83702
507.1,55.81949,21.20348,-0.33297,0.83651
507.7,55.87894,21.2032,-0.33579,0.836
508.3,55.9383,21.1709,-0.33401,0.83549
508.9,55.9978,21.12567,-0.33143,0.83499
509.5,56.0575,21.12274,-0.33374,0.83448
510.1,56.1172,21.094,-0.33019,0.83397
510.7,56.17694,21.09046,-0.33171,0.83346
511.3,56.2366,21.09047,-0.32972,0.83295
511.9,56.2961,21.07324,-0.32901,0.83244
512.5,56.3557,21.05839,-0.32902,0.83193
513.1,56.41528,21.01127,-0.32766,0.83142
513.7,56.475,21.0103,-0.32697,0.83091
514.3,56.53484,21.01091,-0.32708,0.83039
514.9,56.5945,21.00175,-0.32522,0.82988
515.5,56.6541,21.0108,-0.32418,0.82937
516.1,56.7137,21.00443,-0.32584,0.82886
516.7,56.7733,20.96734,-0.32671,0.82835
517.3,56.833,20.9127,-0.32866,0.82783
517.9,56.89272,20.90629,-0.32659,0.82732
518.5,56.95241,20.8814,-0.32722,0.82681
519.1,57.01203,20.8814,-0.32823,0.8263
519.7,57.0714,20.8814,-0.32641,0.82578
520.3,57.13111,20.84962,-0.32434,0.82527
520.9,57.19089,20.81656,-0.32621,0.82475
521.5,57.2506,20.84955,-0.32625,0.82424
522.1,57.31052,20.84955,-0.32566,0.82372
522.7,57.37005,20.84916,-0.33017,0.82321
523.3,57.42949,20.78482,-0.32689,0.82269
523.9,57.48905,20.75282,-0.32856,0.82218
524.5,57.5485,20.75281,-0.32802,0.82166
525.1,57.60799,20.75281,-0.32839,0.82115
525.7,57.66766,20.75239,-0.33044,0.82063
526.3,57.72736,20.72053,-0.33014,0.82012
526.9,57.78709,20.72054,-0.33221,0.8196
527.5,57.8468,20.7211,-0.33168,0.81908
528.1,57.90639,20.73546,-0.32975,0.81856
528.7,57.9661,20.73643,-0.33044,0.81805
529.3,58.0258,20.73655,-0.3307,0.81753
529.9,58.08526,20.7203,-0.33146,0.81701
530.5,58.1447,20.7184,-0.33561,0.81649
531.1,58.2042,20.6871,-0.33332,0.81597
531.7,58.26379,20.6883,-0.33881,0.81546
532.3,58.32345,20.6723,-0.33676,0.81494
532.9,58.3831,20.67215,-0.33906,0.81442
533.5,58.4429,20.7057,-0.3377,0.8139
534.1,58.5025,20.7,-0.34141,0.81338
534.7,58.5622,20.68019,-0.33976,0.81286
535.3,58.62165,20.6784,-0.34319,0.81234
535.9,58.68108,20.70413,-0.34348,0.81182
536.5,58.74085,20.70147,-0.34382,0.8113
537.1,58.8005,20.67237,-0.3447,0.81078
537.7,58.8603,20.67236,-0.34509,0.81026
538.3,58.91995,20.64003,-0.34588,0.80974
538.9,58.97962,20.6401,-0.34583,0.80921
539.5,59.03912,20.6401,-0.35014,0.80869
540.1,59.0988,20.6079,-0.34973,0.80817
540.7,59.15851,20.6079,-0.353,0.80765
541.3,59.2185,20.57674,-0.35266,0.80713
541.9,59.27845,20.5517,-0.35204,0.8066
542.5,59.3383,20.52737,-0.35288,0.80608
543.1,59.39815,20.5517,-0.35265,0.80556
543.7,59.45794,20.55121,-0.35465,0.80503
544.3,59.5177,20.5514,-0.35441,0.80451
544.9,59.5775,20.55171,-0.35348,0.80399
545.5,59.63745,20.51933,-0.35436,0.80346
546.1,59.6971,20.491,-0.35809,0.80294
546.7,59.75696,20.48736,-0.35848,0.80241
547.3,59.8166,20.4552,-0.36108,0.80189
547.9,59.8763,20.45501,-0.36097,0.80136
548.5,59.93614,20.45383,-0.36396,0.80084
549.1,59.99573,20.46203,-0.36324,0.80031
549.7,60.05551,20.45775,-0.36794,0.79979
550.3,60.11525,20.44649,-0.37143,0.79926
550.9,60.17508,20.41616,-0.36683,0.79874
551.5,60.2348,20.3892,-0.36985,0.79821
552.1,60.29444,20.41605,-0.36897,0.79769
552.7,60.354,20.38266,-0.37311,0.79716
553.3,60.41364,20.38129,-0.36998,0.79663
553.9,60.4733,20.32604,-0.36993,0.7961
554.5,60.53306,20.36083,-0.3705,0.79558
555.1,60.59268,20.35843,-0.37148,0.79505
555.7,60.6524,20.35057,-0.37294,0.79452
556.3,60.7118,20.3182,-0.37446,0.794
556.9,60.77145,20.31522,-0.37578,0.79347
557.5,60.83126,20.30218,-0.37553,0.79294
558.1,60.891,20.31795,-0.37517,0.79241
558.7,60.9506,20.28322,-0.37574,0.79188
559.3,61.0103,20.25405,-0.38028,0.79135
559.9,61.0699,20.2218,-0.3796,0.79082
560.5,61.1295,20.2218,-0.38155,0.7903
561.1,61.1891,20.18947,-0.38263,0.78977
561.7,61.2487,20.16628,-0.38247,0.78924
562.3,61.3085,20.15717,-0.38247,0.78871
562.9,61.3682,20.16518,-0.38172,0.78818
563.5,61.4281,20.17902,-0.38204,0.78765
564.1,61.4879,20.15723,-0.38203,0.78712
564.7,61.5477,20.1573,-0.38111,0.78659
565.3,61.60748,20.12495,-0.38278,0.78605
565.9,61.66718,20.12521,-0.38303,0.78552
566.5,61.7268,20.15883,-0.3815,0.78499
567.1,61.7865,20.13297,-0.3801,0.78446
567.7,61.8462,20.133,-0.38098,0.78393
568.3,61.90585,20.133,-0.37832,0.7834
568.9,61.96545,20.12473,-0.37973,0.78287
569.5,62.02522,20.09406,-0.37854,0.78233
570.1,62.0849,20.09289,-0.37784,0.7818
570.7,62.1447,20.09291,-0.37502,0.78127
571.3,62.20454,20.08072,-0.37106,0.78074
571.9,62.2643,20.0609,-0.36992,0.7802
572.5,62.324,20.0609,-0.36673,0.77967
573.1,62.3839,20.06031,-0.36976,0.77914
573.7,62.4437,20.0286,-0.36715,0.77861
574.3,62.5035,20.02861,-0.36627,0.77807
574.9,62.5635,20.0286,-0.36362,0.77754
575.5,62.6235,19.9951,-0.37026,0.777
576.1,62.68355,19.99633,-0.36018,0.77647
576.7,62.74341,19.9964,-0.34757,0.77594
577.3,62.8033,19.9322,-0.34302,0.7754
577.9,62.8633,19.931,-0.33855,0.77487
578.5,62.92332,19.96428,-0.33816,0.77433
579.1,62.9836,19.96431,-0.33511,0.7738
579.7,63.04387,19.94414,-0.33295,0.77326
580.3,63.10416,19.91121,-0.33281,0.77273
580.9,63.16423,19.8996,-0.33366,0.77219
581.5,63.22426,19.8758,-0.33145,0.77166
582.1,63.2842,19.87579,-0.3344,0.77112
582.7,63.3444,19.87579,-0.33295,0.77059
583.3,63.4046,19.87579,-0.33317,0.77005
583.9,63.46496,19.87516,-0.33238,0.76951
584.5,63.5252,19.8435,-0.33386,0.76898
585.1,63.58529,19.84352,-0.33421,0.76844
585.7,63.6454,19.845,-0.33201,0.7679
586.3,63.7055,19.81956,-0.33368,0.76737
586.9,63.7655,19.81954,-0.33354,0.76683
587.5,63.8256,19.81161,-0.33487,0.76629
588.1,63.8857,19.7791,-0.33641,0.76576
588.7,63.9458,19.7792,-0.33745,0.76522
589.3,64.0059,19.7792,-0.33482,0.76468
589.9,64.06585,19.77058,-0.34004,0.76414
590.5,64.12611,19.77115,-0.342,0.76361
591.1,64.1864,19.75734,-0.34309,0.76307
591.7,64.24677,19.77095,-0.34376,0.76253
592.3,64.30691,19.75508,-0.34241,0.76199
592.9,64.36701,19.755,-0.3454,0.76145
593.5,64.42693,19.755,-0.34582,0.76091
594.1,64.48688,19.755,-0.34537,0.76038
594.7,64.54681,19.75514,-0.34565,0.75984
595.3,64.60686,19.723,-0.34585,0.7593
595.9,64.66688,19.7115,-0.34652,0.75876
596.5,64.7269,19.6907,-0.34468,0.75822
597.1,64.78702,19.69071,-0.34435,0.75768
597.7,64.84704,19.69071,-0.34641,0.75714
598.3,64.90717,19.67389,-0.34454,0.7566
598.9,64.96705,19.67456,-0.34718,0.75606
599.5,65.02705,19.68775,-0.34934,0.75552
600.1,65.087,19.67439,-0.34692,0.75498
600.7,65.1472,19.70672,-0.34876,0.75444
601.3,65.20739,19.70685,-0.3471,0.7539
601.9,65.26767,19.7068,-0.35338,0.75336
602.5,65.32791,19.76778,-0.34973,0.75282
603.1,65.38811,19.78195,-0.34985,0.75228
603.7,65.4479,19.71429,-0.34997,0.75174
604.3,65.50797,19.71275,-0.35169,0.7512
604.9,65.56805,19.648,-0.35027,0.75066
605.5,65.62836,19.6479,-0.35511,0.75011
606.1,65.68842,19.6479,-0.3526,0.74957
606.7,65.74847,19.6168,-0.3551,0.74903
607.3,65.80851,19.58381,-0.35197,0.74849
607.9,65.86846,19.55136,-0.3534,0.74795
608.5,65.9285,19.61147,-0.35413,0.74741
609.1,65.98849,19.62079,-0.35548,0.74686
609.7,66.04855,19.58858,-0.35533,0.74632
610.3,66.10859,19.58851,-0.35642,0.74578
610.9,66.16874,19.58853,-0.35766,0.74524
611.5,66.22853,19.55641,-0.35705,0.74469
612.1,66.28883,19.52444,-0.35791,0.74415
612.7,66.34891,19.52445,-0.35906,0.74361
613.3,66.40939,19.52444,-0.36076,0.74307
613.9,66.46947,19.49192,-0.35851,0.74252
614.5,66.52962,19.45996,-0.36103,0.74198
615.1,66.59002,19.4822,-0.35974,0.74144
615.7,66.6503,19.4599,-0.3615,0.74089
616.3,66.71076,19.45843,-0.36285,0.74035
616.9,66.7712,19.4279,-0.36296,0.73981
617.5,66.8314,19.42786,-0.36461,0.73926
618.1,66.89192,19.40328,-0.3661,0.73872
618.7,66.95244,19.41844,-0.36806,0.73818
619.3,67.013,19.42756,-0.36787,0.73763
619.9,67.07336,19.45964,-0.3697,0.73709
620.5,67.13371,19.42821,-0.3709,0.73654
621.1,67.19395,19.42788,-0.36987,0.736
621.7,67.2544,19.43036,-0.37115,0.73545
622.3,67.31477,19.3907,-0.37235,0.73491
622.9,67.37499,19.3714,-0.37341,0.73436
623.5,67.43534,19.36262,-0.37323,0.73382
624.1,67.4956,19.33093,-0.37473,0.73328
624.7,67.5561,19.32793,-0.37517,0.73273
625.3,67.61654,19.29917,-0.37572,0.73219
625.9,67.6768,19.2351,-0.37541,0.73164
626.5,67.73734,19.26652,-0.37504,0.7311
627.1,67.7976,19.26675,-0.37374,0.73055
627.7,67.85813,19.28121,-0.37521,0.73
628.3,67.91841,19.29082,-0.37401,0.72946
628.9,67.97877,19.26436,-0.37491,0.72891
629.5,68.03883,19.2643,-0.37332,0.72837
630.1,68.0992,19.232,-0.3724,0.72782
630.7,68.15956,19.232,-0.37131,0.72728
631.3,68.22009,19.232,-0.37448,0.72673
631.9,68.2804,19.23219,-0.37439,0.72618
632.5,68.3407,19.26434,-0.3713,0.72564
633.1,68.40105,19.226,-0.37211,0.72509
633.7,68.46162,19.1969,-0.374,0.72455
634.3,68.52199,19.16495,-0.37016,0.724
634.9,68.58244,19.16504,-0.36907,0.72345
635.5,68.64276,19.15755,-0.36805,0.72291
636.1,68.703,19.13276,-0.3678,0.72236
636.7,68.76308,19.13268,-0.36889,0.72181
637.3,68.82311,19.15686,-0.36555,0.72127
637.9,68.88333,19.15694,-0.36354,0.72072
638.5,68.9434,19.09313,-0.36538,0.72017
639.1,69.0035,19.06801,-0.3657,0.71962
639.7,69.0637,19.08847,-0.36464,0.71908
640.3,69.12382,19.11686,-0.36893,0.71853
640.9,69.184,19.0834,-0.36424,0.71798
641.5,69.24429,19.08458,-0.36716,0.71744
642.1,69.30457,19.0512,-0.36501,0.71689
642.7,69.36491,19.05142,-0.36635,0.71634
643.3,69.42492,19.02821,-0.36275,0.71579
643.9,69.48535,19.02835,-0.36628,0.71525
644.5,69.54555,19.05994,-0.36555,0.7147
645.1,69.60584,19.0604,-0.36288,0.71415
645.7,69.66639,19.0604,-0.36195,0.7136
646.3,69.72668,19.08769,-0.36102,0.71305
646.9,69.787,19.06045,-0.35935,0.71251
647.5,69.84747,19.02831,-0.35983,0.71196
648.1,69.90764,19.06002,-0.35677,0.71141
648.7,69.96795,19.05815,-0.35883,0.71086
649.3,70.0282,19.05237,-0.35759,0.71031
649.9,70.08833,19.02015,-0.35846,0.70977
650.5,70.14859,19.02005,-0.35575,0.70922
651.1,70.20905,19.02005,-0.35457,0.70867
651.7,70.26953,18.9632,-0.35692,0.70812
652.3,70.3301,18.95599,-0.35489,0.70757
652.9,70.39041,18.95605,-0.35247,0.70702
653.5,70.45066,18.96405,-0.3547,0.70647
654.1,70.51094,18.98355,-0.35338,0.70593
654.7,70.57127,19.0285,-0.35427,0.70538
655.3,70.63172,19.0284,-0.35433,0.70483
655.9,70.6922,19.01995,-0.3527,0.70428
656.5,70.75283,18.9799,-0.35146,0.70373
657.1,70.81326,18.93917,-0.35218,0.70318
657.7,70.87391,18.89968,-0.35169,0.70263
658.3,70.93446,18.8994,-0.35493,0.70208
658.9,70.99489,18.93151,-0.35877,0.70153
659.5,71.05544,18.90372,-0.35471,0.70098
660.1,71.11599,18.93148,-0.35243,0.70044
660.7,71.17639,18.86794,-0.35042,0.69989
661.3,71.23688,18.86748,-0.35388,0.69934
661.9,71.29715,18.8975,-0.35111,0.69879
662.5,71.35775,18.89401,-0.35369,0.69824
663.1,71.4184,18.86723,-0.35211,0.69769
663.7,71.47876,18.86724,-0.35258,0.69714
664.3,71.53922,18.86724,-0.35,0.69659
664.9,71.59965,18.8353,-0.35018,0.69604
665.5,71.6604,18.83521,-0.34926,0.69549
666.1,71.72105,18.83521,-0.35105,0.69494
666.7,71.78152,18.86676,-0.3492,0.69439
667.3,71.84184,18.83515,-0.34833,0.69384
667.9,71.90208,18.8674,-0.35274,0.69329
668.5,71.96234,18.86724,-0.34859,0.69274
669.1,72.02266,18.8673,-0.34755,0.69219
669.7,72.083,18.85859,-0.34712,0.69164
670.3,72.14323,18.8036,-0.35133,0.69109
670.9,72.2035,18.80293,-0.35073,0.69054
671.5,72.26379,18.8029,-0.34769,0.68999
672.1,72.32412,18.79147,-0.35029,0.68944
672.7,72.3846,18.80293,-0.35506,0.68889
673.3,72.44481,18.80276,-0.35439,0.68834
673.9,72.5052,18.83517,-0.35467,0.68779
674.5,72.56557,18.83521,-0.35546,0.68724
675.1,72.62591,18.83521,-0.35718,0.68669
675.7,72.68611,18.83522,-0.35704,0.68614
676.3,72.74628,18.80949,-0.35758,0.68559
676.9,72.8065,18.811,-0.35757,0.68504
677.5,72.86703,18.80901,-0.35899,0.68449
678.1,72.92743,18.82311,-0.35821,0.68394
678.7,72.98776,18.811,-0.35889,0.68339
679.3,73.04817,18.8424,-0.36045,0.68284
679.9,73.10861,18.81185,-0.35812,0.68229
680.5,73.1692,18.811,-0.35872,0.68174
681.1,73.22964,18.75453,-0.3595,0.68119
681.7,73.2903,18.78806,-0.35971,0.68064
682.3,73.35081,18.78699,-0.36329,0.68009
682.9,73.41163,18.7945,-0.36364,0.67954
683.5,73.47228,18.79486,-0.36466,0.67899
684.1,73.53282,18.8245,-0.36684,0.67844
684.7,73.5933,18.8182,-0.367,0.67788
685.3,73.65374,18.81869,-0.36556,0.67733
685.9,73.7145,18.81845,-0.37037,0.67678
686.5,73.77513,18.78787,-0.37092,0.67623
687.1,73.83584,18.78689,-0.37188,0.67568
687.7,73.89653,18.75471,-0.37391,0.67513
688.3,73.95733,18.72423,-0.37639,0.67458
688.9,74.01813,18.72249,-0.37525,0.67403
689.5,74.07891,18.72249,-0.37887,0.67348
690.1,74.13965,18.7546,-0.37918,0.67293
690.7,74.20028,18.75477,-0.38293,0.67238
691.3,74.26089,18.74271,-0.38143,0.67183
691.9,74.32166,18.7225,-0.38325,0.67128
692.5,74.3823,18.72249,-0.38537,0.67073
693.1,74.44293,18.72249,-0.38266,0.67018
693.7,74.5039,18.7225,-0.38732,0.66963
694.3,74.56453,18.72479,-0.39205,0.66908
694.9,74.6251,18.69022,-0.39302,0.66852
695.5,74.68575,18.6932,-0.39499,0.66797
696.1,74.7463,18.6906,-0.39671,0.66742
696.7,74.80686,18.69022,-0.39961,0.66687
697.3,74.86743,18.69022,-0.40066,0.66632
697.9,74.92797,18.69022,-0.40269,0.66577
698.5,74.9886,18.6825,-0.40237,0.66522
698.6,74.99814,18.68184,-0.40318,0.66513