File: 01_Data/Overstuffed_Chair_Polyester_Fabric/STA/N2/10K_min/Overstuffed_Chair_Polyester_Fabric_STA_N2_10KData_220204_R3.csv
##Temp./Â°C,Time/min,Mass(subtr.2)/%,DSC(subtr.2)/(mW/mg),Sensit./(uV/mW)
49.256,10.00917,99.15865,0.004271041,1.07447
49.856,10.73087,99.13954,0.025974,1.07443
50.456,10.9183,99.10656,0.04698752,1.07439
51.056,11.05863,99.09704,0.06339136,1.07435
51.656,11.17688,99.11,0.07771166,1.0743
52.256,11.28191,99.07927,0.09181202,1.07426
52.856,11.37767,99.0839,0.1043,1.07421
53.456,11.46744,99.05341,0.11098,1.07417
54.056,11.55286,99.08754,0.11969,1.07412
54.656,11.6344,99.07119,0.12822,1.07407
55.256,11.7127,99.07324,0.13586,1.07402
55.856,11.7891,99.05973,0.14136,1.07397
56.456,11.8637,99.01512,0.14933,1.07392
57.056,11.93693,99.02713,0.15294,1.07387
57.656,12.00848,99.01685,0.15814,1.07382
58.256,12.0793,99.03232,0.16135,1.07377
58.856,12.14891,99.02977,0.16333,1.07371
59.456,12.21829,99.00811,0.1686,1.07366
60.056,12.28663,99.05124,0.17232,1.0736
60.656,12.35459,99.04831,0.17291,1.07354
61.256,12.4214,99.05218,0.17627,1.07349
61.856,12.48804,99.05115,0.17713,1.07343
62.456,12.55482,99.0518,0.17846,1.07337
63.056,12.62138,99.05264,0.17937,1.07331
63.656,12.68774,99.05118,0.18311,1.07325
64.256,12.75328,99.01845,0.18478,1.07319
64.856,12.81865,99.0183,0.18474,1.07313
65.456,12.88376,99.02031,0.185,1.07306
66.056,12.94855,99.01854,0.18912,1.073
66.656,13.0131,99.02333,0.19,1.07293
67.256,13.07753,99.0187,0.19089,1.07287
67.856,13.14238,99.0183,0.19224,1.0728
68.456,13.2067,99.01862,0.19259,1.07273
69.056,13.27081,99.01861,0.19573,1.07267
69.656,13.33426,98.99681,0.19748,1.0726
70.256,13.39785,99.01733,0.19897,1.07253
70.856,13.46164,99.01427,0.19787,1.07246
71.456,13.52549,98.9863,0.20045,1.07239
72.056,13.5892,99.01855,0.20007,1.07231
72.656,13.6528,98.98558,0.19998,1.07224
73.256,13.71623,98.95313,0.20351,1.07217
73.856,13.77958,98.98549,0.20437,1.07209
74.456,13.84275,98.96879,0.20523,1.07202
75.056,13.90554,98.9949,0.20448,1.07194
75.656,13.96819,98.98555,0.20681,1.07186
76.256,14.03091,98.95222,0.20435,1.07178
76.856,14.0935,99.00745,0.20625,1.0717
77.456,14.1563,98.98821,0.20851,1.07162
78.056,14.2186,98.98859,0.20715,1.07154
78.656,14.2809,98.96752,0.20965,1.07146
79.256,14.3429,98.95544,0.21134,1.07138
79.856,14.405,98.97169,0.21209,1.0713
80.456,14.4668,98.9554,0.21249,1.07121
81.056,14.52851,98.9554,0.2131,1.07113
81.656,14.5898,98.95549,0.21418,1.07104
82.256,14.6509,98.93523,0.21577,1.07095
82.856,14.712,98.95505,0.21592,1.07087
83.456,14.7732,98.95347,0.21787,1.07078
84.056,14.8348,98.98817,0.21884,1.07069
84.656,14.89564,98.955,0.22045,1.0706
85.256,14.95659,98.925,0.21795,1.07051
85.856,15.01711,98.93456,0.22133,1.07042
86.456,15.07794,98.93034,0.22102,1.07033
87.056,15.13843,98.92231,0.22295,1.07023
87.656,15.199,98.95545,0.22387,1.07014
88.256,15.25947,98.92236,0.22455,1.07004
88.856,15.31988,98.92227,0.22425,1.06995
89.456,15.38025,98.92235,0.22554,1.06985
90.056,15.44035,98.92231,0.22579,1.06975
90.656,15.5004,98.9243,0.22591,1.06966
91.256,15.56034,98.92234,0.22796,1.06956
91.856,15.62006,98.8895,0.22989,1.06946
92.456,15.68,98.8895,0.22847,1.06936
93.056,15.73974,98.85656,0.2293,1.06925
93.656,15.7996,98.88948,0.23269,1.06915
94.256,15.8595,98.8895,0.2321,1.06905
94.856,15.91905,98.90575,0.23449,1.06894
95.456,15.9788,98.88095,0.23172,1.06884
96.056,16.0384,98.8888,0.23418,1.06873
96.656,16.09787,98.8892,0.23523,1.06863
97.256,16.1573,98.89035,0.23471,1.06852
97.856,16.21665,98.8566,0.23612,1.06841
98.456,16.27598,98.873,0.23716,1.0683
99.056,16.33546,98.88922,0.23937,1.06819
99.656,16.39474,98.89165,0.23881,1.06808
100.256,16.45415,98.8904,0.24039,1.06797
100.856,16.5133,98.86537,0.24354,1.06786
101.456,16.57246,98.85551,0.24296,1.06775
102.056,16.63167,98.87082,0.24383,1.06763
102.656,16.69081,98.89024,0.24306,1.06752
103.256,16.7497,98.85633,0.24464,1.0674
103.856,16.80868,98.85659,0.24547,1.06729
104.456,16.86778,98.8235,0.24447,1.06717
105.056,16.9267,98.82325,0.24823,1.06705
105.656,16.98565,98.83542,0.24899,1.06693
106.256,17.04458,98.85606,0.25228,1.06681
106.856,17.1033,98.8587,0.25175,1.06669
107.456,17.16227,98.85639,0.25125,1.06657
108.056,17.22111,98.8772,0.25406,1.06645
108.656,17.2799,98.85637,0.25701,1.06633
109.256,17.33839,98.85639,0.25657,1.0662
109.856,17.39714,98.85834,0.25767,1.06608
110.456,17.4557,98.83781,0.25985,1.06595
111.056,17.51445,98.83899,0.26032,1.06583
111.656,17.5732,98.84737,0.2604,1.0657
112.256,17.63196,98.82335,0.26192,1.06557
112.856,17.6907,98.85625,0.26327,1.06544
113.456,17.7494,98.8233,0.26474,1.06532
114.056,17.808,98.82341,0.26639,1.06518
114.656,17.86676,98.8399,0.26932,1.06505
115.256,17.92543,98.8519,0.27031,1.06492
115.856,17.98426,98.8232,0.2696,1.06479
116.456,18.0426,98.85802,0.27003,1.06466
117.056,18.10131,98.82356,0.27235,1.06452
117.656,18.16005,98.8225,0.27281,1.06439
118.256,18.21866,98.77373,0.27357,1.06425
118.856,18.27754,98.77381,0.27489,1.06411
119.456,18.3363,98.80674,0.27746,1.06398
120.056,18.39452,98.77153,0.27758,1.06384
120.656,18.4531,98.77369,0.28129,1.0637
121.256,18.51155,98.75418,0.28224,1.06356
121.856,18.57005,98.78228,0.283,1.06342
122.456,18.62845,98.7822,0.28744,1.06328
123.056,18.6869,98.7822,0.28514,1.06314
123.656,18.74534,98.7736,0.28835,1.06299
124.256,18.80388,98.77386,0.291,1.06285
124.856,18.86219,98.7739,0.29013,1.0627
125.456,18.92052,98.77394,0.2936,1.06256
126.056,18.979,98.74079,0.29697,1.06241
126.656,19.03732,98.74085,0.29933,1.06226
127.256,19.09548,98.741,0.30047,1.06212
127.856,19.1537,98.7081,0.30464,1.06197
128.456,19.21173,98.74302,0.31014,1.06182
129.056,19.2703,98.74085,0.31031,1.06167
129.656,19.32832,98.74085,0.3137,1.06152
130.256,19.38661,98.74085,0.31687,1.06137
130.856,19.44493,98.7271,0.31891,1.06121
131.456,19.5033,98.70769,0.32009,1.06106
132.056,19.56149,98.74055,0.32052,1.0609
132.656,19.6193,98.7081,0.31978,1.06075
133.256,19.67735,98.708,0.32076,1.06059
133.856,19.73561,98.708,0.31672,1.06044
134.456,19.79373,98.7067,0.31496,1.06028
135.056,19.852,98.67493,0.3111,1.06012
135.656,19.90999,98.67494,0.30371,1.05996
136.256,19.96792,98.67494,0.30244,1.0598
136.856,20.0259,98.70082,0.29793,1.05964
137.456,20.08393,98.67484,0.2961,1.05948
138.056,20.1418,98.67494,0.28993,1.05932
138.656,20.19957,98.67494,0.28688,1.05915
139.256,20.25739,98.67494,0.2882,1.05899
139.856,20.3153,98.6504,0.28593,1.05883
140.456,20.37332,98.6746,0.28519,1.05866
141.056,20.43123,98.67494,0.28506,1.05849
141.656,20.48891,98.67494,0.286,1.05833
142.256,20.5467,98.67712,0.28606,1.05816
142.856,20.60428,98.64186,0.28688,1.05799
143.456,20.66196,98.6388,0.28557,1.05782
144.056,20.71976,98.6259,0.28825,1.05765
144.656,20.77757,98.62531,0.28863,1.05748
145.256,20.83532,98.6358,0.2891,1.05731
145.856,20.89303,98.64185,0.28898,1.05714
146.456,20.95061,98.64188,0.28855,1.05696
147.056,21.00825,98.6088,0.29064,1.05679
147.656,21.06586,98.60902,0.2916,1.05661
148.256,21.12354,98.61013,0.29244,1.05644
148.856,21.18114,98.57596,0.29442,1.05626
149.456,21.23851,98.5762,0.29543,1.05608
150.056,21.29615,98.6088,0.29571,1.05591
150.656,21.35353,98.6087,0.29606,1.05573
151.256,21.41112,98.57579,0.2964,1.05555
151.856,21.46896,98.57602,0.29677,1.05537
152.456,21.52666,98.6112,0.29671,1.05519
153.056,21.58439,98.57594,0.29949,1.055
153.656,21.64179,98.57585,0.29887,1.05482
154.256,21.69913,98.60902,0.29824,1.05464
154.856,21.7566,98.60176,0.30031,1.05445
155.456,21.81426,98.6105,0.29951,1.05427
156.056,21.87206,98.58422,0.3019,1.05408
156.656,21.92963,98.58421,0.3037,1.0539
157.256,21.98702,98.57733,0.3031,1.05371
157.856,22.04466,98.57594,0.30398,1.05352
158.456,22.10228,98.57594,0.30641,1.05333
159.056,22.16007,98.57594,0.30356,1.05314
159.656,22.21752,98.55208,0.30505,1.05295
160.256,22.27507,98.55963,0.30772,1.05276
160.856,22.33248,98.57605,0.30699,1.05257
161.456,22.3896,98.5925,0.30757,1.05238
162.056,22.44724,98.5855,0.30891,1.05218
162.656,22.5047,98.58426,0.30937,1.05199
163.256,22.56265,98.61703,0.31066,1.05179
163.856,22.62022,98.5842,0.31267,1.0516
164.456,22.67781,98.58421,0.31143,1.0514
165.056,22.73537,98.58421,0.31219,1.0512
165.656,22.79275,98.58421,0.31249,1.051
166.256,22.85037,98.58475,0.31336,1.05081
166.856,22.9081,98.56864,0.31426,1.05061
167.456,22.9657,98.5852,0.31423,1.05041
168.056,23.0234,98.58396,0.31647,1.0502
168.656,23.08076,98.60383,0.31552,1.05
169.256,23.13831,98.61704,0.31913,1.0498
169.856,23.19584,98.61704,0.31819,1.0496
170.456,23.25333,98.61197,0.31812,1.04939
171.056,23.31081,98.58422,0.32053,1.04919
171.656,23.368,98.61716,0.32102,1.04898
172.256,23.42541,98.61731,0.32261,1.04877
172.856,23.48273,98.5849,0.32184,1.04857
173.456,23.54031,98.58428,0.32193,1.04836
174.056,23.59764,98.61694,0.3233,1.04815
174.656,23.65544,98.61704,0.32492,1.04794
175.256,23.71278,98.61704,0.32445,1.04773
175.856,23.77036,98.61704,0.32664,1.04752
176.456,23.8277,98.6238,0.32598,1.04731
177.056,23.88518,98.65236,0.32538,1.04709
177.656,23.94262,98.62291,0.32706,1.04688
178.256,24.0,98.6173,0.32679,1.04667
178.856,24.05754,98.64164,0.32879,1.04645
179.456,24.11498,98.61017,0.32776,1.04623
180.056,24.17235,98.60902,0.32985,1.04602
180.656,24.22975,98.62679,0.32901,1.0458
181.256,24.28716,98.60928,0.3327,1.04558
181.856,24.3444,98.62106,0.33245,1.04536
182.456,24.40157,98.64186,0.33188,1.04514
183.056,24.45863,98.64185,0.33568,1.04492
183.656,24.51577,98.64185,0.33473,1.0447
184.256,24.57297,98.64185,0.3345,1.04448
184.856,24.63021,98.64185,0.3351,1.04426
185.456,24.68758,98.64184,0.33749,1.04404
186.056,24.74479,98.64281,0.33549,1.04381
186.656,24.80209,98.64186,0.33841,1.04359
187.256,24.8594,98.64185,0.33978,1.04336
187.856,24.91649,98.64185,0.33798,1.04314
188.456,24.97392,98.64154,0.33828,1.04291
189.056,25.03125,98.60895,0.33966,1.04268
189.656,25.08865,98.60902,0.34142,1.04245
190.256,25.14588,98.60902,0.34197,1.04222
190.856,25.20297,98.60902,0.34354,1.04199
191.456,25.26013,98.60902,0.34364,1.04176
192.056,25.31756,98.6236,0.34197,1.04153
192.656,25.37479,98.6335,0.34407,1.0413
193.256,25.43225,98.6007,0.34476,1.04107
193.856,25.48968,98.60075,0.34413,1.04083
194.456,25.54703,98.60075,0.34617,1.0406
195.056,25.60432,98.60075,0.34977,1.04036
195.656,25.6616,98.6011,0.3456,1.04013
196.256,25.71876,98.58421,0.3503,1.03989
196.856,25.77593,98.58421,0.34863,1.03965
197.456,25.83318,98.58421,0.35152,1.03941
198.056,25.89043,98.58421,0.35331,1.03917
198.656,25.94755,98.5839,0.35312,1.03894
199.256,26.005,98.56795,0.35664,1.03869
199.856,26.06227,98.56792,0.35511,1.03845
200.456,26.11965,98.56785,0.35828,1.03821
201.056,26.17705,98.5762,0.36002,1.03797
201.656,26.23429,98.57665,0.36117,1.03773
202.256,26.2918,98.56325,0.3592,1.03748
202.856,26.34907,98.5594,0.3615,1.03724
203.456,26.4066,98.5757,0.36493,1.03699
204.056,26.4638,98.5746,0.36304,1.03675
204.656,26.52105,98.54285,0.36681,1.0365
205.256,26.5782,98.54286,0.36577,1.03625
205.856,26.6352,98.54313,0.3656,1.036
206.456,26.6925,98.54311,0.36646,1.03575
207.056,26.7496,98.54311,0.36964,1.0355
207.656,26.8068,98.54311,0.36993,1.03525
208.256,26.8639,98.54311,0.37331,1.035
208.856,26.92107,98.54311,0.37353,1.03475
209.456,26.97808,98.54311,0.37578,1.0345
210.056,27.0351,98.53806,0.37746,1.03424
210.656,27.0921,98.53485,0.37849,1.03399
211.256,27.14937,98.54308,0.37956,1.03373
211.856,27.2067,98.51035,0.38182,1.03348
212.456,27.26388,98.50966,0.38361,1.03322
213.056,27.321,98.53456,0.38465,1.03297
213.656,27.37818,98.5346,0.3862,1.03271
214.256,27.43539,98.5346,0.38849,1.03245
214.856,27.4926,98.51947,0.39155,1.03219
215.456,27.54976,98.4687,0.39412,1.03193
216.056,27.6068,98.4692,0.3963,1.03167
216.656,27.66415,98.47762,0.39959,1.03141
217.256,27.7214,98.47694,0.39967,1.03115
217.856,27.77887,98.47694,0.40042,1.03088
218.456,27.8362,98.477,0.40546,1.03062
219.056,27.89355,98.46862,0.40664,1.03036
219.656,27.95112,98.44941,0.40852,1.03009
220.256,28.00882,98.4356,0.41277,1.02983
220.856,28.0664,98.43559,0.41459,1.02956
221.456,28.124,98.4354,0.41636,1.02929
222.056,28.18143,98.41906,0.42099,1.02902
222.656,28.23883,98.40278,0.42638,1.02876
223.256,28.2964,98.40276,0.4305,1.02849
223.856,28.3539,98.40058,0.43307,1.02822
224.456,28.41133,98.43584,0.43861,1.02795
225.056,28.4689,98.43584,0.4434,1.02767
225.656,28.5265,98.43584,0.4455,1.0274
226.256,28.5841,98.40048,0.4522,1.02713
226.856,28.64156,98.404,0.45405,1.02686
227.456,28.69884,98.4193,0.45316,1.02658
228.056,28.75617,98.43053,0.45147,1.02631
228.656,28.81352,98.44382,0.44558,1.02603
229.256,28.87084,98.41096,0.44178,1.02576
229.856,28.9284,98.411,0.43699,1.02548
230.456,28.9856,98.41175,0.43681,1.0252
231.056,29.04294,98.4353,0.43513,1.02492
231.656,29.1001,98.40296,0.43,1.02464
232.256,29.15713,98.36964,0.43163,1.02436
232.856,29.2142,98.36967,0.42916,1.02408
233.456,29.2713,98.36967,0.42921,1.0238
234.056,29.32863,98.36967,0.43494,1.02352
234.656,29.38573,98.36967,0.43377,1.02324
235.256,29.4429,98.36967,0.43653,1.02296
235.856,29.50005,98.36964,0.43893,1.02267
236.456,29.557,98.39418,0.43876,1.02239
237.056,29.61425,98.39449,0.44322,1.0221
237.656,29.67128,98.39449,0.4442,1.02182
238.256,29.72843,98.39449,0.44822,1.02153
238.856,29.7857,98.36779,0.45327,1.02124
239.456,29.84277,98.36967,0.45655,1.02095
240.056,29.89988,98.35982,0.45972,1.02066
240.656,29.95705,98.33659,0.46246,1.02038
241.256,30.0143,98.33659,0.46834,1.02009
241.856,30.0715,98.33659,0.4739,1.01979
242.456,30.1288,98.33659,0.47969,1.0195
243.056,30.1861,98.33677,0.48285,1.01921
243.656,30.2435,98.30379,0.49129,1.01892
244.256,30.3009,98.3361,0.49797,1.01862
244.856,30.3584,98.33658,0.50461,1.01833
245.456,30.41595,98.30294,0.51114,1.01804
246.056,30.4733,98.30372,0.52395,1.01774
246.656,30.53074,98.27081,0.53259,1.01744
247.256,30.5884,98.26266,0.54598,1.01715
247.856,30.646,98.23315,0.56327,1.01685
248.456,30.7038,98.2356,0.58672,1.01655
249.056,30.76155,98.26266,0.62452,1.01625
249.656,30.8193,98.26269,0.67388,1.01595
250.256,30.8769,98.22946,0.72871,1.01565
250.856,30.93463,98.24597,0.78144,1.01535
251.456,30.99243,98.24586,0.83998,1.01505
252.056,31.05013,98.24586,0.89932,1.01475
252.656,31.10796,98.24586,0.96194,1.01444
253.256,31.1656,98.24586,1.02401,1.01414
253.856,31.22342,98.24599,1.07655,1.01384
254.456,31.28133,98.2141,1.11696,1.01353
255.056,31.3392,98.14711,1.14005,1.01323
255.656,31.397,98.146,1.14453,1.01292
256.256,31.4547,98.18013,1.1232,1.01261
256.856,31.51241,98.13042,1.07912,1.01231
257.456,31.5701,98.11404,1.02067,1.012
258.056,31.62782,98.11404,0.94943,1.01169
258.656,31.6851,98.11403,0.87943,1.01138
259.256,31.74225,98.11359,0.8171,1.01107
259.856,31.79948,98.08898,0.76223,1.01076
260.456,31.85647,98.05646,0.71273,1.01045
261.056,31.91368,98.0481,0.67404,1.01013
261.656,31.9707,98.048,0.64302,1.00982
262.256,32.02787,97.99022,0.61433,1.00951
262.856,32.085,97.98215,0.59091,1.00919
263.456,32.1422,97.98221,0.57079,1.00888
264.056,32.19934,97.98221,0.55431,1.00856
264.656,32.2562,97.95525,0.54148,1.00825
265.256,32.31321,97.9491,0.52873,1.00793
265.856,32.37017,97.94912,0.52299,1.00761
266.456,32.4273,97.93648,0.51262,1.00729
267.056,32.48433,97.9041,0.50517,1.00697
267.656,32.54165,97.88319,0.50117,1.00665
268.256,32.59874,97.85876,0.49866,1.00633
268.856,32.65585,97.85865,0.49532,1.00601
269.456,32.71334,97.85865,0.49232,1.00569
270.056,32.77055,97.85865,0.48807,1.00537
270.656,32.82816,97.85865,0.48802,1.00505
271.256,32.8856,97.8584,0.48861,1.00472
271.856,32.943,97.85037,0.48681,1.0044
272.456,33.00046,97.81651,0.48707,1.00408
273.056,33.05773,97.81729,0.48778,1.00375
273.656,33.11506,97.75116,0.48813,1.00342
274.256,33.17239,97.75113,0.48748,1.0031
274.856,33.2297,97.75098,0.48734,1.00277
275.456,33.28711,97.75117,0.48949,1.00244
276.056,33.3444,97.73487,0.48843,1.00211
276.656,33.40147,97.73484,0.48994,1.00178
277.256,33.4589,97.73483,0.49298,1.00145
277.856,33.5163,97.70165,0.49194,1.00112
278.456,33.57393,97.70175,0.49116,1.00079
279.056,33.6313,97.70175,0.49311,1.00046
279.656,33.68853,97.70176,0.49311,1.00013
280.256,33.74545,97.6644,0.49631,0.9998
280.856,33.8026,97.66066,0.49597,0.99946
281.456,33.86005,97.63466,0.4974,0.99913
282.056,33.91751,97.63584,0.49569,0.99879
282.656,33.975,97.63673,0.49782,0.99846
283.256,34.0325,97.62875,0.49823,0.99812
283.856,34.08984,97.61065,0.49824,0.99778
284.456,34.14717,97.56961,0.49992,0.99745
285.056,34.20455,97.57091,0.49941,0.99711
285.656,34.26173,97.53687,0.50095,0.99677
286.256,34.31908,97.53684,0.49913,0.99643
286.856,34.3763,97.53684,0.50053,0.99609
287.456,34.43371,97.5166,0.50102,0.99575
288.056,34.49118,97.5038,0.5008,0.99541
288.656,34.54864,97.47066,0.49864,0.99507
289.256,34.60629,97.47068,0.49842,0.99473
289.856,34.66377,97.47049,0.49989,0.99438
290.456,34.72108,97.47076,0.49707,0.99404
291.056,34.77861,97.414,0.49661,0.99369
291.656,34.83611,97.40476,0.4966,0.99335
292.256,34.89365,97.40476,0.49613,0.993
292.856,34.95138,97.4025,0.49491,0.99266
293.456,35.00884,97.37193,0.49429,0.99231
294.056,35.06633,97.34818,0.49425,0.99196
294.656,35.1239,97.3471,0.49514,0.99162
295.256,35.18105,97.3471,0.4931,0.99127
295.856,35.23845,97.34694,0.49335,0.99092
296.456,35.29606,97.33145,0.49249,0.99057
297.056,35.35355,97.31205,0.49332,0.99022
297.656,35.41158,97.27296,0.49591,0.98987
298.256,35.46898,97.2729,0.49472,0.98951
298.856,35.52648,97.24005,0.49766,0.98916
299.456,35.5839,97.2398,0.49835,0.98881
300.056,35.6413,97.20694,0.49609,0.98846
300.656,35.69869,97.20706,0.4964,0.9881
301.256,35.75606,97.17397,0.49715,0.98775
301.856,35.81329,97.17605,0.49587,0.98739
302.456,35.87068,97.10806,0.49471,0.98704
303.056,35.92801,97.10802,0.49544,0.98668
303.656,35.9855,97.10802,0.49188,0.98632
304.256,36.04295,97.10802,0.49273,0.98596
304.856,36.10047,97.07346,0.49276,0.98561
305.456,36.15788,97.07494,0.49243,0.98525
306.056,36.2153,97.06035,0.4937,0.98489
306.656,36.27284,97.0082,0.49111,0.98453
307.256,36.3301,96.97593,0.49123,0.98417
307.856,36.38755,96.9759,0.49122,0.98381
308.456,36.44497,96.9759,0.49098,0.98344
309.056,36.5022,96.96916,0.49182,0.98308
309.656,36.55966,96.91,0.48952,0.98272
310.256,36.61703,96.8781,0.49035,0.98235
310.856,36.67452,96.90169,0.48983,0.98199
311.456,36.7319,96.86746,0.49053,0.98163
312.056,36.7894,96.86867,0.4904,0.98126
312.656,36.8469,96.83619,0.48993,0.98089
313.256,36.90449,96.8026,0.49166,0.98053
313.856,36.96201,96.7997,0.49037,0.98016
314.456,37.01957,96.76992,0.48965,0.97979
315.056,37.07695,96.76335,0.49181,0.97942
315.656,37.13436,96.7286,0.49215,0.97906
316.256,37.1918,96.7286,0.49156,0.97869
316.856,37.24901,96.7286,0.49079,0.97832
317.456,37.30652,96.69626,0.49327,0.97794
318.056,37.3641,96.66337,0.49439,0.97757
318.656,37.42139,96.63901,0.4939,0.9772
319.256,37.47873,96.60475,0.49403,0.97683
319.856,37.5361,96.61349,0.49805,0.97646
320.456,37.5936,96.6156,0.49808,0.97608
321.056,37.65137,96.60501,0.49797,0.97571
321.656,37.7092,96.5719,0.50051,0.97533
322.256,37.7669,96.57216,0.49884,0.97496
322.856,37.82456,96.50636,0.49987,0.97458
323.456,37.88213,96.50746,0.50127,0.97421
324.056,37.9395,96.47293,0.50135,0.97383
324.656,37.99693,96.47502,0.50753,0.97345
325.256,38.05444,96.43985,0.51625,0.97307
325.856,38.11189,96.44115,0.52457,0.97269
326.456,38.16925,96.407,0.53532,0.97231
327.056,38.22659,96.3767,0.54274,0.97193
327.656,38.28386,96.3739,0.55105,0.97155
328.256,38.3411,96.3406,0.55602,0.97117
328.856,38.3986,96.3246,0.56398,0.97079
329.456,38.45608,96.29137,0.57192,0.97041
330.056,38.51328,96.29148,0.57371,0.97003
330.656,38.5706,96.2799,0.57785,0.96964
331.256,38.62807,96.25864,0.58271,0.96926
331.856,38.68591,96.2324,0.58562,0.96888
332.456,38.744,96.22565,0.58707,0.96849
333.056,38.80182,96.1928,0.58822,0.9681
333.656,38.85953,96.18342,0.59102,0.96772
334.256,38.9172,96.15943,0.59273,0.96733
334.856,38.97465,96.1172,0.59382,0.96694
335.456,39.0323,96.09532,0.5932,0.96656
336.056,39.08972,96.08476,0.59759,0.96617
336.656,39.14748,96.0524,0.59512,0.96578
337.256,39.2053,96.02029,0.59591,0.96539
337.856,39.2631,96.0193,0.59719,0.965
338.456,39.3208,96.01905,0.59588,0.96461
339.056,39.37846,95.9714,0.59983,0.96422
339.656,39.43605,95.91877,0.59974,0.96383
340.256,39.49368,95.9003,0.60165,0.96344
340.856,39.5514,95.88746,0.60332,0.96304
341.456,39.60883,95.85466,0.60665,0.96265
342.056,39.66641,95.82687,0.61087,0.96226
342.656,39.7239,95.79431,0.61296,0.96186
343.256,39.78174,95.75328,0.61639,0.96147
343.856,39.8395,95.71984,0.62113,0.96107
344.456,39.8973,95.68686,0.62214,0.96067
345.056,39.95483,95.65436,0.62606,0.96028
345.656,40.01238,95.62096,0.63277,0.95988
346.256,40.0698,95.58774,0.63489,0.95948
346.856,40.12685,95.58879,0.63927,0.95909
347.456,40.18443,95.5299,0.64651,0.95869
348.056,40.24214,95.48368,0.65176,0.95829
348.656,40.3003,95.4533,0.65723,0.95789
349.256,40.35839,95.41972,0.66112,0.95749
349.856,40.4159,95.38891,0.66889,0.95709
350.456,40.4735,95.3519,0.67543,0.95669
351.056,40.531,95.31651,0.68088,0.95628
351.656,40.5888,95.27518,0.68979,0.95588
352.256,40.64647,95.20447,0.69694,0.95548
352.856,40.70431,95.16373,0.70206,0.95507
353.456,40.762,95.08766,0.70973,0.95467
354.056,40.81963,95.0489,0.71518,0.95427
354.656,40.87737,95.01607,0.72549,0.95386
355.256,40.93505,94.9881,0.73472,0.95346
355.856,40.99292,94.94983,0.74253,0.95305
356.456,41.0507,94.89694,0.7537,0.95264
357.056,41.10848,94.84221,0.76122,0.95224
357.656,41.16628,94.79218,0.77006,0.95183
358.256,41.22408,94.74168,0.77817,0.95142
358.856,41.28201,94.685,0.78399,0.95101
359.456,41.33996,94.6341,0.79381,0.9506
360.056,41.39796,94.5865,0.8008,0.95019
360.656,41.4559,94.52237,0.80928,0.94978
361.256,41.51362,94.4823,0.81984,0.94937
361.856,41.5715,94.41917,0.8269,0.94896
362.456,41.62948,94.342,0.83324,0.94855
363.056,41.68739,94.27735,0.84016,0.94814
363.656,41.74541,94.21344,0.84744,0.94772
364.256,41.8034,94.21222,0.85576,0.94731
364.856,41.8614,94.15571,0.85965,0.94689
365.456,41.91962,94.08126,0.86679,0.94648
366.056,41.97765,94.00572,0.87118,0.94607
366.656,42.03544,93.92627,0.8765,0.94565
367.256,42.09332,93.8848,0.88381,0.94523
367.856,42.15128,93.83205,0.88929,0.94482
368.456,42.2094,93.73146,0.89717,0.9444
369.056,42.26777,93.68401,0.90169,0.94398
369.656,42.32565,93.61548,0.90765,0.94357
370.256,42.38384,93.58334,0.90981,0.94315
370.856,42.442,93.49664,0.91403,0.94273
371.456,42.50034,93.41428,0.91521,0.94231
372.056,42.5586,93.35637,0.91837,0.94189
372.656,42.6169,93.3159,0.91876,0.94147
373.256,42.6751,93.2468,0.92195,0.94105
373.856,42.73314,93.1758,0.91972,0.94063
374.456,42.79142,93.05903,0.91874,0.9402
375.056,42.8498,92.9704,0.91858,0.93978
375.656,42.908,92.90216,0.91368,0.93936
376.256,42.96652,92.86541,0.90806,0.93894
376.856,43.02511,92.81209,0.90003,0.93851
377.456,43.08365,92.73145,0.89419,0.93809
378.056,43.14236,92.60776,0.88819,0.93766
378.656,43.20089,92.53686,0.88474,0.93724
379.256,43.2594,92.5004,0.87885,0.93681
379.856,43.3178,92.43024,0.86634,0.93639
380.456,43.37634,92.36112,0.85921,0.93596
381.056,43.43502,92.24687,0.85296,0.93553
381.656,43.4937,92.16986,0.84205,0.9351
382.256,43.55263,92.09469,0.8336,0.93467
382.856,43.61121,91.97981,0.82673,0.93425
383.456,43.66965,91.90355,0.81844,0.93382
384.056,43.72817,91.8492,0.8117,0.93339
384.656,43.7864,91.73521,0.80729,0.93296
385.256,43.8446,91.67124,0.80205,0.93253
385.856,43.9033,91.60486,0.7929,0.9321
386.456,43.96192,91.51932,0.79159,0.93166
387.056,44.02081,91.41626,0.78866,0.93123
387.656,44.0794,91.28525,0.78785,0.9308
388.256,44.13799,91.21167,0.78621,0.93037
388.856,44.19705,91.09906,0.78511,0.92993
389.456,44.2562,91.00345,0.78134,0.9295
390.056,44.3151,90.88508,0.78126,0.92906
390.656,44.37395,90.79284,0.77473,0.92863
391.256,44.43292,90.6609,0.77463,0.92819
391.856,44.49196,90.53964,0.77128,0.92776
392.456,44.5512,90.39058,0.76392,0.92732
393.056,44.61018,90.24364,0.75592,0.92688
393.656,44.66935,90.10334,0.7496,0.92645
394.256,44.7284,89.99809,0.74108,0.92601
394.856,44.78732,89.84244,0.73602,0.92557
395.456,44.84629,89.72196,0.73232,0.92513
396.056,44.90502,89.571,0.7326,0.92469
396.656,44.96375,89.40611,0.73426,0.92425
397.256,45.02256,89.24341,0.73224,0.92381
397.856,45.08146,89.0933,0.7297,0.92337
398.456,45.1404,88.89639,0.72411,0.92293
399.056,45.19942,88.6952,0.71692,0.92249
399.656,45.25865,88.54619,0.7049,0.92205
400.256,45.31797,88.3657,0.68601,0.92161
400.856,45.3773,88.16809,0.66882,0.92116
401.456,45.4364,87.9853,0.6571,0.92072
402.056,45.4954,87.72618,0.64786,0.92028
402.656,45.55427,87.53109,0.64149,0.91983
403.256,45.61314,87.3237,0.63883,0.91939
403.856,45.67199,87.10999,0.63932,0.91894
404.456,45.7307,86.8801,0.64052,0.9185
405.056,45.78941,86.69345,0.64176,0.91805
405.656,45.84815,86.46977,0.63656,0.91761
406.256,45.9067,86.34053,0.64032,0.91716
406.856,45.96528,86.08761,0.64789,0.91671
407.456,46.02375,85.8616,0.65023,0.91626
408.056,46.08209,85.6086,0.64943,0.91582
408.656,46.1404,85.33641,0.65126,0.91537
409.256,46.19879,84.97118,0.65844,0.91492
409.856,46.2574,84.6006,0.65292,0.91447
410.456,46.31562,84.19071,0.65757,0.91402
411.056,46.37409,83.7761,0.66404,0.91357
411.656,46.43245,83.32157,0.67085,0.91312
412.256,46.49085,82.91683,0.67615,0.91267
412.856,46.54938,82.42328,0.68213,0.91221
413.456,46.60799,81.9496,0.68686,0.91176
414.056,46.66625,81.51142,0.69389,0.91131
414.656,46.72468,81.01016,0.70807,0.91086
415.256,46.78281,80.4808,0.71736,0.9104
415.856,46.84111,79.8922,0.72021,0.90995
416.456,46.89956,79.37313,0.72688,0.9095
417.056,46.95783,78.752,0.74258,0.90904
417.656,47.01639,78.18711,0.75528,0.90859
418.256,47.0747,77.52973,0.76276,0.90813
418.856,47.13321,76.92843,0.77097,0.90767
419.456,47.19169,76.27983,0.775,0.90722
420.056,47.25025,75.58835,0.78603,0.90676
420.656,47.30872,74.87218,0.79928,0.9063
421.256,47.36712,74.10297,0.81339,0.90585
421.856,47.42542,73.33978,0.82378,0.90539
422.456,47.48393,72.49637,0.83159,0.90493
423.056,47.54238,71.70974,0.84074,0.90447
423.656,47.6008,70.86604,0.85175,0.90401
424.256,47.65927,70.07004,0.85074,0.90355
424.856,47.71763,69.20877,0.8532,0.90309
425.456,47.77612,68.33343,0.85439,0.90263
426.056,47.83467,67.3961,0.84981,0.90217
426.656,47.89309,66.54103,0.85029,0.90171
427.256,47.95154,65.63217,0.85558,0.90125
427.856,48.00967,64.67849,0.85743,0.90078
428.456,48.0683,63.68917,0.85506,0.90032
429.056,48.12676,62.7432,0.8591,0.89986
429.656,48.1854,61.78996,0.86291,0.8994
430.256,48.24423,60.7393,0.86186,0.89893
430.856,48.3026,59.7745,0.86359,0.89847
431.456,48.3613,58.6405,0.86927,0.898
432.056,48.41981,57.67612,0.86972,0.89754
432.656,48.47848,56.55928,0.87207,0.89707
433.256,48.5369,55.51361,0.87453,0.89661
433.856,48.59537,54.4141,0.87466,0.89614
434.456,48.6539,53.3565,0.87324,0.89567
435.056,48.71235,52.2175,0.86851,0.89521
435.656,48.771,51.01719,0.86747,0.89474
436.256,48.8294,49.90931,0.86018,0.89427
436.856,48.88787,48.8519,0.8506,0.8938
437.456,48.94644,47.7504,0.84278,0.89333
438.056,49.00503,46.65715,0.8327,0.89286
438.656,49.06364,45.5792,0.82171,0.8924
439.256,49.12212,44.4846,0.81233,0.89193
439.856,49.18059,43.49726,0.80137,0.89146
440.456,49.2391,42.4476,0.78721,0.89098
441.056,49.29759,41.4176,0.77819,0.89051
441.656,49.3561,40.4551,0.76304,0.89004
442.256,49.41428,39.3848,0.74462,0.88957
442.856,49.4727,38.38655,0.72497,0.8891
443.456,49.53092,37.52851,0.70558,0.88863
444.056,49.5892,36.60324,0.68526,0.88815
444.656,49.64744,35.69358,0.66263,0.88768
445.256,49.70561,34.87257,0.64377,0.88721
445.856,49.76397,33.99957,0.61922,0.88673
446.456,49.8223,33.27302,0.59863,0.88626
447.056,49.8808,32.46205,0.5729,0.88578
447.656,49.93913,31.822,0.54883,0.88531
448.256,49.99733,31.1135,0.52561,0.88483
448.856,50.0555,30.51111,0.5009,0.88436
449.456,50.11352,29.8718,0.47925,0.88388
450.056,50.1717,29.3352,0.4552,0.8834
450.656,50.22987,28.8048,0.43467,0.88293
451.256,50.28799,28.32882,0.41289,0.88245
451.856,50.34621,27.91824,0.38987,0.88197
452.456,50.40447,27.39929,0.36919,0.88149
453.056,50.46266,27.0189,0.35581,0.88101
453.656,50.52067,26.6555,0.337,0.88053
454.256,50.57863,26.28821,0.31961,0.88005
454.856,50.63704,25.92122,0.29951,0.87958
455.456,50.69522,25.65363,0.28453,0.8791
456.056,50.75428,25.32838,0.26749,0.87861
456.656,50.81286,25.03313,0.25702,0.87813
457.256,50.8713,24.7406,0.23995,0.87765
457.856,50.9296,24.47628,0.22822,0.87717
458.456,50.9878,24.15399,0.21421,0.87669
459.056,51.04627,23.90105,0.202,0.87621
459.656,51.10491,23.71809,0.18902,0.87572
460.256,51.16346,23.49231,0.17712,0.87524
460.856,51.22191,23.30426,0.16516,0.87476
461.456,51.28045,23.0948,0.15231,0.87427
462.056,51.3388,22.8771,0.14204,0.87379
462.656,51.39741,22.74315,0.13222,0.87331
463.256,51.45603,22.57726,0.12138,0.87282
463.856,51.51465,22.36017,0.11159,0.87234
464.456,51.57309,22.1757,0.10448,0.87185
465.056,51.63147,22.0491,0.10631,0.87137
465.656,51.68992,21.91467,0.10569,0.87088
466.256,51.74825,21.7868,0.10265,0.87039
466.856,51.8061,21.6886,0.1143,0.86991
467.456,51.86271,21.55249,0.14634,0.86942
468.056,51.9181,21.45228,0.24395,0.86893
468.656,51.97305,21.3868,0.31433,0.86844
469.256,52.02831,21.23486,0.35987,0.86796
469.856,52.08469,21.10437,0.39558,0.86747
470.456,52.14233,20.97436,0.41092,0.86698
471.056,52.20088,20.9021,0.40083,0.86649
471.656,52.26027,20.85592,0.36565,0.866
472.256,52.3204,20.74062,0.30085,0.86551
472.856,52.3808,20.65152,0.25687,0.86502
473.456,52.44109,20.54467,0.2278,0.86453
474.056,52.50119,20.46743,0.20389,0.86404
474.656,52.56123,20.43833,0.17955,0.86355
475.256,52.62163,20.35656,0.13712,0.86305
475.856,52.68235,20.27659,0.08304264,0.86256
476.456,52.7429,20.1709,0.02416029,0.86207
477.056,52.80336,20.10053,-0.03018606,0.86158
477.656,52.8636,20.06215,-0.08295089,0.86108
478.256,52.924,20.04105,-0.1334,0.86059
478.856,52.9843,19.95961,-0.17908,0.8601
479.456,53.04439,19.92738,-0.21903,0.8596
480.056,53.10455,19.8455,-0.25383,0.85911
480.656,53.1648,19.8024,-0.29275,0.85862
481.256,53.2252,19.78462,-0.33674,0.85812
481.856,53.2855,19.70984,-0.3627,0.85763
482.456,53.3455,19.63307,-0.39261,0.85713
483.056,53.4053,19.60205,-0.4115,0.85663
483.656,53.4649,19.5707,-0.41314,0.85614
484.256,53.5244,19.53612,-0.41851,0.85564
484.856,53.5841,19.50348,-0.42668,0.85514
485.456,53.6437,19.46746,-0.42306,0.85465
486.056,53.7036,19.4602,-0.4242,0.85415
486.656,53.7633,19.41776,-0.42297,0.85365
487.256,53.823,19.38247,-0.4215,0.85315
487.856,53.88299,19.34918,-0.41985,0.85266
488.456,53.9432,19.3167,-0.41526,0.85216
489.056,54.003,19.29032,-0.41361,0.85166
489.656,54.0627,19.28623,-0.41238,0.85116
490.256,54.12242,19.24963,-0.4082,0.85066
490.856,54.1823,19.21411,-0.40388,0.85016
491.456,54.2422,19.18144,-0.40251,0.84966
492.056,54.302,19.18221,-0.39717,0.84916
492.656,54.36178,19.14839,-0.39351,0.84866
493.256,54.42125,19.14624,-0.39127,0.84816
493.856,54.48069,19.1037,-0.38727,0.84766
494.456,54.5404,19.0989,-0.38232,0.84715
495.056,54.60015,19.0663,-0.3786,0.84665
495.656,54.66,19.02957,-0.373,0.84615
496.256,54.7197,18.9972,-0.36672,0.84565
496.856,54.7793,18.99725,-0.37057,0.84514
497.456,54.839,18.96431,-0.36268,0.84464
498.056,54.8987,18.9642,-0.35953,0.84414
498.656,54.95828,18.9806,-0.35048,0.84363
499.256,55.0178,18.9807,-0.34754,0.84313
499.856,55.0773,18.9481,-0.34736,0.84262
500.456,55.13664,18.9135,-0.34181,0.84212
501.056,55.1962,18.8816,-0.33782,0.84161
501.656,55.25577,18.8493,-0.33634,0.84111
502.256,55.3157,18.84887,-0.33295,0.8406
502.856,55.3757,18.8504,-0.33076,0.8401
503.456,55.43521,18.82382,-0.32602,0.83959
504.056,55.4947,18.82392,-0.32197,0.83909
504.656,55.5545,18.79941,-0.32001,0.83858
505.256,55.61441,18.79092,-0.31796,0.83807
505.856,55.6744,18.79097,-0.31442,0.83756
506.456,55.7343,18.78409,-0.3097,0.83706
507.056,55.79407,18.76193,-0.30665,0.83655
507.656,55.85391,18.76618,-0.30428,0.83604
508.256,55.91384,18.73497,-0.30097,0.83553
508.856,55.97354,18.708,-0.29907,0.83502
509.456,56.0331,18.70038,-0.29829,0.83451
510.056,56.0926,18.697,-0.29467,0.834
510.656,56.15197,18.684,-0.2922,0.8335
511.256,56.2116,18.65118,-0.29202,0.83299
511.856,56.2714,18.6509,-0.28928,0.83248
512.456,56.3307,18.65093,-0.28919,0.83197
513.056,56.3904,18.68437,-0.28607,0.83145
513.656,56.45005,18.6839,-0.28209,0.83094
514.256,56.50988,18.66744,-0.28387,0.83043
514.856,56.5696,18.65085,-0.28126,0.82992
515.456,56.6288,18.65846,-0.27895,0.82941
516.056,56.68852,18.65063,-0.27837,0.8289
516.656,56.7481,18.63663,-0.27662,0.82838
517.256,56.808,18.61798,-0.27411,0.82787
517.856,56.8675,18.65062,-0.27163,0.82736
518.456,56.9269,18.6172,-0.27363,0.82685
519.056,56.9863,18.5847,-0.2708,0.82633
519.656,57.0458,18.58471,-0.26685,0.82582
520.256,57.1051,18.58471,-0.26704,0.82531
520.856,57.1647,18.58407,-0.26742,0.82479
521.456,57.2243,18.55157,-0.26393,0.82428
522.056,57.2839,18.5186,-0.26142,0.82376
522.656,57.3438,18.52562,-0.25944,0.82325
523.256,57.40331,18.54251,-0.25983,0.82273
523.856,57.4627,18.4788,-0.25862,0.82222
524.456,57.5222,18.48321,-0.2596,0.8217
525.056,57.5817,18.48321,-0.25881,0.82119
525.656,57.6412,18.4625,-0.25699,0.82067
526.256,57.7009,18.48334,-0.25931,0.82015
526.856,57.7604,18.48323,-0.25686,0.81964
527.456,57.82,18.4489,-0.25778,0.81912
528.056,57.87955,18.41703,-0.25783,0.8186
528.656,57.93903,18.4501,-0.25734,0.81809
529.256,57.9985,18.4499,-0.25244,0.81757
529.856,58.05794,18.41691,-0.25653,0.81705
530.456,58.11766,18.38413,-0.25287,0.81653
531.056,58.17739,18.33878,-0.25296,0.81601
531.656,58.23721,18.29381,-0.25448,0.81549
532.256,58.29681,18.29775,-0.25508,0.81498
532.856,58.3565,18.32657,-0.25672,0.81446
533.456,58.41616,18.32657,-0.25445,0.81394
534.056,58.4757,18.3265,-0.25363,0.81342
534.656,58.53566,18.29332,-0.25721,0.8129
535.256,58.5953,18.27512,-0.25527,0.81238
535.856,58.6553,18.29348,-0.25475,0.81186
536.456,58.715,18.293,-0.25428,0.81134
537.056,58.7749,18.2357,-0.25497,0.81082
537.656,58.83491,18.23584,-0.25513,0.8103
538.256,58.895,18.23584,-0.25416,0.80977
538.856,58.95505,18.23584,-0.25658,0.80925
539.456,59.01486,18.23551,-0.25369,0.80873
540.056,59.07454,18.21681,-0.2556,0.80821
540.656,59.13463,18.2073,-0.25568,0.80769
541.256,59.195,18.1922,-0.25596,0.80716
541.856,59.25561,18.16163,-0.25602,0.80664
542.456,59.3159,18.19375,-0.25853,0.80612
543.056,59.3761,18.19444,-0.25523,0.8056
543.656,59.43648,18.16165,-0.25594,0.80507
544.256,59.49671,18.12874,-0.25655,0.80455
544.856,59.5571,18.12858,-0.25898,0.80403
545.456,59.61721,18.09746,-0.26003,0.8035
546.056,59.6774,18.0945,-0.25791,0.80298
546.656,59.7375,18.09842,-0.25893,0.80245
547.256,59.79766,18.0836,-0.25934,0.80193
547.856,59.85796,18.0626,-0.25865,0.8014
548.456,59.91806,18.06266,-0.25874,0.80088
549.056,59.97826,18.06261,-0.26298,0.80035
549.656,60.03824,18.07218,-0.26052,0.79983
550.256,60.0982,18.06241,-0.26147,0.7993
550.856,60.15824,18.06241,-0.26229,0.79878
551.456,60.2182,18.06241,-0.26302,0.79825
552.056,60.278,18.06241,-0.263,0.79772
552.656,60.33789,18.06241,-0.26221,0.7972
553.256,60.3975,18.0552,-0.26097,0.79667
553.856,60.45734,18.02153,-0.26367,0.79614
554.456,60.51718,18.0213,-0.26324,0.79562
555.056,60.5769,18.0214,-0.26396,0.79509
555.656,60.63681,17.98839,-0.26478,0.79456
556.256,60.6967,17.9882,-0.2659,0.79403
556.856,60.75665,17.9696,-0.26767,0.79351
557.456,60.8163,17.95515,-0.26755,0.79298
558.056,60.8759,17.9227,-0.26587,0.79245
558.656,60.93555,17.92231,-0.26731,0.79192
559.256,60.99525,17.92231,-0.26897,0.79139
559.856,61.05517,17.92759,-0.26884,0.79086
560.456,61.11509,17.89753,-0.26979,0.79033
561.056,61.17505,17.8975,-0.27038,0.7898
561.656,61.23506,17.89708,-0.27024,0.78928
562.256,61.295,17.9223,-0.27234,0.78875
562.856,61.35471,17.91386,-0.27349,0.78822
563.456,61.4146,17.89835,-0.27304,0.78769
564.056,61.47426,17.88922,-0.27603,0.78715
564.656,61.53411,17.8892,-0.27649,0.78662
565.256,61.59391,17.86348,-0.2777,0.78609
565.856,61.6536,17.85639,-0.2808,0.78556
566.456,61.71343,17.8561,-0.27685,0.78503
567.056,61.77327,17.82321,-0.27982,0.7845
567.656,61.8333,17.82338,-0.28134,0.78397
568.256,61.8929,17.79082,-0.28226,0.78344
568.856,61.9529,17.79048,-0.28196,0.78291
569.456,62.0129,17.76635,-0.28784,0.78237
570.056,62.0728,17.75739,-0.28773,0.78184
570.656,62.133,17.75739,-0.29204,0.78131
571.256,62.1927,17.75318,-0.2897,0.78078
571.856,62.2524,17.7243,-0.29637,0.78024
572.456,62.3122,17.7334,-0.2957,0.77971
573.056,62.372,17.72622,-0.2958,0.77918
573.656,62.43184,17.74081,-0.29549,0.77864
574.256,62.49156,17.74085,-0.29972,0.77811
574.856,62.5514,17.74083,-0.30237,0.77758
575.456,62.6112,17.71689,-0.29918,0.77704
576.056,62.67122,17.70409,-0.30111,0.77651
576.656,62.7312,17.67495,-0.30462,0.77598
577.256,62.7912,17.70085,-0.30585,0.77544
577.856,62.85095,17.67468,-0.3091,0.77491
578.456,62.91089,17.67474,-0.30875,0.77437
579.056,62.97099,17.67683,-0.30994,0.77384
579.656,63.031,17.67492,-0.31081,0.7733
580.256,63.09094,17.6247,-0.31008,0.77277
580.856,63.15101,17.59235,-0.31037,0.77223
581.456,63.21099,17.59248,-0.31097,0.7717
582.056,63.271,17.59248,-0.31386,0.77116
582.656,63.3309,17.5959,-0.31537,0.77063
583.256,63.39083,17.62262,-0.31364,0.77009
583.856,63.45086,17.59248,-0.31332,0.76955
584.456,63.51086,17.59248,-0.3109,0.76902
585.056,63.5708,17.59251,-0.31377,0.76848
585.656,63.6308,17.5596,-0.31458,0.76794
586.256,63.69059,17.5597,-0.31254,0.76741
586.856,63.7504,17.52263,-0.31274,0.76687
587.456,63.8104,17.4909,-0.3107,0.76633
588.056,63.8703,17.51598,-0.30912,0.7658
588.656,63.9304,17.52356,-0.31173,0.76526
589.256,63.99018,17.52356,-0.31231,0.76472
589.856,64.04998,17.52378,-0.31191,0.76418
590.456,64.10969,17.4982,-0.31272,0.76365
591.056,64.1695,17.46592,-0.30814,0.76311
591.656,64.2295,17.4323,-0.31021,0.76257
592.256,64.2895,17.4576,-0.31192,0.76203
592.856,64.34958,17.4573,-0.3096,0.76149
593.456,64.40953,17.42481,-0.30728,0.76095
594.056,64.46966,17.42481,-0.30787,0.76042
594.656,64.52982,17.4575,-0.30594,0.75988
595.256,64.59006,17.45615,-0.3056,0.75934
595.856,64.65045,17.45786,-0.30632,0.7588
596.456,64.71086,17.45789,-0.30233,0.75826
597.056,64.77123,17.45789,-0.30448,0.75772
597.656,64.83168,17.45798,-0.30247,0.75718
598.256,64.8921,17.42486,-0.30144,0.75664
598.856,64.9526,17.42481,-0.30401,0.7561
599.456,65.0128,17.42482,-0.30229,0.75556
600.056,65.07319,17.4001,-0.30157,0.75502
600.656,65.13346,17.39173,-0.2989,0.75448
601.256,65.1939,17.39173,-0.29744,0.75394
601.856,65.25457,17.39173,-0.29878,0.7534
602.456,65.3149,17.39299,-0.30082,0.75286
603.056,65.37563,17.34999,-0.30068,0.75232
603.656,65.43608,17.3337,-0.29661,0.75178
604.256,65.49695,17.3341,-0.30105,0.75124
604.856,65.55741,17.30122,-0.29276,0.7507
605.456,65.6177,17.30077,-0.29288,0.75015
606.056,65.678,17.26801,-0.2949,0.74961
606.656,65.73831,17.24326,-0.28685,0.74907
607.256,65.79834,17.24336,-0.28891,0.74853
607.856,65.8587,17.24336,-0.28745,0.74799
608.456,65.91891,17.24338,-0.28979,0.74745
609.056,65.97909,17.21036,-0.28902,0.7469
609.656,66.0393,17.16068,-0.28996,0.74636
610.256,66.0995,17.18546,-0.28579,0.74582
610.856,66.15944,17.18546,-0.28455,0.74528
611.456,66.2195,17.18546,-0.28145,0.74473
612.056,66.27968,17.1855,-0.27623,0.74419
612.656,66.33971,17.1279,-0.28061,0.74365
613.256,66.39949,17.12782,-0.28127,0.74311
613.856,66.45943,17.09406,-0.27841,0.74256
614.456,66.51946,17.0863,-0.27575,0.74202
615.056,66.5796,17.1526,-0.27645,0.74148
615.656,66.63981,17.1098,-0.27239,0.74093
616.256,66.69981,17.0865,-0.27186,0.74039
616.856,66.7598,17.0865,-0.27162,0.73985
617.456,66.81998,17.0534,-0.27028,0.7393
618.056,66.8801,17.05193,-0.27124,0.73876
618.656,66.94009,17.02084,-0.27116,0.73821
619.256,67.00015,17.00425,-0.2714,0.73767
619.856,67.0602,17.0043,-0.26757,0.73713
620.456,67.12008,16.9672,-0.26808,0.73658
621.056,67.17995,16.9356,-0.26761,0.73604
621.656,67.2398,16.9356,-0.26675,0.73549
622.256,67.2997,16.9356,-0.26352,0.73495
622.856,67.35972,16.9027,-0.26307,0.7344
623.456,67.41978,16.90251,-0.26075,0.73386
624.056,67.4799,16.90251,-0.2598,0.73332
624.656,67.54026,16.87562,-0.26127,0.73277
625.256,67.6006,16.8701,-0.25882,0.73223
625.856,67.66111,16.83659,-0.26077,0.73168
626.456,67.72136,16.8689,-0.25577,0.73114
627.056,67.78177,16.86944,-0.25615,0.73059
627.656,67.84225,16.81512,-0.25487,0.73004
628.256,67.90279,16.798,-0.25483,0.7295
628.856,67.9632,16.7981,-0.25312,0.72895
629.456,68.02374,16.7655,-0.25466,0.72841
630.056,68.08413,16.76512,-0.25027,0.72786
630.656,68.14474,16.7319,-0.25393,0.72732
631.256,68.20538,16.73208,-0.24962,0.72677
631.856,68.26611,16.73807,-0.24881,0.72622
632.456,68.32685,16.74036,-0.24972,0.72568
633.056,68.38744,16.70753,-0.24862,0.72513
633.656,68.4477,16.70727,-0.24964,0.72459
634.256,68.50809,16.70727,-0.24856,0.72404
634.856,68.5684,16.70723,-0.25104,0.72349
635.456,68.62899,16.74034,-0.24601,0.72295
636.056,68.6896,16.70727,-0.24781,0.7224
636.656,68.75018,16.7073,-0.24585,0.72185
637.256,68.81064,16.6742,-0.24528,0.72131
637.856,68.87097,16.67749,-0.24762,0.72076
638.456,68.93101,16.7104,-0.24713,0.72021
639.056,68.99138,16.70726,-0.24577,0.71966
639.656,69.0518,16.70795,-0.24728,0.71912
640.256,69.11228,16.67428,-0.24677,0.71857
640.856,69.17285,16.64946,-0.24381,0.71802
641.456,69.23334,16.61526,-0.24316,0.71748
642.056,69.29381,16.63879,-0.24146,0.71693
642.656,69.35424,16.64961,-0.24333,0.71638
643.256,69.41456,16.6496,-0.24288,0.71583
643.856,69.47501,16.64965,-0.24203,0.71529
644.456,69.53556,16.68338,-0.24208,0.71474
645.056,69.5962,16.68246,-0.24082,0.71419
645.656,69.6567,16.68244,-0.24307,0.71364
646.256,69.71715,16.67428,-0.23991,0.71309
646.856,69.77757,16.67419,-0.23896,0.71255
647.456,69.83776,16.64694,-0.2411,0.712
648.056,69.898,16.66316,-0.23754,0.71145
648.656,69.95819,16.66316,-0.24153,0.7109
649.256,70.01844,16.66249,-0.24032,0.71035
649.856,70.07882,16.6797,-0.23946,0.70981
650.456,70.13906,16.71262,-0.23646,0.70926
651.056,70.19938,16.71283,-0.24044,0.70871
651.656,70.25964,16.6797,-0.23757,0.70816
652.256,70.31996,16.71252,-0.23347,0.70761
652.856,70.38015,16.68001,-0.23683,0.70706
653.456,70.44032,16.6797,-0.23543,0.70651
654.056,70.50055,16.67973,-0.23583,0.70597
654.656,70.5608,16.6797,-0.23665,0.70542
655.256,70.62111,16.67705,-0.23699,0.70487
655.856,70.6816,16.66316,-0.23308,0.70432
656.456,70.74202,16.6616,-0.23201,0.70377
657.056,70.80241,16.64661,-0.23196,0.70322
657.656,70.86275,16.64689,-0.23111,0.70267
658.256,70.92324,16.71419,-0.2343,0.70212
658.856,70.98347,16.71485,-0.22939,0.70157
659.456,71.04381,16.6797,-0.23334,0.70103
660.056,71.10413,16.67967,-0.23349,0.70048
660.656,71.1645,16.65456,-0.23336,0.69993
661.256,71.22498,16.64688,-0.2314,0.69938
661.856,71.2853,16.64676,-0.23145,0.69883
662.456,71.34571,16.67154,-0.23197,0.69828
663.056,71.40604,16.67999,-0.2332,0.69773
663.656,71.4662,16.67996,-0.2386,0.69718
664.256,71.52672,16.6358,-0.23854,0.69663
664.856,71.58711,16.6138,-0.23942,0.69608
665.456,71.6477,16.6393,-0.23734,0.69553
666.056,71.70828,16.6634,-0.23629,0.69498
666.656,71.76875,16.6303,-0.23481,0.69443
667.256,71.82935,16.60547,-0.23666,0.69388
667.856,71.8896,16.6053,-0.23352,0.69333
668.456,71.95021,16.6388,-0.2314,0.69278
669.056,72.01101,16.56387,-0.23255,0.69223
669.656,72.07181,16.56416,-0.23056,0.69168
670.256,72.13229,16.56416,-0.23119,0.69113
670.856,72.19281,16.56416,-0.23261,0.69058
671.456,72.2534,16.54504,-0.22868,0.69003
672.056,72.3139,16.53133,-0.23043,0.68948
672.656,72.37446,16.53133,-0.22882,0.68893
673.256,72.43476,16.53133,-0.23102,0.68838
673.856,72.49544,16.53133,-0.22592,0.68783
674.456,72.55592,16.53132,-0.22689,0.68728
675.056,72.61644,16.5614,-0.23174,0.68673
675.656,72.6771,16.55217,-0.23112,0.68618
676.256,72.7376,16.53133,-0.23025,0.68563
676.856,72.7983,16.53133,-0.22935,0.68508
677.456,72.8587,16.53086,-0.23135,0.68453
678.056,72.91909,16.53133,-0.2365,0.68398
678.656,72.9796,16.48101,-0.23774,0.68343
679.256,73.04029,16.4654,-0.23527,0.68288
679.856,73.10093,16.4654,-0.23485,0.68233
680.456,73.1616,16.4654,-0.23252,0.68178
681.056,73.2222,16.4654,-0.24369,0.68123
681.656,73.2827,16.42989,-0.24872,0.68068
682.256,73.34313,16.46294,-0.2534,0.68013
682.856,73.4036,16.4654,-0.25406,0.67958
683.456,73.4641,16.4654,-0.25423,0.67903
684.056,73.5247,16.4654,-0.25556,0.67848
684.656,73.58511,16.43342,-0.2533,0.67793
685.256,73.64549,16.4126,-0.25361,0.67737
685.856,73.70589,16.40752,-0.25065,0.67682
686.456,73.76629,16.40735,-0.25012,0.67627
687.056,73.8269,16.4406,-0.24822,0.67572
687.656,73.8873,16.4406,-0.24927,0.67517
688.256,73.94789,16.44061,-0.25148,0.67462
688.856,74.00865,16.4082,-0.25147,0.67407
689.456,74.06954,16.39045,-0.24935,0.67352
690.056,74.13037,16.37429,-0.25108,0.67297
690.656,74.19134,16.39124,-0.25121,0.67242
691.256,74.25189,16.3619,-0.25121,0.67187
691.856,74.3124,16.33543,-0.25023,0.67132
692.456,74.37311,16.35716,-0.24659,0.67077
693.056,74.43385,16.3558,-0.2497,0.67022
693.656,74.49454,16.3569,-0.25045,0.66967
694.256,74.5553,16.39228,-0.25089,0.66912
694.856,74.6159,16.35811,-0.25169,0.66856
695.456,74.6765,16.33372,-0.25311,0.66801
696.056,74.7372,16.33333,-0.25028,0.66746
696.656,74.79791,16.33243,-0.25543,0.66691
697.256,74.85861,16.35814,-0.25515,0.66636
697.856,74.91929,16.35814,-0.25383,0.66581
698.456,74.9799,16.3242,-0.24508,0.66526
698.556,74.99008,16.32536,-0.24288,0.66517