File: 02_Data/Polyester_Batting/Cone/Polyester_Batting_Cone_HF75Scan_210325_R1.csv
Names,Time,Stack TC,Smoke TC,Exh Press,Smoke Comp,Smoke Meas,CO Meter,CO2 Meter,O2 Meter,Sample Mass,Ext Coeff,Start Test,Flame Verif
Chan Gain,,500,500,1,1,1,1,1,1,1,1,1.0,1.0
Offset,,0,0,0.138348,0,0,0,0,0,0,0,0.0,0.0
Gain,,1,1,25.011,13.5067,16.616,1,1,1,1.00091,1.04608,1.0,1.0
Units,sec,C,C,Pa,%,%,%,%,%,g,/m,,
Baseline,,40.4277,43.8252,157.739,102.255,99.8053,-0.000853605,0.0833478,20.8606,-1.7654,0.222541,,
2,0.25,36.5654,38.8462,160.085,102.249,99.462,-0.000671623,0.0922785,20.8526,474.972,0.253581,0.0,0.0
4,0.75,36.1096,38.2609,160.836,102.233,99.8063,-0.000672806,0.0922715,20.8529,475.052,0.220391,0.0,0.0
6,1.25,36.2756,38.3831,153.081,102.244,99.9128,-0.000679533,0.0922666,20.8532,475.092,0.211679,0.0,0.0
8,1.75,35.7766,38.3085,159.894,102.24,99.5381,-0.000676007,0.0922626,20.854,475.082,0.245752,0.0,0.0
10,2.25,35.9636,38.691,159.04,102.257,100.031,-0.000665075,0.0922594,20.8546,475.082,0.201935,0.0,0.0
12,2.75,35.947,38.2107,157.87,102.23,99.8226,-0.000647246,0.0921615,20.8551,475.042,0.218715,0.0,0.0
14,3.25,36.1015,38.8,159.076,102.244,99.7937,-0.000624728,0.0920822,20.8556,475.002,0.222593,0.0,0.0
16,3.75,36.7864,38.872,157.538,102.234,99.7151,-0.000589438,0.092018,20.8559,474.992,0.228898,0.0,0.0
18,4.25,35.9351,39.0092,155.695,102.243,100.107,-0.000560854,0.0918656,20.8566,474.992,0.193758,0.0,0.0
20,4.75,36.3831,39.0989,153.853,102.243,99.7404,-0.00053129,0.091652,20.8572,475.002,0.227379,0.0,0.0
22,5.25,36.1974,39.2827,159.268,102.252,99.5822,-0.000501574,0.0914145,20.8577,475.012,0.24276,0.0,0.0
24,5.75,36.6486,39.2741,156.086,102.243,99.5832,-0.000477504,0.0911641,20.8581,475.032,0.241853,0.0,0.0
26,6.25,36.51,39.7931,155.151,102.243,99.6476,-0.000445829,0.0908968,20.8584,475.002,0.235921,0.0,0.0
28,6.75,37.0646,39.7816,156.412,102.237,99.7039,-0.000420172,0.0906224,20.8586,474.982,0.230258,0.0,0.0
30,7.25,36.9894,39.62,156.729,102.25,99.8631,-0.000390416,0.0903571,20.8588,474.952,0.216763,0.0,0.0
32,7.75,37.2587,40.2321,160.659,102.26,99.7673,-0.000358237,0.0901036,20.859,474.952,0.22646,0.0,0.0
34,8.25,37.1055,40.224,159.351,102.233,99.6481,-0.000332172,0.0898983,20.8591,474.942,0.235023,0.0,0.0
36,8.75,37.1519,39.8494,156.26,102.244,99.6466,-0.000298877,0.0896232,20.8592,474.952,0.236088,0.0,0.0
38,9.25,37.3766,40.2438,155.396,102.244,99.4641,-0.000271908,0.0894004,20.8593,474.982,0.252914,0.0,0.0
40,9.75,37.5758,39.7452,155.965,102.242,99.0995,-0.000250063,0.0891555,20.8594,474.922,0.2865,0.0,0.0
42,10.25,37.0149,40.4935,156.407,102.246,99.282,-0.000215318,0.0888992,20.8597,474.872,0.269945,0.0,0.0
44,10.75,36.7634,40.4564,157.868,102.238,99.0665,-0.000187175,0.0886916,20.86,474.872,0.289182,0.0,0.0
46,11.25,37.3589,40.6694,154.132,102.242,98.8789,-0.000137583,0.0883868,20.86,474.892,0.306873,0.0,0.0
48,11.75,37.7141,40.6849,155.591,102.24,98.6857,-9.74138e-05,0.08814,20.8598,474.922,0.324672,0.0,0.0
50,12.25,37.5803,40.7395,156.802,102.246,98.3703,-1.85501e-05,0.0878971,20.8596,474.942,0.354564,0.0,0.0
52,12.75,37.7896,41.1094,159.563,102.249,98.275,4.53295e-05,0.0876618,20.8594,474.952,0.363756,0.0,0.0
54,13.25,37.3215,40.7755,152.262,102.248,97.1533,0.000170341,0.0874711,20.8591,474.952,0.46898,0.0,0.0
56,13.75,37.9069,40.6788,158.385,102.234,96.7203,0.0002716,0.0873303,20.8586,474.932,0.508751,0.0,0.0
58,14.25,37.4985,41.046,161.548,102.243,97.2993,0.000438732,0.0872163,20.8582,474.882,0.45479,0.0,0.0
60,14.75,38.1345,40.9939,151.501,102.25,95.6229,0.00065071,0.0874908,20.8561,474.852,0.614895,0.0,0.0
62,15.25,37.4547,41.384,160.518,102.238,95.4358,0.00090336,0.0877131,20.8544,475.082,0.631795,0.0,0.0
64,15.75,38.0243,41.3942,153.14,102.244,95.5438,0.00118086,0.0896371,20.846,474.622,0.621934,0.0,1.0
66,16.25,38.5343,41.7654,152.335,102.242,93.7498,0.00140563,0.0911955,20.8392,474.552,0.795688,0.0,1.0
68,16.75,38.2522,41.9628,154.991,102.255,91.261,0.00176196,0.0949596,20.8274,474.482,1.04372,0.0,1.0
70,17.25,38.7594,42.5846,147.353,102.247,87.8824,0.00205058,0.10026,20.8121,474.372,1.38919,0.0,1.0
72,17.75,38.6371,43.3772,148.702,102.261,89.004,0.00245323,0.104553,20.7908,474.632,1.27407,0.0,1.0
74,18.25,39.4385,43.7153,145.807,102.263,86.0904,0.00277937,0.115366,20.7653,474.522,1.57964,0.0,1.0
76,18.75,39.8989,44.5133,145.524,102.261,85.6604,0.00331832,0.124124,20.7379,474.212,1.6254,0.0,1.0
78,19.25,39.717,44.982,144.516,102.248,84.1401,0.00375486,0.13849,20.7097,474.202,1.7886,0.0,1.0
80,19.75,39.7017,44.2924,146.236,102.266,82.52,0.0043187,0.150126,20.6868,474.182,1.96864,0.0,1.0
82,20.25,39.0803,44.0971,143.535,102.253,78.3549,0.00496461,0.166822,20.6625,474.072,2.44267,0.0,1.0
84,20.75,39.5233,45.3354,144.485,102.262,76.8509,0.00548781,0.180345,20.6375,474.021,2.62133,0.0,0.0
86,21.25,40.1352,46.0232,148.582,102.254,75.6476,0.00591159,0.199273,20.6173,473.941,2.76544,0.0,0.0
88,21.75,40.1546,46.7041,149.703,102.274,73.4205,0.00711544,0.214605,20.5947,473.841,3.04142,0.0,0.0
90,22.25,40.9724,47.4791,143.954,102.275,71.4992,0.00809056,0.232996,20.5707,473.781,3.28486,0.0,0.0
92,22.75,41.4062,48.5105,144.117,102.274,66.5267,0.0096714,0.253267,20.5415,473.721,3.94618,0.0,0.0
94,23.25,42.2339,49.6255,142.267,102.266,64.2033,0.0109519,0.269686,20.5091,473.591,4.27172,0.0,0.0
96,23.75,42.5296,50.6648,140.026,102.267,59.1406,0.0127055,0.291694,20.4829,473.501,5.02549,0.0,0.0
98,24.25,43.4578,51.6362,131.809,102.265,59.9758,0.0141259,0.317359,20.4474,473.401,4.89666,0.0,0.0
100,24.75,44.2919,52.8554,137.578,102.272,58.1899,0.0152765,0.338147,20.406,473.261,5.17469,0.0,0.0
102,25.25,44.8593,54.2853,135.031,102.275,58.8384,0.0172184,0.372409,20.3598,473.161,5.0732,0.0,0.0
104,25.75,45.8435,55.6422,137.212,102.273,58.5144,0.0187914,0.400161,20.3111,472.951,5.12373,0.0,0.0
106,26.25,46.4943,56.8313,129.972,102.26,52.222,0.0205288,0.435559,20.2638,472.92,6.16645,0.0,0.0
108,26.75,47.2511,58.2696,129.254,102.272,51.86,0.0219362,0.46423,20.2184,472.77,6.23144,0.0,0.0
110,27.25,48.1448,59.8665,140.314,102.252,56.9795,0.0233705,0.487454,20.1769,472.7,5.36572,0.0,0.0
112,27.75,48.9791,60.2482,134.366,102.279,56.1803,0.0245322,0.514852,20.1391,472.51,5.49773,0.0,0.0
114,28.25,49.5879,61.6531,132.165,102.258,53.0719,0.0254733,0.544773,20.1085,472.4,6.01814,0.0,0.0
116,28.75,50.2575,62.5448,132.029,102.279,53.3792,0.0264488,0.573716,20.08,472.29,5.96708,0.0,0.0
118,29.25,50.6953,63.8145,137.693,102.261,56.6752,0.027239,0.601398,20.0536,472.14,5.41566,0.0,0.0
120,29.75,51.3204,64.3605,138.774,102.276,53.7504,0.0280143,0.627531,20.0299,472.05,5.9032,0.0,0.0
122,30.25,51.6727,65.8746,125.336,102.262,55.9496,0.0286423,0.652039,20.0086,471.96,5.53398,0.0,0.0
124,30.75,52.6948,66.5499,141.479,102.282,57.2406,0.0292799,0.67189,19.9913,471.82,5.3265,0.0,0.0
126,31.25,53.3154,67.4196,134.096,102.264,54.7366,0.0299122,0.695434,19.9725,471.719,5.73532,0.0,0.0
128,31.75,53.768,68.389,130.562,102.277,52.3199,0.0305623,0.714504,19.9572,471.589,6.15083,0.0,0.0
130,32.25,54.3203,68.7915,136.269,102.273,53.3959,0.0309047,0.734752,19.9449,471.489,5.96365,0.0,0.0
132,32.75,54.8477,69.8765,142.489,102.289,54.5531,0.0314902,0.755474,19.9238,471.349,5.76833,0.0,0.0
134,33.25,55.4526,70.8025,130.015,102.255,57.0094,0.0321762,0.776659,19.8995,471.179,5.3612,0.0,0.0
136,33.75,55.8702,71.8603,131.498,102.284,51.86,0.0327319,0.79778,19.8734,471.109,6.23244,0.0,0.0
138,34.25,56.668,72.9503,132.494,102.279,56.1737,0.0332351,0.819757,19.851,470.909,5.49881,0.0,0.0
140,34.75,57.2824,74.009,129.105,102.293,55.622,0.0336427,0.841942,19.8319,470.819,5.59063,0.0,0.0
142,35.25,58.0497,74.8828,126.416,102.271,55.479,0.0339728,0.8514,19.8164,470.658,5.6123,0.0,0.0
144,35.75,58.7169,75.5562,126.513,102.288,53.5815,0.0339083,0.871071,19.8038,470.568,5.93315,0.0,0.0
146,36.25,58.5407,76.026,134.258,102.27,56.0191,0.0338561,0.890153,19.7937,470.378,5.52333,0.0,0.0
148,36.75,59.9318,77.3607,136.801,102.277,57.4576,0.0333347,0.907035,19.7854,470.368,5.29129,0.0,0.0
150,37.25,60.3021,77.8794,140.344,102.271,61.8621,0.0329123,0.92199,19.7788,470.298,4.61302,0.0,0.0
152,37.75,60.4778,77.8361,140.579,102.287,64.7286,0.0319445,0.934104,19.7794,470.158,4.19883,0.0,0.0
154,38.25,60.9824,78.6047,137.256,102.266,65.3245,0.0311606,0.942055,19.7854,470.098,4.11286,0.0,0.0
156,38.75,60.6464,78.6465,138.478,102.289,68.7954,0.0299171,0.948496,19.7997,470.008,3.63988,0.0,0.0
158,39.25,60.1158,78.0604,144.591,102.288,69.1347,0.0289098,0.947975,19.8199,469.968,3.59463,0.0,0.0
160,39.75,60.6982,78.6557,140.151,102.288,68.3396,0.0277284,0.947553,19.8363,469.858,3.70074,0.0,0.0
162,40.25,61.2093,78.6022,138.693,102.269,69.6914,0.0264425,0.940562,19.8637,469.808,3.51929,0.0,0.0
164,40.75,60.8004,78.6313,144.078,102.294,72.3171,0.02514,0.934899,19.8859,469.738,3.18222,0.0,0.0
166,41.25,61.2124,78.9322,139.364,102.272,72.5798,0.0238501,0.926126,19.9113,469.688,3.14692,0.0,0.0
168,41.75,60.9901,78.7472,142.825,102.285,73.998,0.0228053,0.915252,19.9386,469.628,2.97056,0.0,0.0
170,42.25,60.9125,78.5789,150.635,102.289,73.1898,0.0216161,0.901622,19.9606,469.547,3.07167,0.0,0.0
172,42.75,60.973,79.0102,143.588,102.297,74.604,0.0203442,0.886242,19.9909,469.507,2.89676,0.0,0.0
174,43.25,60.4715,77.4763,138.555,102.292,74.40625,0.0191449,0.873783,20.0154,469.477,2.92067,0.0,0.0
176,43.75,61.1123,78.0097,144.203,102.283,77.4959,0.0180213,0.852861,20.0507,469.407,2.54653,0.0,0.0
178,44.25,60.3177,77.1397,146.465,102.284,78.6104,0.0171112,0.835914,20.0793,469.347,2.4156,0.0,0.0
180,44.75,59.9889,77.4192,146.748,102.298,78.94,0.0160656,0.815947,20.1167,469.287,2.37847,0.0,0.0
182,45.25,60.0533,76.6298,142.492,102.29,80.4309,0.0152187,0.794157,20.1469,469.247,2.20609,0.0,0.0
184,45.75,60.4468,76.5998,143.916,102.287,81.661,0.0142869,0.776507,20.1795,469.227,2.06647,0.0,0.0
186,46.25,60.1764,76.1747,142.252,102.287,82.2092,0.0135322,0.751546,20.2132,469.157,2.00515,0.0,0.0
188,46.75,59.8734,76.0398,146.514,102.289,84.7948,0.0126638,0.731327,20.2406,469.137,1.72115,0.0,0.0
190,47.25,60.1364,75.8445,150.024,102.296,86.4793,0.0119605,0.705912,20.269,469.137,1.54123,0.0,0.0
192,47.75,59.8208,75.2719,146.604,102.298,85.8982,0.0113908,0.685326,20.2976,469.157,1.60329,0.0,0.0
194,48.25,59.1933,74.585,148.034,102.295,88.4239,0.0106032,0.660065,20.3263,469.117,1.3371,0.0,0.0
196,48.75,58.9176,74.1945,149.274,102.297,89.7642,0.00996521,0.639604,20.3544,469.087,1.19929,0.0,0.0
198,49.25,59.0772,73.745,151.108,102.312,91.5957,0.00932116,0.614071,20.3772,469.077,1.01531,0.0,0.0
200,49.75,58.4949,73.4421,148.4,102.301,93.1666,0.00868492,0.593389,20.4049,469.077,0.858234,0.0,0.0
202,50.25,58.4283,72.0632,148.557,102.294,94.1544,0.00816956,0.576637,20.4274,469.047,0.760864,0.0,0.0
204,50.75,58.1013,71.9046,153.034,102.292,94.8527,0.00759297,0.551264,20.4456,469.067,0.692843,0.0,0.0
206,51.25,57.4534,71.6037,151.84,102.303,96.2385,0.00712594,0.530712,20.4705,469.047,0.560707,0.0,0.0
208,51.75,57.4555,71.078,153.626,102.298,97.3678,0.00671016,0.509821,20.4907,469.027,0.453219,0.0,0.0
210,52.25,56.9971,70.494,154.905,102.296,98.0615,0.00633965,0.489081,20.5171,469.047,0.387891,0.0,0.0
212,52.75,57.1592,69.9164,152.789,102.298,98.887,0.00603954,0.472282,20.5386,469.037,0.311224,0.0,0.0
214,53.25,56.1534,69.6718,159.467,102.304,99.102,0.00578147,0.450168,20.5635,469.057,0.291776,0.0,0.0
216,53.75,56.0186,68.5972,154.303,102.297,99.6233,0.00557244,0.432255,20.5837,469.047,0.243044,0.0,0.0
218,54.25,55.241,67.9246,154.622,102.303,99.8763,0.00540686,0.413905,20.6032,469.037,0.220285,0.0,0.0
220,54.75,55.5722,67.3091,150.754,102.298,99.8783,0.00527275,0.395583,20.622,469.057,0.219692,0.0,0.0
222,55.25,54.8362,66.9682,152.837,102.311,100.11,0.00517909,0.380743,20.6393,469.027,0.199572,0.0,0.0
224,55.75,54.8319,66.2446,154.108,102.314,100.124,0.00510323,0.36323,20.6553,469.027,0.19853,0.0,0.0
226,56.25,54.0344,65.0061,158.203,102.306,99.819,0.00504506,0.349044,20.6681,469.017,0.225846,0.0,0.0
228,56.75,54.0817,65.4278,152.902,102.298,100.08,0.00500091,0.333071,20.6812,469.057,0.201216,0.0,0.0
230,57.25,54.5377,64.3703,152.887,102.285,100.402,0.00496645,0.320133,20.6918,469.067,0.17051,0.0,0.0
232,57.75,53.4778,64.1731,153.155,102.305,99.8165,0.00493973,0.305699,20.7018,469.067,0.225932,0.0,0.0
234,58.25,52.6904,62.8532,153.238,102.319,100.049,0.00491808,0.294009,20.7111,469.067,0.205864,0.0,0.0
236,58.75,52.5412,62.7736,155.063,102.294,100.005,0.00492553,0.282518,20.7196,469.037,0.207682,0.0,0.0
238,59.25,52.1529,62.1227,154.047,102.314,99.8606,0.00493156,0.27139,20.7274,469.057,0.22269,0.0,0.0
240,59.75,52.1266,61.6849,152.891,102.302,99.9864,0.00498395,0.262377,20.7348,469.037,0.210069,0.0,0.0
242,60.25,51.4194,60.4489,150.25,102.309,100.545,0.00502639,0.251924,20.7418,469.037,0.159595,0.0,0.0
244,60.75,50.8246,61.0362,153.745,102.305,100.059,0.0051196,0.243456,20.7475,469.027,0.203704,0.0,0.0
246,61.25,50.8167,60.0285,147.758,102.305,100.337,0.00519511,0.234239,20.7535,469.027,0.178265,0.0,0.0
248,61.75,50.1933,60.0349,151.868,102.298,100.438,0.00528662,0.226774,20.7583,469.027,0.168367,0.0,0.0
250,62.25,50.3027,59.4449,156.376,102.309,100.368,0.00538807,0.218658,20.7627,468.997,0.175759,0.0,0.0
252,62.75,50.3449,59.4369,153.636,102.309,100.297,0.00547024,0.212085,20.7666,469.007,0.182215,0.0,0.0
254,63.25,50.2705,58.8479,154,102.335,99.9037,0.00556059,0.205934,20.7698,468.987,0.220653,0.0,0.0
256,63.75,49.8528,58.8987,150.495,102.301,100.164,0.00565518,0.200207,20.7733,468.997,0.193713,0.0,0.0
258,64.25,49.7586,58.2752,154.674,102.296,100.084,0.0057318,0.194672,20.7761,468.977,0.200612,0.0,0.0
260,64.75,49.2782,57.6617,154.735,102.31,100.182,0.00578884,0.18938,20.7789,468.977,0.192827,0.0,0.0
262,65.25,49.5758,57.0907,149.95,102.31,100.035,0.00583504,0.185094,20.7815,468.987,0.206389,0.0,0.0
264,65.75,49.4242,56.8675,157.062,102.309,100.197,0.00583228,0.180782,20.7839,468.987,0.191443,0.0,0.0
266,66.25,48.8666,57.3332,156.786,102.306,100.421,0.00583005,0.176533,20.786,468.977,0.170644,0.0,0.0
268,66.75,49.1251,56.6684,155.03,102.299,100.162,0.00579062,0.173091,20.7882,468.977,0.193677,0.0,0.0
270,67.25,48.2966,56.025,154.368,102.321,100.013,0.00575869,0.169022,20.7904,468.967,0.209387,0.0,0.0
272,67.75,48.5716,56.3429,154.191,102.297,100.065,0.00571831,0.165727,20.7922,468.937,0.202407,0.0,0.0
274,68.25,48.7533,55.0205,147.36,102.313,100.215,0.00567254,0.162132,20.7941,468.927,0.19015,0.0,0.0
276,68.75,48.1468,55.5575,152.287,102.299,100.371,0.00562822,0.15922,20.7956,468.937,0.174595,0.0,0.0
278,69.25,47.5063,55.2267,155.013,102.296,100.275,0.00558579,0.156412,20.7968,468.937,0.183112,0.0,0.0
280,69.75,47.8607,55.0546,157.013,102.298,100.054,0.00555142,0.153733,20.7978,468.947,0.203466,0.0,0.0
282,70.25,48.1661,54.6067,157.066,102.314,100.222,0.00552425,0.151218,20.7986,468.967,0.189611,0.0,0.0
284,70.75,47.6145,54.3392,151.798,102.302,100.479,0.00550283,0.14887,20.7993,468.977,0.164994,0.0,0.0
286,71.25,47.2591,54.0016,159.169,102.315,100.365,0.00548548,0.146646,20.8007,468.957,0.176557,0.0,0.0
288,71.75,47.1463,54.41,155.677,102.305,100.365,0.00547142,0.144554,20.8019,468.957,0.175668,0.0,0.0
290,72.25,47.5355,53.7501,155.894,102.326,100.072,0.00546881,0.142859,20.8031,468.967,0.204398,0.0,0.0
292,72.75,47.1622,53.6174,150.908,102.308,100.159,0.00546669,0.140888,20.8043,468.997,0.194806,0.0,0.0
294,73.25,47.0886,53.5809,153.146,102.315,100.842,0.00546959,0.139292,20.8052,468.987,0.133033,0.0,0.0
296,73.75,46.6167,53.3604,154.222,102.303,100.24,0.00547609,0.137999,20.806,468.987,0.186978,0.0,0.0
298,74.25,46.7878,52.8505,150.486,102.321,100.266,0.00548413,0.136506,20.8063,468.997,0.186118,0.0,0.0
300,74.75,46.7539,53.0441,156.726,102.311,100.327,0.00549789,0.134896,20.8078,468.977,0.179747,0.0,0.0
302,75.25,46.6788,52.8557,153.897,102.318,100.158,0.00551366,0.133591,20.809,468.977,0.195795,0.0,0.0
304,75.75,46.9575,52.3138,155.423,102.305,100.201,0.00553058,0.132091,20.8099,468.957,0.190701,0.0,0.0
306,76.25,46.3186,52.305,153.036,102.318,100.355,0.00554957,0.130876,20.8107,468.967,0.177742,0.0,0.0
308,76.75,46.509,52.2746,154.155,102.305,100.357,0.0055697,0.129681,20.8118,468.957,0.176457,0.0,0.0
310,77.25,46.0551,52.239,152.127,102.316,100.456,0.005586,0.129072,20.8126,468.967,0.168288,0.0,0.0
312,77.75,46.4578,51.8617,154.809,102.312,100.48,0.00561301,0.127869,20.8136,468.977,0.165825,0.0,0.0
314,78.25,46.1582,51.8011,154.534,102.314,100.372,0.00563488,0.126751,20.8145,468.977,0.175879,0.0,0.0
316,78.75,46.0592,51.8369,154.42,102.299,100.148,0.00565853,0.125714,20.8153,468.987,0.195024,0.0,0.0
318,79.25,45.6634,51.5609,154.985,102.314,100.387,0.00568304,0.124757,20.816,468.967,0.174489,0.0,0.0
320,79.75,45.1598,51.1717,158.891,102.305,100.102,0.00570157,0.123981,20.8165,468.937,0.199678,0.0,0.0
322,80.25,45.1778,51.1703,155.195,102.299,99.9321,0.0057154,0.123036,20.8173,468.917,0.214792,0.0,0.0
324,80.75,45.3827,50.6488,155.729,102.306,99.9433,0.00571867,0.12227,20.818,468.917,0.214433,0.0,0.0
326,81.25,45.1976,50.2867,154.201,102.318,100.239,0.0057142,0.121489,20.8186,468.897,0.188319,0.0,0.0
328,81.75,45.4133,50.6214,156.319,102.301,100.137,0.00569737,0.120714,20.819,468.907,0.196175,0.0,0.0
330,82.25,45.2997,50.1108,156.403,102.316,100.049,0.00567187,0.119998,20.8194,468.917,0.205559,0.0,0.0
332,82.75,44.7959,50.1825,152.266,102.31,100.055,0.00564132,0.119341,20.8197,468.917,0.204445,0.0,0.0
334,83.25,45.1787,50.1939,154.455,102.317,99.9788,0.00560768,0.11875,20.82,468.917,0.212172,0.0,0.0
336,83.75,44.8082,49.8336,155.529,102.309,100.218,0.00558043,0.118219,20.8202,468.907,0.189502,0.0,0.0
338,84.25,44.4963,49.9831,155.03,102.318,100.285,0.00555835,0.117702,20.8203,468.917,0.184188,0.0,0.0
340,84.75,44.8705,49.6845,155.186,102.307,100.288,0.00555676,0.117205,20.8209,468.917,0.182902,0.0,0.0
342,85.25,44.8182,49.0007,153.822,102.308,100.45,0.00555547,0.116803,20.8213,468.897,0.168151,0.0,0.0
344,85.75,44.5134,49.5461,154.093,102.308,100.036,0.00558075,0.116284,20.8217,468.847,0.206065,0.0,0.0
346,86.25,44.0884,49.9527,153.829,102.322,100.121,0.00560122,0.115864,20.822,468.877,0.199557,0.0,0.0
348,86.75,45.098,49.4364,159.255,102.307,100.323,0.00563787,0.115436,20.8223,468.857,0.179712,0.0,0.0
350,87.25,44.4946,49.3318,159.834,102.311,100.405,0.00567021,0.115012,20.8224,468.877,0.172608,0.0,0.0
352,87.75,44.3821,49.3174,152.043,102.301,100.222,0.00568524,0.114668,20.8225,468.887,0.188428,0.0,0.0
354,88.25,44.8816,49.4412,157.802,102.31,100.11,0.00571095,0.114266,20.8227,468.877,0.199424,0.0,0.0
356,88.75,44.2576,49.4481,154.333,102.309,100.082,0.00570794,0.11394,20.823,468.877,0.201907,0.0,0.0
358,89.25,44.0807,49.0277,161.554,102.324,100.449,0.0057055,0.113608,20.8235,468.897,0.169722,0.0,0.0
360,89.75,44.2623,48.7145,154.755,102.31,100.183,0.00566467,0.113338,20.8239,468.877,0.192817,0.0,0.0
362,90.25,43.8334,48.5133,154.924,102.312,99.9711,0.0056316,0.113173,20.8243,468.867,0.21239,0.0,0.0
364,90.75,43.9018,48.632,157.143,102.31,100.059,0.00560481,0.11289,20.8245,468.867,0.204073,0.0,0.0
366,91.25,43.9148,49.022,153.281,102.306,100.178,0.00552929,0.112639,20.8247,468.887,0.192911,0.0,0.0
368,91.75,43.7327,48.5816,153.795,102.321,100.401,0.0054635,0.112416,20.8249,468.907,0.173782,0.0,0.0
370,92.25,44.1306,48.5951,155.866,102.311,100.367,0.00540607,0.112199,20.825,468.877,0.176047,0.0,0.0
372,92.75,43.4904,47.8206,154.59,102.311,100.415,0.00535955,0.111991,20.8252,468.877,0.171635,0.0,0.0
374,93.25,43.8044,48.4698,152.339,102.309,99.9549,0.00534816,0.111779,20.8252,468.877,0.213584,0.0,0.0
376,93.75,43.3472,47.952,155.943,102.31,100.296,0.00533893,0.111569,20.8253,468.867,0.182419,0.0,0.0
378,94.25,44.1035,48.309,154.619,102.315,100.128,0.00533145,0.111398,20.8254,468.887,0.198242,0.0,0.0
380,94.75,43.8322,48.0873,157.512,102.321,100.338,0.00534583,0.111246,20.8254,468.857,0.179614,0.0,0.0
382,95.25,43.6264,47.5178,155.415,102.311,100.191,0.00537586,0.111123,20.8258,468.847,0.192147,0.0,0.0
384,95.75,43.3139,47.5604,156.69,102.321,100.455,0.00540612,0.111009,20.8261,468.827,0.168862,0.0,0.0
386,96.25,43.638,48.0285,150.946,102.31,100.329,0.00543597,0.110918,20.8263,468.817,0.179368,0.0,0.0
388,96.75,43.6276,47.5043,151.466,102.321,100.671,0.00546543,0.110843,20.8265,468.827,0.149115,0.0,0.0
390,97.25,43.4767,47.8278,155.903,102.319,100.16,0.00549404,0.110747,20.8267,468.847,0.195674,0.0,0.0
392,97.75,42.845,47.2085,154.851,102.324,100.026,0.00551722,0.110637,20.8268,468.827,0.208473,0.0,0.0
394,98.25,43.3146,47.4648,154.346,102.317,100.352,0.00554259,0.110527,20.8269,468.847,0.177936,0.0,0.0
396,98.75,43.2392,47.6592,154.292,102.32,100.418,0.00556908,0.110417,20.827,468.837,0.172133,0.0,0.0
398,99.25,43.4153,47.9399,154.999,102.317,100.138,0.00558723,0.1103,20.827,468.797,0.197534,0.0,0.0
400,99.75,43.1818,47.4893,155.905,102.337,99.9316,0.00559897,0.110179,20.8271,468.807,0.218239,0.0,0.0
402,100.25,43.3841,47.7592,152.495,102.31,100.198,0.0055999,0.110081,20.8271,468.817,0.191414,0.0,0.0
404,100.75,43.3776,47.2965,151.313,102.327,100.344,0.00559294,0.109974,20.8272,468.817,0.179576,0.0,0.0
406,101.25,43.0329,47.2877,155.023,102.314,100.066,0.00557608,0.109887,20.8272,468.837,0.203875,0.0,0.0
408,101.75,43.0736,47.4661,154.721,102.313,100.073,0.00555235,0.109781,20.8272,468.827,0.20316,0.0,0.0
410,102.25,42.8352,47.3411,155.56,102.312,100.378,0.00553312,0.109662,20.8272,468.857,0.175055,0.0,0.0
412,102.75,43.219,47.3295,155.135,102.325,100.055,0.00549626,0.10953,20.8272,468.867,0.20585,0.0,0.0
414,103.25,42.7949,46.883,151.427,102.315,100.275,0.0054664,0.109391,20.8273,468.857,0.184802,0.0,0.0
416,103.75,42.9718,47.289,154.643,102.325,99.7435,0.00542343,0.109278,20.8273,468.837,0.234494,0.0,0.0
418,104.25,43.7031,47.1691,154.816,102.311,100.05,0.00538862,0.109145,20.8273,468.837,0.205059,0.0,0.0
420,104.75,42.7479,46.9932,151.549,102.326,100.446,0.00536042,0.109037,20.8273,468.887,0.170222,0.0,0.0
422,105.25,42.644,47.2869,153.523,102.316,100.219,0.005331,0.108909,20.8273,468.887,0.189991,0.0,0.0
424,105.75,42.4993,47.2019,156.295,102.317,100.129,0.00530125,0.108805,20.8271,468.857,0.19836,0.0,0.0
426,106.25,43.1101,47.0298,154.3,102.31,100.111,0.00527649,0.108625,20.827,468.847,0.199368,0.0,0.0
428,106.75,42.6787,47.2814,155.94,102.324,99.8971,0.00525584,0.108479,20.8269,468.887,0.220223,0.0,0.0
430,107.25,43.272,46.462,152.259,102.32,99.997,0.00524043,0.108346,20.8268,468.897,0.210718,0.0,0.0
432,107.75,42.7265,46.7823,158.429,102.348,100.094,0.00522913,0.108225,20.8267,468.877,0.204386,0.0,0.0
434,108.25,43.2571,46.9243,155.669,102.315,100.001,0.00522657,0.108126,20.8267,468.837,0.209866,0.0,0.0
436,108.75,43.0407,46.5737,156.324,102.329,99.9549,0.00523041,0.108025,20.8266,468.817,0.215395,0.0,0.0
438,109.25,43.0162,46.748,153.494,102.319,99.998,0.00524011,0.107924,20.8266,468.837,0.210589,0.0,0.0
440,109.75,42.4971,46.6959,157.189,102.326,99.8094,0.0052539,0.107827,20.8266,468.837,0.228543,0.0,0.0
442,110.25,42.3165,47.0406,157.991,102.312,100.328,0.00526507,0.107736,20.8266,468.837,0.179645,0.0,0.0
444,110.75,42.4922,46.7414,157.055,102.334,100.126,0.00527411,0.107669,20.8265,468.867,0.200118,0.0,0.0
446,111.25,42.9596,46.6159,152.152,102.326,100.015,0.00528144,0.107622,20.8265,468.867,0.209562,0.0,0.0
448,111.75,42.7676,46.7166,157.27,102.329,99.9559,0.00528079,0.107554,20.8267,468.837,0.215302,0.0,0.0
450,112.25,42.89,46.4517,156.518,102.32,100.286,0.00527433,0.107474,20.8271,468.797,0.184234,0.0,0.0
452,112.75,42.6051,46.6034,156.071,102.331,100.094,0.00526647,0.107401,20.8274,468.797,0.202871,0.0,0.0
454,113.25,42.4938,46.5533,154.98,102.314,100.475,0.00525773,0.107336,20.8277,468.797,0.166437,0.0,0.0
456,113.75,42.0865,46.3979,153.393,102.325,100.385,0.00525065,0.107283,20.8279,468.777,0.175625,0.0,0.0
458,114.25,42.8038,46.3256,153.323,102.318,99.9656,0.00525618,0.10724,20.8281,468.777,0.213419,0.0,0.0
460,114.75,42.5752,46.8701,155.499,102.331,100.053,0.00526066,0.107206,20.8282,468.787,0.206591,0.0,0.0
462,115.25,42.2125,46.5649,151.466,102.319,100.052,0.00526362,0.107156,20.8283,468.837,0.205612,0.0,0.0
464,115.75,42.5183,46.7023,159.376,102.315,100.201,0.00526544,0.107096,20.8284,468.837,0.191543,0.0,0.0
466,116.25,42.5504,46.5267,158.215,102.302,100.202,0.00525044,0.107019,20.8285,468.827,0.190267,0.0,0.0
468,116.75,42.3858,46.41,155.22,102.317,100.402,0.00522349,0.10693,20.8285,468.827,0.17332,0.0,0.0
470,117.25,42.5009,46.4447,155.232,102.304,100.478,0.00520165,0.106859,20.8286,468.847,0.165309,0.0,0.0
472,117.75,42.8781,46.3656,155.738,102.318,100.029,0.00518397,0.106757,20.8286,468.807,0.20764,0.0,0.0
474,118.25,42.4436,46.9462,153.105,102.306,100.342,0.00510593,0.106636,20.8289,468.797,0.177829,0.0,0.0
476,118.75,42.3002,46.36,153.676,102.324,100.203,0.00504272,0.106531,20.8294,468.767,0.192133,0.0,0.0
478,119.25,41.9133,45.8411,153.687,102.306,100.077,0.00498889,0.106439,20.8298,468.777,0.20216,0.0,0.0
480,119.75,42.9889,46.4094,155.057,102.335,99.959,0.00494293,0.106365,20.8302,468.787,0.215577,0.0,0.0
482,120.25,42.6053,46.6333,151.24,102.306,100.326,0.00491884,0.106304,20.8304,468.797,0.179349,0.0,0.0
484,120.75,41.9063,47.0039,156.566,102.311,100.095,0.00491115,0.106228,20.8307,468.797,0.200929,0.0,0.0
486,121.25,42.1591,46.6052,153.485,102.319,100.009,0.00490492,0.106166,20.8308,468.837,0.209565,0.0,0.0
488,121.75,42.6702,46.3881,151.16,102.317,100.188,0.00492737,0.106088,20.831,468.837,0.192944,0.0,0.0
490,122.25,42.4104,46.568,157.602,102.311,100.184,0.00494554,0.105998,20.8311,468.817,0.192798,0.0,0.0
492,122.75,42.6704,46.2015,155.565,102.324,100.412,0.00497777,0.105925,20.8312,468.827,0.173142,0.0,0.0
494,123.25,42.4061,46.2093,150.595,102.324,100.231,0.00500387,0.105825,20.8313,468.787,0.189699,0.0,0.0
496,123.75,42.3308,46.5139,153.078,102.315,100.323,0.00502627,0.105744,20.8313,468.727,0.180367,0.0,0.0
498,124.25,42.5341,46.5698,149.056,102.306,100.311,0.00504441,0.105637,20.8314,468.747,0.180695,0.0,0.0
500,124.75,42.0744,46.2183,156.58,102.319,100.002,0.00504923,0.105551,20.8314,468.747,0.21018,0.0,0.0
502,125.25,42.2364,46.8334,152.519,102.312,100.073,0.00504425,0.105426,20.8323,468.707,0.20304,0.0,0.0
504,125.75,42.2802,46.5628,154.502,102.316,100.064,0.00504022,0.105325,20.8331,468.717,0.204246,0.0,0.0
506,126.25,42.0131,46.2566,155.844,102.317,100.157,0.00503696,0.105174,20.8337,468.737,0.195805,0.0,0.0
508,126.75,42.6787,46.3744,158.23,102.307,100.114,0.00496938,0.105052,20.8342,468.797,0.19883,0.0,0.0
510,127.25,42.3647,46.4988,155.741,102.314,99.9483,0.00491464,0.104885,20.8346,468.787,0.21467,0.0,0.0
512,127.75,41.8783,45.9191,157.665,102.309,100.341,0.00485908,0.10475,20.8349,468.757,0.178226,0.0,0.0
514,128.25,41.628,46.0864,153.785,102.315,100.26,0.00481407,0.10464,20.8351,468.737,0.186157,0.0,0.0
516,128.75,42.0815,46.1942,156.717,102.316,100.73,0.00479259,0.104544,20.8353,468.727,0.143347,0.0,0.0
518,129.25,42.4764,45.9636,151.587,102.314,100.452,0.00477518,0.10446,20.8355,468.737,0.168558,0.0,0.0
520,129.75,42.5981,46.515,159.474,102.317,100.228,0.00477225,0.104392,20.8357,468.747,0.18935,0.0,0.0
522,130.25,41.7691,46.6465,154.166,102.306,100.014,0.00477993,0.104268,20.8358,468.767,0.207917,0.0,0.0
524,130.75,42.0869,46.1107,154.739,102.316,100.129,0.00479009,0.104168,20.8359,468.727,0.19826,0.0,0.0
526,131.25,41.4974,45.9934,155.801,102.319,100.318,0.00480187,0.1041,20.8359,468.727,0.181238,0.0,0.0
528,131.75,42.034,46.5755,157.421,102.307,100.002,0.00480682,0.104045,20.836,468.747,0.209108,0.0,0.0
530,132.25,42.2934,45.8924,157.921,102.312,100.021,0.00480668,0.104001,20.836,468.707,0.207747,0.0,0.0
532,132.75,42.1069,46.0728,154.832,102.314,100.383,0.00480657,0.103965,20.8361,468.707,0.174813,0.0,0.0
534,133.25,42.2834,46.6313,152.645,102.329,100.432,0.00478546,0.103922,20.8361,468.707,0.171658,0.0,0.0
536,133.75,42.2239,46.2295,155.512,102.317,100.423,0.00474945,0.103888,20.8361,468.707,0.171457,0.0,0.0
538,134.25,42.1652,45.9692,160.578,102.314,100.147,0.00470979,0.103845,20.8362,468.697,0.196448,0.0,0.0
540,134.75,41.9169,46.527,153.415,102.306,100.196,0.00466821,0.103798,20.8362,468.687,0.191278,0.0,0.0
542,135.25,41.87,46.0813,160.379,102.307,99.9204,0.00463256,0.10376,20.8362,468.707,0.216565,0.0,0.0
544,135.75,41.9217,45.7028,152.656,102.303,100.515,0.00460192,0.103687,20.8362,468.707,0.161817,0.0,0.0
546,136.25,42.4162,46.0623,152.958,102.332,100.152,0.0045771,0.103629,20.8362,468.687,0.19761,0.0,0.0
548,136.75,41.9064,46.0791,162.15,102.317,100.131,0.00456571,0.103582,20.8362,468.677,0.198221,0.0,0.0
550,137.25,41.8025,46.158,156.298,102.317,100.375,0.0045565,0.103543,20.8362,468.677,0.175823,0.0,0.0
552,137.75,41.8367,46.6946,155.032,102.296,100.414,0.00455625,0.103567,20.8362,468.687,0.170443,0.0,0.0
554,138.25,41.8713,46.0871,156.955,102.322,100.612,0.00456254,0.103586,20.8362,468.677,0.15468,0.0,0.0
556,138.75,41.9955,46.0938,156.74,102.303,100.173,0.00456639,0.103609,20.8362,468.647,0.192988,0.0,0.0
558,139.25,42.0739,45.5712,152.842,102.325,100.012,0.00456952,0.103634,20.8362,468.667,0.209813,0.0,0.0
560,139.75,41.9628,45.9172,154.755,102.3,100.015,0.00457204,0.103654,20.8362,468.677,0.20728,0.0,0.0
562,140.25,42.5947,46.1453,153.435,102.316,100.233,0.00457409,0.103616,20.8362,468.677,0.188775,0.0,0.0
564,140.75,42.5506,46.0302,151.311,102.301,100.032,0.00455804,0.103585,20.8362,468.677,0.205845,0.0,0.0
566,141.25,42.341,46.2661,158.226,102.314,100.13,0.00452909,0.103532,20.8358,468.667,0.197935,0.0,0.0
568,141.75,41.5929,46.1552,152.414,102.298,100.239,0.00449253,0.103489,20.8354,468.657,0.186582,0.0,0.0
570,142.25,41.8091,46.3588,152.528,102.306,100.377,0.00445112,0.103433,20.8356,468.637,0.174667,0.0,0.0
572,142.75,41.7979,45.9487,158.106,102.3,100.123,0.00441168,0.103368,20.8357,468.647,0.197366,0.0,0.0
574,143.25,41.9118,45.8011,158.672,102.317,100.242,0.00437443,0.103316,20.8358,468.657,0.187967,0.0,0.0
576,143.75,42.0914,45.6969,157.95,102.299,100.031,0.00434819,0.103273,20.8359,468.637,0.205717,0.0,0.0
578,144.25,41.4763,46.0138,152.567,102.324,100.531,0.00433047,0.103195,20.836,468.657,0.162139,0.0,0.0
580,144.75,41.7888,45.7304,155.017,102.293,100.036,0.00432595,0.103094,20.836,468.627,0.204697,0.0,0.0
582,145.25,41.8934,46.1136,153.654,102.289,100.262,0.00433113,0.103026,20.8361,468.607,0.183726,0.0,0.0
584,145.75,41.7249,46.263,153.748,102.301,100.267,0.00434058,0.102983,20.8361,468.607,0.184297,0.0,0.0
586,146.25,42.1135,45.931,157.803,102.307,99.9625,0.00435295,0.102928,20.8366,468.637,0.212701,0.0,0.0
588,146.75,42.2379,46.2063,152.285,102.297,100.202,0.00436297,0.102863,20.8369,468.637,0.189906,0.0,0.0
590,147.25,42.4147,46.0059,158.382,102.304,100.123,0.00435929,0.102782,20.8373,468.637,0.197781,0.0,0.0
592,147.75,42.0572,46.1419,153.12,102.299,100.173,0.00434568,0.10269,20.8371,468.627,0.192693,0.0,0.0
594,148.25,41.5527,46.4814,157.585,102.31,100.252,0.00433466,0.102601,20.8369,468.617,0.186466,0.0,0.0
596,148.75,41.9006,45.6312,153.377,102.311,100.276,0.00430209,0.102517,20.837,468.637,0.184303,0.0,0.0
598,149.25,41.7097,46.2049,154.659,102.308,100.073,0.0042757,0.102448,20.8373,468.627,0.202633,0.0,0.0
600,149.75,42.3004,46.1619,157.521,102.306,99.9174,0.0042394,0.102324,20.8375,468.617,0.216808,0.0,0.0
602,150.25,42.0471,45.5385,155.238,102.307,100.083,0.0042041,0.102224,20.8377,468.627,0.201675,0.0,0.0
604,150.75,41.9626,46.1307,152.604,102.293,100.163,0.00417021,0.102142,20.8383,468.647,0.193076,0.0,0.0
606,151.25,42.0438,46.0099,158.715,102.309,100.051,0.00414276,0.10194,20.8388,468.647,0.20478,0.0,0.0
608,151.75,41.3253,45.7685,149.104,102.291,100.133,0.00412425,0.101775,20.8392,468.627,0.195706,0.0,0.0
610,152.25,41.9042,45.893,154.389,102.302,100.437,0.00411188,0.101601,20.8395,468.597,0.168875,0.0,0.0
612,152.75,41.5837,45.4504,155.3,102.291,100.045,0.00410422,0.10146,20.8398,468.607,0.203758,0.0,0.0
614,153.25,41.8818,45.5547,154.409,102.31,100.078,0.00409801,0.101264,20.84,468.597,0.20239,0.0,0.0
616,153.75,41.5584,45.6209,155.353,102.293,100.514,0.00409037,0.101105,20.8402,468.597,0.161022,0.0,0.0
618,154.25,41.9088,45.4748,155.025,102.294,100.276,0.00408181,0.100895,20.8403,468.617,0.182787,0.0,0.0
620,154.75,41.7551,45.8378,156.906,102.288,100.074,0.00406376,0.100724,20.8404,468.617,0.200812,0.0,0.0
622,155.25,41.8629,45.6899,152.542,102.292,100.571,0.00403913,0.10049,20.8405,468.617,0.155718,0.0,0.0
624,155.75,41.9682,45.2949,156.089,102.297,99.9935,0.00401918,0.1003,20.8406,468.597,0.208975,0.0,0.0
626,156.25,41.094,45.4905,150.654,102.291,99.9874,0.00396948,0.100104,20.8406,468.597,0.209015,0.0,0.0
628,156.75,41.5388,45.913,156.546,102.285,100.029,0.00392921,0.0999057,20.8407,468.577,0.204645,0.0,0.0
630,157.25,41.2185,45.5864,154.596,102.288,100.198,0.00386434,0.0997453,20.8407,468.597,0.189381,0.0,0.0
632,157.75,41.6546,45.6768,155.773,102.288,100.284,0.00381179,0.0995606,20.8408,468.587,0.181582,0.0,0.0
634,158.25,41.5815,45.8991,155.844,102.289,99.8789,0.00375878,0.0994111,20.8408,468.597,0.218832,0.0,0.0
636,158.75,41.7619,45.7229,155.006,102.282,100.039,0.00370644,0.0991807,20.841,468.587,0.203494,0.0,0.0
638,159.25,41.3578,45.5056,153.696,102.282,100.378,0.00366666,0.0989941,20.8411,468.597,0.17243,0.0,0.0
640,159.75,41.2939,45.6852,155.37,102.29,100.087,0.00363678,0.0987883,20.8412,468.557,0.199787,0.0,0.0
642,160.25,41.7805,45.2029,154.213,102.285,100.359,0.00361258,0.0986217,20.8413,468.577,0.174497,0.0,0.0
644,160.75,41.3825,46.2852,153.541,102.283,100.036,0.00360278,0.0984943,20.8414,468.577,0.203893,0.0,0.0
646,161.25,41.6909,45.063,154.916,102.287,100.062,0.00360365,0.0983979,20.8415,468.557,0.201724,0.0,0.0
648,161.75,41.79,45.4023,156.781,102.272,100.412,0.0036037,0.0983199,20.8415,468.536,0.168409,0.0,0.0
650,162.25,41.4488,45.5904,151.543,102.278,100.496,0.00360315,0.098243,20.8416,468.577,0.161275,0.0,0.0
652,162.75,41.6339,45.6607,157.038,102.276,99.9894,0.00360271,0.0981808,20.842,468.577,0.20746,0.0,0.0
654,163.25,41.546,45.9068,156.476,102.271,100.28,0.00358212,0.0981016,20.8424,468.577,0.180382,0.0,0.0
656,163.75,41.5864,45.7245,154.647,102.279,99.7703,0.00354723,0.0980116,20.8429,468.577,0.227845,0.0,0.0
658,164.25,41.8807,45.7851,153.369,102.265,100.168,0.00351897,0.0979099,20.8433,468.577,0.190125,0.0,0.0
660,164.75,41.4525,45.287,152.303,102.282,99.9575,0.00345891,0.0978018,20.8436,468.567,0.210986,0.0,0.0
662,165.25,41.4795,45.4577,156.705,102.279,100.258,0.00341026,0.0977141,20.8438,468.557,0.183089,0.0,0.0
664,165.75,41.9522,45.5344,153.866,102.276,99.8956,0.00333743,0.0976431,20.844,468.547,0.216074,0.0,0.0
666,166.25,41.1015,45.5677,153.092,102.275,100.032,0.00326738,0.0975037,20.8442,468.557,0.203442,0.0,0.0
668,166.75,41.3781,45.6816,160.652,102.272,100.114,0.00320067,0.0973908,20.8448,468.577,0.195725,0.0,0.0
670,167.25,41.4315,45.9707,154.024,102.277,100.312,0.00314664,0.0972721,20.8452,468.587,0.177986,0.0,0.0
672,167.75,41.3606,44.8599,151.883,102.278,100.187,,0.0971759,,468.587,0.189561,0.0,0.0
674,168.25,41.7857,45.6977,153.457,102.268,100.373,,0.0970297,,468.577,0.171609,0.0,0.0
676,168.75,41.3694,45.4965,155.996,102.269,100.248,,0.0969114,,468.557,0.183213,0.0,0.0
678,169.25,41.6061,45.8183,154.521,102.262,100.146,,0.0967609,,468.557,0.191919,0.0,0.0
680,169.75,41.2109,45.5566,156.603,102.268,99.9767,,0.0966391,,468.547,0.207922,0.0,0.0
682,170.25,41.2735,46.0936,160.352,102.266,99.8783,,0.0964973,,468.557,0.216808,0.0,0.0
684,170.75,41.2622,45.6522,154.943,102.263,99.8824,,,,468.557,0.216102,0.0,0.0
686,171.25,41.5582,45.4442,159.281,102.255,100.472,,,,468.587,0.161426,0.0,0.0
688,171.75,41.6808,45.0248,157.921,102.264,99.8043,,,,468.587,0.223427,0.0,0.0
690,172.25,41.9061,45.7644,150.525,102.263,99.9737,,,,468.587,0.20772,0.0,0.0
692,172.75,41.6041,45.3476,156.518,102.265,100.022,,,,468.577,0.203559,0.0,0.0
694,173.25,41.5379,45.5293,158.052,102.251,99.8753,,,,468.587,0.215682,0.0,0.0
696,173.75,41.3157,45.7248,155.104,102.269,100.258,,,,468.567,0.182285,0.0,0.0
698,174.25,41.7925,45.6956,151.474,102.267,99.9975,,,,468.547,0.205903,0.0,0.0
700,174.75,41.4816,45.2417,156.355,102.273,99.995,,,,468.577,0.20669,0.0,0.0
702,175.25,41.4252,45.1767,155.853,102.261,100.033,,,,468.587,0.202211,0.0,0.0
704,175.75,41.3157,45.7901,154.131,102.263,99.8565,,,,468.567,0.218515,0.0,0.0
706,176.25,42.0071,45.3087,148.16,102.251,100.139,,,,468.516,0.191441,0.0,0.0
708,176.75,41.5836,45.7099,154.994,102.268,100.057,,,,468.577,0.200534,0.0,0.0
710,177.25,41.3401,45.3812,149.92,102.24,100.027,,,,468.577,0.200717,0.0,0.0
712,177.75,41.4142,45.1642,157.805,102.256,99.923,,,,468.577,0.211784,0.0,0.0
714,178.25,41.4223,45.5254,153.466,102.251,99.9777,,,,468.597,0.206313,0.0,0.0
715,178.5,41.6355,45.6059,155.419,102.239,100.308,,,,468.587,0.174992,0.0,0.0