File: 02_Data/Polyester_Batting/Cone/Polyester_Batting_Cone_HF25Scan_210324_R2.csv
Names,Time,Stack TC,Smoke TC,Exh Press,Smoke Comp,Smoke Meas,CO Meter,CO2 Meter,O2 Meter,Sample Mass,Ext Coeff,Start Test,Flame Verif
Chan Gain,,500,500,1,1,1,1,1,1,1,1,1.0,1.0
Offset,,0,0,0.194005,0,0,0,0,0,0,0,0.0,0.0
Gain,,1,1,25.011,13.5067,16.616,1,1,1,1.00091,1.04608,1.0,1.0
Units,sec,C,C,Pa,%,%,%,%,%,g,/m,,
Baseline,,19.69,20.9658,167.571,101.23,100.441,0.000543829,0.093223,20.8133,-1.3423,0.0717426,,
10,2.25,16.727,17.6224,166.532,101.029,100.264,0.000388038,0.0967566,20.787,475.223,0.0698,0.0,0.0
20,4.75,17.16,18.1342,166.698,100.972,100.105,0.000323388,0.0974759,20.7856,475.183,0.0791791,0.0,0.0
30,7.25,17.4147,18.3461,167.591,100.916,100.1,0.000259292,0.0986791,20.7842,475.163,0.0745016,0.0,0.0
40,9.75,18.1667,18.9242,170.435,100.857,100.033,0.000354367,0.099717,20.7831,475.153,0.0753251,0.0,0.0
50,12.25,18.1127,19.3842,168.188,100.81,100.018,0.000409273,0.100038,20.7825,475.102,0.0723508,0.0,0.0
60,14.75,18.1953,19.7175,164.666,100.752,100.001,0.000520377,0.0994571,20.7834,475.133,0.0686786,0.0,0.0
70,17.25,17.7002,19.2959,165.133,100.697,99.8571,0.000648266,0.0982419,20.7853,475.122,0.0768331,0.0,0.0
80,19.75,17.5566,19.753,170.702,100.655,99.8996,0.00072373,0.0968304,20.7884,475.153,0.0691259,0.0,0.0
90,22.25,17.7318,19.3731,164.948,100.576,99.7379,0.000666239,0.0955595,20.7912,475.153,0.0767777,0.0,0.0
100,24.75,18.1765,19.4951,167.289,100.51,99.6999,0.000630875,0.0944857,20.7929,475.133,0.0742206,0.0,0.0
110,27.25,18.1927,19.794,168.519,100.449,99.602,0.000521761,0.0935085,20.7934,475.183,0.0777377,0.0,0.0
120,29.75,18.1631,19.6306,171.639,100.382,99.5569,0.000383988,0.0930811,20.7926,475.143,0.0757558,0.0,0.0
130,32.25,18.6871,19.999,168.222,100.315,99.5285,0.000394634,0.0929491,20.7919,475.153,0.0722293,0.0,0.0
140,34.75,18.0863,19.4719,168.688,100.262,99.4585,0.000546575,0.0927832,20.7931,475.112,0.0738191,0.0,0.0
150,37.25,18.5911,19.5658,169.29,100.216,99.2815,0.000581157,0.0924426,20.7946,475.143,0.0859351,0.0,0.0
160,39.75,18.1428,19.6104,169.895,100.171,99.4793,0.000500495,0.0920639,20.7952,475.163,0.0635601,0.0,0.0
170,42.25,17.444,19.3534,171.242,100.113,99.3317,0.000476905,0.0918833,20.7954,475.133,0.0718928,0.0,0.0
180,44.75,18.1113,19.4695,166.853,100.083,99.2977,0.000482222,0.0917585,20.7954,475.133,0.0722738,0.0,0.0
190,47.25,17.8657,19.864,164.79,100.05,99.2268,0.000351601,0.0916315,20.7954,475.112,0.0757754,0.0,0.0
200,49.75,18.4888,19.763,168.272,100.04,99.3104,0.000375084,0.0916609,20.7954,475.122,0.0671335,0.0,0.0
210,52.25,17.9132,19.9252,163.874,100.024,99.1137,0.000475334,0.0915502,20.7954,475.122,0.0839322,0.0,0.0
220,54.75,18.2211,20.1352,164.817,100.023,99.1547,0.000377043,0.0914981,20.7954,475.143,0.0800163,0.0,0.0
230,57.25,18.5945,19.8322,169.558,100.04,99.2785,0.00029019,0.0914637,20.7962,475.122,0.0701236,0.0,0.0
240,59.75,18.4832,20.4609,166.163,100.062,99.0483,0.000275576,0.0917697,20.7959,475.102,0.09343,0.0,0.0
250,62.25,19.1143,19.8014,168.504,100.08,99.242,0.000350372,0.0920159,20.795,475.112,0.0771281,0.0,0.0
260,64.75,18.6173,19.9506,170.293,100.122,99.2349,0.000382832,0.0924686,20.7944,475.122,0.0816384,0.0,0.0
270,67.25,18.8345,19.5764,164.552,100.156,99.0767,0.000386323,0.0927043,20.7929,475.122,0.0994138,0.0,0.0
280,69.75,18.1434,20.2112,165.043,100.193,99.2496,0.000333517,0.0930361,20.7924,475.082,0.0868486,0.0,0.0
290,72.25,18.3089,19.9709,168.931,100.244,99.3535,0.000230278,0.0934289,20.7909,475.092,0.0818856,0.0,0.0
300,74.75,18.7597,20.1036,164.259,100.294,99.5249,0.000257141,0.0936196,20.7902,475.122,0.0706717,0.0,0.0
310,77.25,18.7783,20.1024,170.682,100.361,99.4849,0.000217687,0.0936938,20.7899,475.102,0.0804728,0.0,0.0
320,79.75,18.3132,19.6348,165.83,100.425,99.3814,3.50825e-05,0.0939631,20.788,475.082,0.0958974,0.0,0.0
330,82.25,18.3975,19.6004,170.821,100.513,99.5614,1.35604e-05,0.0942921,20.7853,475.102,0.0873091,0.0,0.0
340,84.75,18.3766,19.534,167.868,100.573,99.5919,0.000266044,0.0944951,20.7833,475.112,0.089998,0.0,0.0
350,87.25,18.4813,20.2251,166.258,100.654,99.8342,0.000603356,0.0944841,20.7826,475.112,0.0750604,0.0,0.0
360,89.75,18.4534,19.749,166.816,100.729,99.7135,0.000886622,0.0944246,20.7831,475.102,0.092959,0.0,0.0
370,92.25,18.8142,20.0456,167.22,100.834,100.113,0.000967123,0.094503,20.7825,475.102,0.0657944,0.0,0.0
380,94.75,18.47,20.2652,166.299,100.903,99.9296,0.000766169,0.0947845,20.7823,475.102,0.0889342,0.0,0.0
390,97.25,18.6545,19.3889,166.017,100.998,99.928,0.000650793,0.0952314,20.781,475.072,0.0976909,0.0,0.0
400,99.75,18.3673,19.9591,169.476,101.089,100.158,0.000620333,0.0956634,20.7797,475.082,0.0849315,0.0,0.0
410,102.25,18.4828,20.1003,164.668,101.19,100.207,0.000547713,0.0959714,20.7785,475.092,0.0896265,0.0,0.0
420,104.75,18.2331,19.8828,171.473,101.291,100.267,0.00040563,0.0962332,20.7788,475.092,0.0932546,0.0,0.0
430,107.25,18.5063,20.1422,167.275,101.364,100.318,0.000190025,0.0963287,20.7788,475.092,0.095223,0.0,0.0
440,109.75,18.5723,20.3281,164.361,101.47,100.477,4.82384e-05,0.0965437,20.7789,475.082,0.0903013,0.0,0.0
450,112.25,18.6139,19.66,166.047,101.547,100.475,0.00012442,0.0965425,20.7789,475.082,0.0973338,0.0,0.0
460,114.75,18.5428,19.7727,167.627,101.632,100.554,0.000273605,0.0964671,20.7789,475.102,0.0978186,0.0,0.0
470,117.25,19.012,20.5439,166.542,101.685,100.643,0.000271868,0.0964249,20.7789,475.072,0.0945701,0.0,0.0
480,119.75,18.6742,20.1048,168.668,101.774,100.617,0.000282944,0.0966784,20.7782,475.072,0.10496,0.0,0.0
490,122.25,17.974,20.355,170.358,101.817,100.736,0.000308813,0.0971671,20.7764,475.082,0.0979626,0.0,0.0
500,124.75,18.6381,20.081,168.383,101.864,100.955,0.000333236,0.0976228,20.775,475.062,0.082226,0.0,0.0
510,127.25,18.1206,20.7006,174.064,101.909,100.692,0.000359744,0.0980229,20.7724,475.052,0.110216,0.0,0.0
520,129.75,19.0939,19.7279,166.461,101.923,100.9,0.000285462,0.0988436,20.7682,475.052,0.0926341,0.0,0.0
530,132.25,18.7633,20.3579,169.387,101.931,100.893,0.000256348,0.0997156,20.7658,475.072,0.0939389,0.0,0.0
540,134.75,18.7996,20.5278,165.877,101.948,100.87,0.000320338,0.100424,20.7639,475.042,0.0974994,0.0,0.0
550,137.25,18.9331,19.9655,165.363,101.929,100.785,0.00023745,0.100749,20.7634,475.042,0.103582,0.0,0.0
560,139.75,18.9944,20.4188,165.945,101.925,100.782,0.000116571,0.100837,20.7645,475.052,0.103487,0.0,0.0
570,142.25,19.0473,20.4503,164.88,101.89,100.82,0.000152873,0.100663,20.765,475.042,0.0969084,0.0,0.0
580,144.75,19.1218,20.8392,165.042,101.859,100.766,0.000315378,0.100686,20.7657,475.042,0.0989798,0.0,0.0
590,147.25,18.7591,20.2582,167.535,101.817,100.744,0.000402392,0.100599,20.767,475.042,0.09714,0.0,0.0
600,149.75,19.1511,20.6285,170.777,101.768,100.568,0.000357976,0.100406,20.7666,475.022,0.108806,0.0,0.0
610,152.25,19.0287,20.3073,166.095,101.711,100.628,0.000253062,0.10025,20.7668,475.042,0.0982082,0.0,0.0
620,154.75,19.2427,20.6167,164.328,101.632,100.517,0.000294506,0.0999314,20.7678,475.102,0.101235,0.0,0.0
630,157.25,19.5528,20.1335,165.662,101.594,100.348,0.000379748,0.0995904,20.7681,475.052,0.113163,0.0,0.0
640,159.75,18.7775,20.4332,165.017,101.532,100.397,0.000371437,0.0995046,20.7692,475.042,0.103211,0.0,0.0
650,162.25,19.3913,20.2775,167.79,101.481,100.315,0.000279763,0.099337,20.7711,475.032,0.106019,0.0,0.0
660,164.75,18.5799,20.6901,171.203,101.406,100.431,0.000252612,0.0988699,20.7736,474.992,0.0887371,0.0,0.0
670,167.25,19.189,20.8137,165.55,101.343,100.119,0.000302905,0.0979812,20.7788,475.042,0.111566,0.0,0.0
680,169.75,19.1775,21.0529,167.882,101.281,100.203,0.000388356,0.0971474,20.7823,475.022,0.0981714,0.0,0.0
690,172.25,19.4116,21.2608,165.712,101.235,100.382,0.000452161,0.0966006,20.7858,475.022,0.0776108,0.0,0.0
700,174.75,19.2134,20.6771,168.02,101.193,99.9311,0.000340833,0.0959039,20.7884,475.012,0.115184,0.0,0.0
710,177.25,19.1995,20.686,162.606,101.152,100.023,0.000222927,0.0956618,20.7885,475.012,0.102974,0.0,0.0
720,179.75,19.0528,21.0422,168.343,101.166,100.073,0.00017518,0.0956567,20.7865,475.042,0.0996962,0.0,0.0
730,182.25,19.3102,20.9652,167.283,101.277,100.191,0.000256586,0.0963488,20.7829,475.042,0.0989117,0.0,0.0
740,184.75,19.1618,20.6438,168.571,101.385,100.211,0.000343468,0.0968954,20.7802,475.042,0.10688,0.0,0.0
750,187.25,19.6642,21.0272,164.742,101.452,100.367,0.000283174,0.0971798,20.7789,475.012,0.098679,0.0,0.0
760,189.75,18.8693,20.9426,166.644,101.528,100.321,0.000189586,0.097197,20.7787,474.992,0.109794,0.0,0.0
770,192.25,19.2486,20.9539,166.151,101.58,100.508,0.000138878,0.0966398,20.7799,474.962,0.0973489,0.0,0.0
780,194.75,19.5658,21.2053,165.915,101.654,100.507,0.000116321,0.0957112,20.7824,474.992,0.104179,0.0,0.0
790,197.25,19.6595,21.355,166.734,101.656,100.453,0.00013889,0.0948491,20.7857,475.002,0.109236,0.0,0.0
800,199.75,18.9967,20.6171,169.726,101.68,100.442,0.000144215,0.0941624,20.7881,474.972,0.112405,0.0,0.0
810,202.25,19.2005,20.9924,168.136,101.676,100.402,0.000101364,0.0936732,20.789,474.982,0.115739,0.0,0.0
820,204.75,19.344,21.0112,170.577,101.674,100.443,0.000147047,0.0933376,20.7901,474.982,0.111716,0.0,0.0
830,207.25,19.1501,20.8904,169.045,101.643,100.342,0.000367561,0.0930239,20.7912,474.982,0.118149,0.0,0.0
840,209.75,19.0959,20.578,167.228,101.619,100.517,0.000460366,0.092764,20.7916,474.982,0.10009,0.0,0.0
850,212.25,19.0988,20.3986,167.855,101.567,100.203,0.000345493,0.0926296,20.7923,474.982,0.124098,0.0,0.0
860,214.75,19.1887,20.6053,163.807,101.517,100.281,0.000119477,0.092539,20.7929,474.962,0.112396,0.0,0.0
870,217.25,18.8708,21.4179,162.71,101.441,100.074,3.00038e-05,0.0922955,20.7937,474.972,0.124544,0.0,0.0
880,219.75,19.262,21.4515,165.548,101.363,100.165,0.000102997,0.0923379,20.7943,474.972,0.109083,0.0,0.0
890,222.25,19.6926,21.1026,166.53,101.271,99.9012,0.000229134,0.0923877,20.7946,474.952,0.124955,0.0,0.0
900,224.75,19.3026,21.0093,165.794,101.157,99.6273,0.000381195,0.0924629,20.7947,474.962,0.13979,0.0,0.0
910,227.25,19.885,20.8302,165.652,101.05,99.815,0.000364663,0.0925165,20.7932,474.942,0.112873,0.0,0.0
920,229.75,18.9531,20.9412,170.016,100.909,99.6126,0.000496314,0.0925559,20.7921,474.922,0.118645,0.0,0.0
930,232.25,19.8087,21.1731,166.171,100.777,99.606,0.000658428,0.0927608,20.7908,474.952,0.107211,0.0,0.0
940,234.75,19.9077,21.2113,164.435,100.72,99.4372,0.000548447,0.0930046,20.7895,474.932,0.117638,0.0,0.0
950,237.25,19.4794,21.4105,170.883,100.758,99.4423,0.000403651,0.0932298,20.7884,474.912,0.120624,0.0,0.0
960,239.75,19.2498,21.0249,165.022,100.777,99.2227,0.000285341,0.0933856,20.788,474.922,0.142671,0.0,0.0
970,242.25,19.2956,21.3941,163.783,100.815,99.6126,0.000201098,0.0935853,20.7883,474.922,0.110094,0.0,0.0
980,244.75,19.5727,21.2016,169.716,100.844,99.6324,0.000153388,0.0936753,20.7886,474.912,0.110936,0.0,0.0
990,247.25,19.5088,21.077,166.106,100.885,99.5193,0.000217239,0.0937856,20.7878,474.932,0.125107,0.0,0.0
1000,249.75,19.6703,20.8434,167.589,100.921,99.5143,0.000222993,0.093769,20.7869,474.922,0.12876,0.0,0.0
1010,252.25,19.1835,20.8782,165.125,100.981,99.6339,0.000169594,0.0937165,20.7866,474.912,0.123203,0.0,0.0
1020,254.75,19.32,21.0312,168.355,101.031,99.5954,0.000256994,0.0938325,20.788,474.912,0.131283,0.0,0.0
1030,257.25,19.4819,21.164,171.541,101.073,99.7688,0.000328391,0.0937864,20.7885,474.892,0.119174,0.0,0.0
1040,259.75,19.9115,20.8369,168.513,101.128,99.5766,0.000391475,0.0936,20.7887,474.902,0.141843,0.0,0.0
1050,262.25,19.5638,21.5312,166.495,101.162,99.8008,0.000313868,0.0935768,20.7888,474.912,0.124353,0.0,0.0
1060,264.75,19.4245,20.8349,166.916,101.214,99.6826,0.000303136,0.0934224,20.7888,474.892,0.139933,0.0,0.0
1070,267.25,19.7195,21.216,168.725,101.237,99.7911,0.000378209,0.0935372,20.7877,474.892,0.131967,0.0,0.0
1080,269.75,19.2764,21.4372,163.406,101.281,99.8505,0.000382033,0.0937515,20.7862,474.912,0.130548,0.0,0.0
1090,272.25,19.3094,20.978,166.721,101.295,100.024,0.000292612,0.0938866,20.7853,474.892,0.115857,0.0,0.0
1100,274.75,19.407,20.5288,167.121,101.326,99.8702,0.00031209,0.0941356,20.785,474.872,0.132799,0.0,0.0
1110,277.25,19.3427,21.0979,166.064,101.359,99.9007,0.000254571,0.094295,20.7842,474.872,0.132991,0.0,0.0
1120,279.75,19.248,20.8697,169.611,101.344,99.8662,0.000261858,0.0944464,20.7846,474.892,0.134815,0.0,0.0
1130,282.25,19.5131,20.8505,167.762,101.345,99.8692,0.000291403,0.0945813,20.7832,474.902,0.134609,0.0,0.0
1140,284.75,19.7168,21.4305,169.078,101.351,100.071,0.000291729,0.0946228,20.7827,474.852,0.116608,0.0,0.0
1150,287.25,19.0561,21.2932,164.172,101.34,99.8966,0.000343798,0.0945202,20.7826,474.872,0.131609,0.0,0.0
1160,289.75,19.4001,21.4027,166.588,101.308,99.6324,0.000393186,0.0944344,20.7834,474.872,0.152997,0.0,0.0
1170,292.25,19.8124,20.914,166.172,101.285,99.8317,0.000331124,0.0944283,20.7841,474.862,0.132608,0.0,0.0
1180,294.75,20.0067,20.8607,165.115,101.272,99.8682,0.000208103,0.0942552,20.7843,474.862,0.128057,0.0,0.0
1190,297.25,19.5051,21.1827,164.186,101.23,99.5888,0.000132554,0.0942312,20.7844,474.862,0.150029,0.0,0.0
1200,299.75,19.6708,21.1037,167.468,101.181,99.5766,0.00020039,0.0940195,20.7844,474.842,0.146629,0.0,0.0
1210,302.25,19.937,20.6208,169.954,101.136,99.5949,0.000399973,0.0939157,20.7855,474.842,0.140946,0.0,0.0
1220,304.75,19.5455,21.2778,167.842,101.069,99.4625,0.000555621,0.0937191,20.7863,474.822,0.14705,0.0,0.0
1230,307.25,19.403,21.2236,167.975,101.013,99.5163,0.000418936,0.0936165,20.7876,474.842,0.136964,0.0,0.0
1240,309.75,19.4004,21.2407,166.357,100.938,99.5143,0.000227002,0.0935784,20.7889,474.842,0.130334,0.0,0.0
1250,312.25,19.4845,21.3139,165.657,100.876,99.4702,0.000244924,0.093432,20.7896,474.832,0.128742,0.0,0.0
1260,314.75,19.7916,21.5356,164.467,100.798,99.3997,0.000417224,0.0931624,20.7899,474.822,0.128196,0.0,0.0
1270,317.25,19.8685,21.0294,166.367,100.732,99.319,0.000520263,0.0931084,20.79,474.812,0.129637,0.0,0.0
1280,319.75,19.7818,21.3284,165.018,100.648,99.0848,0.000468257,0.0931415,20.7891,474.812,0.14368,0.0,0.0
1290,322.25,19.9576,20.8419,167.311,100.58,98.8946,0.000376106,0.0933388,20.7886,474.802,0.155104,0.0,0.0
1300,324.75,19.7879,20.8091,171.352,100.502,99.136,0.000412832,0.0934938,20.7875,474.802,0.12555,0.0,0.0
1310,327.25,19.5057,20.992,162.492,100.436,98.8906,0.000492775,0.0935789,20.7866,474.772,0.142273,0.0,0.0
1320,329.75,19.9542,20.8158,164.336,100.357,98.9839,0.000458533,0.0935904,20.7864,474.782,0.126423,0.0,0.0
1330,332.25,19.6838,21.0347,171.818,100.282,98.9291,0.000334817,0.0935338,20.7867,474.772,0.124677,0.0,0.0
1340,334.75,19.1406,21.1406,161.81,100.23,98.5711,0.000220569,0.0935747,20.7873,474.782,0.153114,0.0,0.0
1350,337.25,19.9236,21.4504,167.181,100.159,98.2116,0.000467876,0.0934434,20.7884,474.762,0.180188,0.0,0.0
1360,339.75,19.3224,21.3025,169.812,100.119,98.7668,0.000672454,0.093335,20.7889,474.782,0.124793,0.0,0.0
1370,342.25,19.3271,21.2357,169.044,100.085,98.4656,0.000466771,0.0931563,20.7904,474.762,0.149721,0.0,0.0
1380,344.75,19.345,21.3098,167.969,100.05,98.4636,0.000208583,0.0930552,20.7911,474.762,0.146659,0.0,0.0
1390,347.25,19.8398,21.5556,167.885,100.027,98.6467,0.000255522,0.0930981,20.7908,474.772,0.127536,0.0,0.0
1400,349.75,19.5881,20.9527,165.534,100.015,98.5711,0.000432241,0.0932748,20.7897,474.752,0.133394,0.0,0.0
1410,352.25,19.6873,21.1794,166.367,100.026,98.5615,0.000636043,0.093217,20.7893,474.752,0.13535,0.0,0.0
1420,354.75,19.3097,21.4826,168.133,100.027,98.0549,0.000808365,0.0932765,20.7892,474.762,0.182709,0.0,0.0
1430,357.25,20.5742,21.7896,161.85,100.053,98.6066,0.000815998,0.0933337,20.7891,474.752,0.133607,0.0,0.0
1440,359.75,19.4663,21.3626,162.565,100.084,98.777,0.000635296,0.0932034,20.7887,474.742,0.1206,0.0,0.0
1450,362.25,19.2953,21.7991,174.03,100.123,98.4682,0.000469107,0.0931081,20.7885,474.742,0.152885,0.0,0.0
1460,364.75,19.2409,21.01,168.322,100.164,98.6167,0.000484571,0.0932134,20.7885,474.752,0.142826,0.0,0.0
1470,367.25,19.3341,21.3764,167.575,100.235,98.7374,0.000508985,0.0931401,20.7884,474.732,0.138097,0.0,0.0
1480,369.75,19.1438,21.3671,165.958,100.289,98.5371,0.000473491,0.0930819,20.7884,474.712,0.16171,0.0,0.0
1490,372.25,19.2505,21.2595,167.027,100.362,98.7836,0.000465117,0.0933445,20.7894,474.732,0.145425,0.0,0.0
1500,374.75,19.956,21.4963,162.319,100.426,99.063,0.000461321,0.0935856,20.7898,474.732,0.125384,0.0,0.0
1510,377.25,19.3615,21.1653,166.879,100.502,98.992,0.000476488,0.0943221,20.7885,474.712,0.138928,0.0,0.0
1520,379.75,19.6389,21.4878,169.397,100.579,98.9088,0.000434322,0.0952834,20.7869,474.712,0.153675,0.0,0.0
1530,382.25,19.3426,21.7522,167.403,100.684,99.3601,0.000424385,0.0957261,20.7867,474.712,0.121486,0.0,0.0
1540,384.75,19.4278,21.1753,160.987,100.757,99.3008,0.000420651,0.096165,20.785,474.692,0.133576,0.0,0.0
1550,387.25,19.6695,21.8715,176.192,100.852,99.2582,0.000466931,0.0966398,20.7823,474.702,0.146217,0.0,0.0
1560,389.75,20.0439,21.9009,167.997,100.947,99.3048,0.000523153,0.0972368,20.7807,474.692,0.150528,0.0,0.0
1570,392.25,20.2985,22.1384,165.189,101.05,99.4489,0.0005378,0.0971567,20.7806,474.692,0.146555,0.0,0.0
1580,394.75,20.1811,22.3263,165.236,101.117,99.6573,0.000526821,0.0967575,20.7822,474.672,0.133444,0.0,0.0
1590,397.25,20.1675,22.2246,166.799,101.229,99.2719,0.000532196,0.0964534,20.7837,474.672,0.179128,0.0,0.0
1600,399.75,20.1309,22.0955,167.709,101.299,99.6415,0.000477643,0.0961032,20.7842,474.662,0.151372,0.0,0.0
1610,402.25,19.7068,21.6584,167.858,101.377,99.6816,0.000467299,0.0964112,20.7843,474.682,0.154738,0.0,0.0
1620,404.75,20.4725,22.1314,168.805,101.458,99.9017,0.000491324,0.0968229,20.7851,474.672,0.141849,0.0,0.0
1630,407.25,19.9535,21.9883,171.554,101.52,99.8728,0.000506562,0.0970983,20.7858,474.672,0.150132,0.0,0.0
1640,409.75,19.8108,21.7971,169.18,101.578,100.061,0.000489932,0.0974162,20.786,474.662,0.138041,0.0,0.0
1650,412.25,19.3989,21.8724,169.551,101.625,99.9498,0.000520407,0.0970665,20.7861,474.642,0.152548,0.0,0.0
1660,414.75,20.2695,22.4145,160.814,101.696,100.062,0.000442604,0.0970408,20.7855,474.672,0.148665,0.0,0.0
1670,417.25,20.8343,22.0844,170.191,101.736,100.139,0.000414048,0.0962876,20.7866,474.652,0.145207,0.0,0.0
1680,419.75,20.4158,21.7437,169.1,101.791,100.252,0.000611996,0.0955873,20.7872,474.632,0.139831,0.0,0.0
1690,422.25,20.0636,22.1421,169.309,101.823,100.509,0.000761069,0.0951777,20.7874,474.622,0.119199,0.0,0.0
1700,424.75,20.3414,22.4559,170.599,101.877,100.425,0.000785745,0.0951691,20.7881,474.612,0.131706,0.0,0.0
1710,427.25,20.2346,22.0062,163.891,101.886,100.276,0.000856033,0.0950721,20.7883,474.592,0.146146,0.0,0.0
1720,429.75,20.1589,22.0536,168.313,101.92,100.128,0.000865601,0.0949887,20.7876,474.622,0.162712,0.0,0.0
1730,432.25,20.2512,22.2808,174.66,101.944,100.476,0.000639672,0.0947121,20.7886,474.592,0.133087,0.0,0.0
1740,434.75,19.8715,22.1006,165.869,101.954,100.141,0.00045213,0.0946153,20.7872,474.622,0.164712,0.0,0.0
1750,437.25,20.5747,22.2122,169.301,101.966,100.466,0.00049922,0.096324,20.7833,474.602,0.13597,0.0,0.0
1760,439.75,20.3806,22.451,166.183,101.965,100.451,0.000549061,0.0998138,20.7802,474.572,0.137239,0.0,0.0
1770,442.25,20.4835,21.6838,168.964,101.96,100.373,0.000455947,0.10212,20.7794,474.582,0.14393,0.0,0.0
1780,444.75,20.1905,21.9273,170.482,101.946,100.671,0.000325382,0.102283,20.7808,474.582,0.115488,0.0,0.0
1790,447.25,20.1277,22.2456,167.142,101.944,100.353,0.00025173,0.10071,20.7827,474.592,0.144375,0.0,0.0
1800,449.75,20.688,22.1614,163.632,101.925,100.265,0.000224084,0.0990492,20.7838,474.592,0.150655,0.0,0.0
1810,452.25,20.2321,21.6437,169.124,101.897,100.451,0.000345866,0.0981026,20.7856,474.562,0.131125,0.0,0.0
1820,454.75,20.5693,22.4633,166.38,101.86,100.322,0.00049314,0.0974922,20.7857,474.562,0.139641,0.0,0.0
1830,457.25,20.5442,21.8948,167.26,101.84,100.19,0.000502214,0.0970631,20.7849,474.582,0.149887,0.0,0.0
1840,459.75,20.4715,21.5746,166.323,101.802,99.6213,0.00052979,0.0970135,20.7832,474.542,0.198679,0.0,0.0
1850,462.25,20.4901,21.9394,170.137,101.768,100.19,0.00050055,0.0966163,20.7825,474.572,0.143386,0.0,0.0
1860,464.75,20.2805,22.3935,164.391,101.732,100.133,0.00045925,0.0963679,20.7823,474.562,0.145309,0.0,0.0
1870,467.25,20.2115,22.1622,166.558,101.69,100.079,0.000412363,0.0961461,20.7809,474.552,0.146488,0.0,0.0
1880,469.75,20.1512,22.4937,167.39,101.651,99.8195,0.000435226,0.0960003,20.7802,474.542,0.166828,0.0,0.0
1890,472.25,20.5327,22.4647,163.409,101.612,100.075,0.000556924,0.0962647,20.7799,474.542,0.139828,0.0,0.0
1900,474.75,20.5282,22.4207,164.822,101.557,100.111,0.00069753,0.0965194,20.7793,474.552,0.131613,0.0,0.0
1910,477.25,21.0463,21.944,163.903,101.513,99.9316,0.000699108,0.0965266,20.7793,474.512,0.144096,0.0,0.0
1920,479.75,20.2678,22.5736,169.368,101.477,99.5837,0.000558709,0.0965322,20.7793,474.532,0.172851,0.0,0.0
1930,482.25,20.4447,21.9138,162.567,101.438,99.8236,0.000413617,0.0964161,20.7794,474.542,0.147198,0.0,0.0
1940,484.75,20.1648,21.941,167.146,101.395,99.6076,0.000296786,0.0961871,20.7794,474.532,0.163197,0.0,0.0
1950,487.25,20.4964,22.09,166.202,101.349,99.6025,0.000350962,0.0959565,20.7788,474.502,0.159523,0.0,0.0
1960,489.75,21.119,21.9361,171.696,101.322,99.6628,0.00038802,0.0959047,20.7786,474.492,0.151464,0.0,0.0
1970,492.25,20.8647,22.611,164.197,101.267,99.7977,0.000242855,0.0957524,20.7786,474.482,0.134125,0.0,0.0
1980,494.75,20.2052,22.3366,165.686,101.252,99.4767,0.000159312,0.0965245,20.7773,474.472,0.162304,0.0,0.0
1990,497.25,20.6658,22.0816,169.243,101.221,99.2399,0.000259128,0.0982958,20.7768,474.472,0.181372,0.0,0.0
2000,499.75,20.1841,22.4096,166.592,101.201,99.5457,0.000296916,0.0979761,20.7788,474.472,0.151349,0.0,0.0
2010,502.25,20.6695,21.9805,165.679,101.156,99.6775,0.000296413,0.0967325,20.7816,474.462,0.13513,0.0,0.0
2020,504.75,20.6753,22.3491,169.939,101.206,99.6654,0.000348892,0.0958479,20.7839,474.452,0.140735,0.0,0.0
2030,507.25,20.5959,22.9526,168.567,101.282,99.6836,0.000386429,0.0951863,20.7849,474.482,0.145966,0.0,0.0
2040,509.75,20.2313,22.1425,170.516,101.357,99.7166,0.000292147,0.0947481,20.7853,474.462,0.149689,0.0,0.0
2050,512.25,20.5402,22.0335,164.047,101.418,99.89,0.00012897,0.0946152,20.7854,474.442,0.139266,0.0,0.0
2060,514.75,20.4812,22.1339,164.922,101.481,99.6983,0.0001703,0.0947148,20.7848,474.432,0.162633,0.0,0.0
2070,517.25,19.973,22.1426,167.198,101.53,99.7937,0.000366826,0.0948074,20.7831,474.402,0.158259,0.0,0.0
2080,519.75,20.5337,21.8539,173.34,101.575,99.816,0.000540008,0.0952285,20.7817,474.412,0.160343,0.0,0.0
2090,522.25,20.5139,22.1074,167.756,101.617,99.7582,0.000583324,0.0956987,20.7791,474.432,0.169381,0.0,0.0
2100,524.75,20.0721,22.0443,163.98,101.642,99.6598,0.000538317,0.0962806,20.7773,474.422,0.180742,0.0,0.0
2110,527.25,20.4666,22.6431,165.144,101.674,100.119,0.00046046,0.0965644,20.7744,474.432,0.141367,0.0,0.0
2120,529.75,19.9656,22.1263,164.9,101.695,100.114,0.000535693,0.0968943,20.773,474.412,0.143765,0.0,0.0
2130,532.25,20.4166,22.3412,166.823,101.714,100.217,0.00081472,0.0969451,20.7723,474.402,0.13613,0.0,0.0
2140,534.75,20.2963,22.2787,163.543,101.718,99.674,0.00103819,0.0970255,20.7721,474.392,0.186242,0.0,0.0
2150,537.25,20.417,22.2505,171.097,101.724,100.142,0.000957899,0.0971919,20.773,474.402,0.143849,0.0,0.0
2160,539.75,20.9438,22.3911,161.068,101.723,100.179,0.000752687,0.0969817,20.7739,474.392,0.140347,0.0,0.0
2170,542.25,20.5512,22.1569,160.178,101.705,100.34,0.000695569,0.096845,20.7742,474.382,0.123998,0.0,0.0
2180,544.75,20.2763,22.1951,167.912,101.693,100.046,0.000570115,0.0977039,20.7744,474.372,0.149818,0.0,0.0
2190,547.25,21.2222,21.8692,169.864,101.694,99.6826,0.000481193,0.0996153,20.7734,474.372,0.183291,0.0,0.0
2200,549.75,20.7228,22.1992,167.271,101.669,99.9828,0.000438468,0.0994588,20.7737,474.352,0.153504,0.0,0.0
2210,552.25,20.6313,22.8211,165.232,101.643,100.078,0.000417548,0.098501,20.7747,474.332,0.142462,0.0,0.0
2220,554.75,20.3449,22.2757,166.807,101.603,100.124,0.00042348,0.0977643,20.775,474.322,0.134501,0.0,0.0
2230,557.25,20.6973,22.3133,162.387,101.563,99.9422,0.00040358,0.0980497,20.774,474.332,0.147588,0.0,0.0
2240,559.75,20.8068,22.1252,165.983,101.537,99.4336,0.000414967,0.0989036,20.7733,474.302,0.192057,0.0,0.0
2250,562.25,20.9704,22.4647,164.356,101.487,99.8104,0.000417904,0.0994495,20.7726,474.332,0.152883,0.0,0.0
2260,564.75,20.3301,22.4961,167.722,101.457,99.6912,0.000452336,0.0991594,20.7722,474.332,0.161087,0.0,0.0
2270,567.25,20.7851,22.1233,162.829,101.401,99.6253,0.000591503,0.0986136,20.7724,474.322,0.162122,0.0,0.0
2280,569.75,20.6231,22.7508,166.021,101.353,100.098,0.000813416,0.098846,20.7726,474.302,0.114322,0.0,0.0
2290,572.25,20.8706,22.4849,167.566,101.314,99.5619,0.000910945,0.0991981,20.7708,474.292,0.16005,0.0,0.0
2300,574.75,20.7964,22.4822,167.798,101.258,99.4762,0.000744805,0.0999457,20.7689,474.292,0.162911,0.0,0.0
2310,577.25,20.3314,22.4748,169.639,101.225,99.6872,0.000565253,0.10075,20.7661,474.272,0.140484,0.0,0.0
2320,579.75,20.4333,22.1256,163.093,101.169,99.4686,0.000549382,0.101067,20.765,474.282,0.155578,0.0,0.0
2330,582.25,20.9676,22.474,164.173,101.106,99.3748,0.00056552,0.101175,20.7647,474.252,0.158515,0.0,0.0
2340,584.75,20.5465,22.3981,162.347,101.064,99.672,0.000600028,0.101484,20.7632,474.252,0.127301,0.0,0.0
2350,587.25,20.0771,22.4029,162.724,101.013,99.4235,0.000592453,0.10169,20.7619,474.262,0.145562,0.0,0.0
2360,589.75,20.0484,22.6399,165.494,100.948,99.3758,0.000473518,0.101918,20.7605,474.272,0.144008,0.0,0.0
2370,592.25,20.2947,22.2605,164.196,100.886,98.9326,0.000577833,0.102497,20.76,474.262,0.1794,0.0,0.0
2380,594.75,20.4394,21.5319,168.222,100.817,99.0858,0.000773628,0.102547,20.7597,474.232,0.158944,0.0,0.0
2390,597.25,20.332,22.3189,167.282,100.781,99.098,0.000775085,0.102237,20.7597,474.252,0.154552,0.0,0.0
2400,599.75,20.398,22.7051,162.474,100.775,99.0833,0.000705938,0.10177,20.7622,474.252,0.15535,0.0,0.0
2410,602.25,20.5122,22.0694,157.682,100.777,99.2247,0.000679652,0.10116,20.7638,474.242,0.142446,0.0,0.0
2420,604.75,20.4583,22.351,167.01,100.78,99.0711,0.000610208,0.101167,20.7655,474.242,0.156966,0.0,0.0
2430,607.25,20.6681,22.4861,167.72,100.789,99.1918,0.000416539,0.101192,20.7662,474.222,0.146583,0.0,0.0
2440,609.75,20.0722,22.6395,170.055,100.788,99.1243,0.000318426,0.101,20.7664,474.232,0.152749,0.0,0.0
2450,612.25,20.7683,22.1338,162.862,100.806,99.1289,0.000495364,0.100729,20.7665,474.232,0.15394,0.0,0.0
2460,614.75,20.801,22.4092,167.084,100.801,98.9783,0.000643361,0.100577,20.7653,474.222,0.167441,0.0,0.0
2470,617.25,20.4431,22.8911,167.777,100.812,99.2749,0.000540258,0.100619,20.7642,474.212,0.140994,0.0,0.0
2480,619.75,20.267,22.175,168.354,100.808,99.4377,0.00042381,0.100946,20.7638,474.182,0.125548,0.0,0.0
2490,622.25,20.3697,22.0226,167.261,100.831,99.102,0.000383183,0.101525,20.7625,474.222,0.158754,0.0,0.0
2500,624.75,20.1903,22.2199,168.682,100.828,99.2693,0.000446614,0.102395,20.7611,474.162,0.142973,0.0,0.0
2510,627.25,21.1432,22.5978,167.572,100.845,99.1253,0.000493357,0.103973,20.7597,474.212,0.15787,0.0,0.0
2520,629.75,20.6799,22.132,166.989,100.861,99.207,0.000444918,0.103988,20.7606,474.192,0.151703,0.0,0.0
2530,632.25,20.4209,22.0433,163.373,100.858,99.2704,0.000357464,0.103113,20.7603,474.182,0.14558,0.0,0.0
2540,634.75,21.2593,22.257,167.898,100.875,99.5832,0.000291641,0.102478,20.7594,474.162,0.118242,0.0,0.0
2550,637.25,20.7747,22.2662,166.502,100.881,99.2937,0.000183164,0.102015,20.7591,474.142,0.145524,0.0,0.0
2560,639.75,20.5931,22.7314,165.679,100.896,99.1182,0.00013791,0.101757,20.758,474.152,0.163102,0.0,0.0
2570,642.25,20.2112,22.171,169.394,100.899,99.3444,0.000166554,0.101709,20.7575,474.152,0.142526,0.0,0.0
2580,644.75,20.6981,22.4204,171.87,100.907,98.9195,0.0002054,0.101872,20.7561,474.172,0.182571,0.0,0.0
2590,647.25,20.5407,21.6999,162.842,100.912,99.2775,0.000354373,0.101878,20.7563,474.142,0.149872,0.0,0.0
2600,649.75,20.3776,22.3022,167.149,100.93,99.2151,0.000461829,0.101569,20.7579,474.132,0.157251,0.0,0.0
2610,652.25,20.3731,22.1656,168.653,100.93,99.1132,0.000549412,0.101319,20.759,474.132,0.166682,0.0,0.0
2620,654.75,20.4249,22.0731,165.792,100.942,99.1771,0.00059057,0.100794,20.7607,474.132,0.161818,0.0,0.0
2630,657.25,20.3637,22.3506,162.385,100.944,99.3206,0.000380756,0.100401,20.7615,474.112,0.148775,0.0,0.0
2640,659.75,19.8885,21.6484,162.112,100.944,99.2998,0.00027493,0.100322,20.7618,474.112,0.150658,0.0,0.0
2650,662.25,20.8383,21.9684,166.44,100.975,99.3363,0.000317573,0.100405,20.762,474.122,0.15017,0.0,0.0
2660,664.75,20.7962,21.612,167.665,100.96,99.2354,0.000431198,0.100639,20.7628,474.122,0.158072,0.0,0.0
2670,667.25,20.452,22.6057,166.038,100.971,99.2486,0.000409692,0.100797,20.7617,474.102,0.157902,0.0,0.0
2680,669.75,20.6786,22.5253,169.045,100.982,99.3971,0.000439139,0.100794,20.7612,474.082,0.145112,0.0,0.0
2690,672.25,20.6476,22.1999,167.903,100.991,99.3581,0.000505472,0.100736,20.7598,474.112,0.14958,0.0,0.0
2700,674.75,20.1827,22.8936,171.712,100.987,99.2937,0.000475808,0.10073,20.7592,474.102,0.155192,0.0,0.0
2710,677.25,20.3473,22.7394,163.503,101.018,99.4458,0.000376639,0.100625,20.7603,474.092,0.143916,0.0,0.0
2720,679.75,19.9301,21.4849,166.849,101.012,99.2577,0.000322125,0.100432,20.7609,474.082,0.160804,0.0,0.0
2730,682.25,20.1003,21.7901,164.507,101.042,99.4007,0.000315646,0.100081,20.7623,474.042,0.150252,0.0,0.0
2740,684.75,20.596,21.9738,163.74,101.041,99.4377,0.000175086,0.0994973,20.7635,474.042,0.146797,0.0,0.0
2750,687.25,20.6371,21.5532,164.203,101.066,99.4367,8.67425e-05,0.0991252,20.7642,474.032,0.149175,0.0,0.0
2760,689.75,20.4387,22.0534,164.078,101.071,99.4281,0.00028662,0.0990094,20.764,474.062,0.150345,0.0,0.0
2770,692.25,21.1048,22.1998,165.773,101.074,99.3804,0.000421574,0.0993309,20.7628,474.042,0.155044,0.0,0.0
2780,694.75,20.3827,22.617,168.422,101.096,99.5954,0.00046827,0.0995959,20.7611,474.032,0.137234,0.0,0.0
2790,697.25,20.8496,22.6719,163.962,101.106,99.0305,0.000415112,0.100066,20.7603,474.032,0.190325,0.0,0.0
2800,699.75,20.711,22.2466,167.183,101.107,99.5695,0.000235994,0.100397,20.759,474.011,0.14059,0.0,0.0
2810,702.25,21.0775,22.0207,169.9,101.117,99.5127,0.000203493,0.100681,20.7581,474.021,0.146723,0.0,0.0
2820,704.75,20.3333,22.4705,164.845,101.127,99.6284,0.000340562,0.100967,20.7564,474.011,0.137041,0.0,0.0
2830,707.25,20.1369,22.7131,164.828,101.127,99.5513,0.000446601,0.101473,20.7554,473.991,0.144142,0.0,0.0
2840,709.75,20.4889,22.0931,166.231,101.137,99.3723,0.000548665,0.101996,20.7537,474.001,0.161554,0.0,0.0
2850,712.25,20.7295,22.5398,164.66,101.133,99.5001,0.000719862,0.10259,20.7524,474.001,0.149388,0.0,0.0
2860,714.75,20.9145,22.7018,167.77,101.151,99.6339,0.000693121,0.102618,20.7519,473.991,0.138658,0.0,0.0
2870,717.25,20.819,22.2817,164.994,101.144,99.4052,0.000603424,0.102622,20.7517,473.981,0.15911,0.0,0.0
2880,719.75,20.8782,22.2846,164.076,101.162,99.6329,0.000589833,0.102712,20.7515,473.961,0.139725,0.0,0.0
2890,722.25,20.9247,22.8985,168.463,101.156,99.5422,0.000662698,0.103177,20.751,473.971,0.147565,0.0,0.0
2900,724.75,20.5308,22.3671,163.863,101.173,98.4266,0.000966037,0.10335,20.752,473.951,0.252552,0.0,0.0
2910,727.25,21.195,22.3719,161.578,101.173,99.5756,0.00110212,0.103169,20.7527,473.951,0.14605,0.0,0.0
2920,729.75,20.2756,22.0683,161.136,101.187,99.7987,0.000966275,0.102987,20.753,473.931,0.126747,0.0,0.0
2930,732.25,21.5416,22.6195,165.827,101.197,99.4357,0.000760503,0.102816,20.7523,473.961,0.161087,0.0,0.0
2940,734.75,20.6955,22.5211,167.125,101.218,99.6557,0.000604955,0.103041,20.75,473.941,0.142707,0.0,0.0
2950,737.25,20.5818,22.2208,166.086,101.205,99.4412,0.000538155,0.103288,20.7476,473.951,0.161357,0.0,0.0
2960,739.75,21.0919,22.5557,164.143,101.207,99.78,0.000490104,0.10334,20.7465,473.941,0.130303,0.0,0.0
2970,742.25,20.9253,22.4803,163.118,101.218,99.673,0.000504104,0.10352,20.7462,473.911,0.141119,0.0,0.0
2980,744.75,20.9348,22.4353,172.705,101.209,99.6679,0.000479458,0.103808,20.7461,473.941,0.140839,0.0,0.0
2990,747.25,20.8883,22.6316,166.26,101.231,99.6781,0.000414009,0.10373,20.7465,473.921,0.141885,0.0,0.0
3000,749.75,21.0345,22.6485,165.333,101.226,99.6355,0.000469275,0.103568,20.7477,473.911,0.145283,0.0,0.0
3010,752.25,20.4925,22.3684,169.251,101.243,99.7201,0.000597368,0.103383,20.7495,473.921,0.139095,0.0,0.0
3020,754.75,20.6879,22.6273,164.87,101.235,99.7227,0.00067916,0.10305,20.7506,473.901,0.138078,0.0,0.0
3030,757.25,20.6397,22.869,165.637,101.251,99.0209,0.000654472,0.102898,20.7498,473.911,0.204414,0.0,0.0
3040,759.75,20.1387,22.4386,161.721,101.242,99.4321,0.000541223,0.102983,20.749,473.901,0.165525,0.0,0.0
3050,762.25,20.3374,22.1544,163.851,101.261,99.5705,0.000476494,0.103118,20.7475,473.911,0.154476,0.0,0.0
3060,764.75,20.1339,22.068,167.039,101.261,99.8028,0.000542649,0.103169,20.7481,473.891,0.133098,0.0,0.0
3070,767.25,20.7625,21.8364,164.306,101.263,99.7394,0.000629851,0.103083,20.7487,473.891,0.139153,0.0,0.0
3080,769.75,20.8003,22.9245,170.108,101.267,99.6644,0.000566705,0.10283,20.7489,473.851,0.146396,0.0,0.0
3090,772.25,21.314,21.8578,163.929,101.275,99.5847,0.000551441,0.102667,20.7489,473.861,0.154401,0.0,0.0
3100,774.75,20.1929,21.9509,165.348,101.28,99.7272,0.000526508,0.102556,20.7489,473.841,0.141803,0.0,0.0
3110,777.25,20.5693,22.3875,166.803,101.282,99.6527,0.000391256,0.102613,20.7499,473.841,0.148851,0.0,0.0
3120,779.75,20.7323,22.0174,162.018,101.285,99.5853,0.00046089,0.102438,20.7519,473.811,0.155287,0.0,0.0
3130,782.25,20.7063,22.2723,167.08,101.294,99.6801,0.000672143,0.10229,20.7526,473.841,0.147376,0.0,0.0
3140,784.75,20.9133,22.6172,164.462,101.301,99.6912,0.000612974,0.102141,20.7528,473.831,0.147021,0.0,0.0
3150,787.25,20.7302,22.2172,168.025,101.285,98.9245,0.00047315,0.102055,20.7529,473.841,0.216409,0.0,0.0
3160,789.75,20.7768,22.2896,170.281,101.304,99.7501,0.000410374,0.101931,20.7529,473.811,0.141832,0.0,0.0
3170,792.25,20.6994,22.5189,164.515,101.289,99.743,0.000396693,0.101821,20.7529,473.821,0.141178,0.0,0.0
3180,794.75,20.583,22.3557,167.181,101.309,99.9808,0.000248891,0.101908,20.7541,473.791,0.12108,0.0,0.0
3190,797.25,20.8656,22.3281,166.443,101.293,99.4671,0.000148065,0.10181,20.7538,473.781,0.166928,0.0,0.0
3200,799.75,21.0535,22.3701,168.564,101.304,99.8545,0.000191624,0.101944,20.7531,473.801,0.132228,0.0,0.0
3210,802.25,20.1859,21.7965,167.004,101.302,99.7998,0.000357301,0.102032,20.7519,473.781,0.137113,0.0,0.0
3220,804.75,20.5291,22.6691,165.01,101.305,99.7653,0.000524779,0.102231,20.7505,473.791,0.140583,0.0,0.0
3230,807.25,20.595,22.0078,163.735,101.298,99.4225,0.000667111,0.102308,20.7493,473.811,0.171456,0.0,0.0
3240,809.75,20.3736,22.0387,163.399,101.308,99.7673,0.000741921,0.102413,20.748,473.761,0.140657,0.0,0.0
3250,812.25,21.04,22.5296,168.277,101.308,99.5893,0.000785708,0.102615,20.7475,473.761,0.157041,0.0,0.0
3260,814.75,21.1737,22.0956,167.155,101.315,99.7176,0.000761522,0.10252,20.7486,473.781,0.14579,0.0,0.0
3270,817.25,20.4831,22.397,168.707,101.317,99.5249,0.000581847,0.102448,20.7492,473.791,0.163761,0.0,0.0
3280,819.75,20.7285,22.2155,166.742,101.299,99.4991,0.00055731,0.102272,20.7495,473.761,0.164541,0.0,0.0
3290,822.25,20.9192,21.987,165.189,101.319,99.5655,0.000618931,0.102184,20.7496,473.761,0.160208,0.0,0.0
3300,824.75,20.4073,22.224,166.36,101.311,99.5858,0.000682261,0.102185,20.7495,473.731,0.157594,0.0,0.0
3310,827.25,20.3945,22.0049,162.646,101.317,99.5376,0.000769286,0.102242,20.7493,473.731,0.162556,0.0,0.0
3320,829.75,20.8609,22.5344,164.033,101.303,99.6649,0.000862436,0.102544,20.7492,473.731,0.14956,0.0,0.0
3330,832.25,21.1041,22.7864,166.582,101.317,99.4757,0.000965357,0.102841,20.7485,473.771,0.168298,0.0,0.0
3340,834.75,20.6955,22.87,163.824,101.321,99.8418,0.000980253,0.103117,20.7469,473.741,0.134923,0.0,0.0
3350,837.25,20.2843,22.3336,166.966,101.306,99.818,0.000859311,0.10324,20.7459,473.701,0.135808,0.0,0.0
3360,839.75,20.6059,22.4209,167.072,101.301,99.6258,0.000764066,0.103397,20.7441,473.741,0.152969,0.0,0.0
3370,842.25,20.576,22.7493,169.114,101.306,99.7921,0.000574214,0.103551,20.7434,473.721,0.138185,0.0,0.0
3380,844.75,20.7054,22.5112,166.797,101.313,99.961,0.00025365,0.103717,20.7432,473.701,0.123307,0.0,0.0
3390,847.25,20.6117,22.486,163.256,101.309,99.8555,3.32431e-05,0.103453,20.7443,473.701,0.132583,0.0,0.0
3400,849.75,20.4902,21.9274,166.511,101.321,98.9048,0.000211208,0.103235,20.7454,473.721,0.221455,0.0,0.0
3410,852.25,21.1064,22.4246,167.393,101.313,99.5949,0.00032422,0.103147,20.7458,473.691,0.156939,0.0,0.0
3420,854.75,20.4137,22.4112,163.894,101.301,99.7561,0.000238688,0.103061,20.7459,473.701,0.141011,0.0,0.0
3430,857.25,21.0618,22.7624,164.205,101.305,99.9103,0.00024295,0.102743,20.7469,473.691,0.127216,0.0,0.0
3440,859.75,20.4454,22.4611,166.599,101.291,99.458,0.000263331,0.102645,20.7473,473.681,0.167546,0.0,0.0
3450,862.25,20.5671,22.0695,164.388,101.275,99.7247,0.000264797,0.102578,20.7474,473.681,0.141514,0.0,0.0
3460,864.75,20.8125,22.5256,171.26,101.275,99.6938,0.000281662,0.102194,20.7474,473.661,0.144397,0.0,0.0
3470,867.25,20.1997,22.3174,164.197,101.268,99.4742,0.000439314,0.101981,20.7479,473.671,0.163995,0.0,0.0
3480,869.75,20.8771,22.5111,167.792,101.279,99.886,0.000516431,0.102054,20.7471,473.681,0.127062,0.0,0.0
3490,872.25,21.1317,22.4012,166.222,101.267,99.8474,0.000458219,0.101986,20.7464,473.661,0.12952,0.0,0.0
3500,874.75,20.6775,22.4197,166.227,101.282,99.5315,0.00031056,0.10195,20.745,473.671,0.159943,0.0,0.0
3510,877.25,20.8722,22.1709,169.516,101.276,99.7592,0.000176086,0.102515,20.7429,473.651,0.13849,0.0,0.0
3520,879.75,20.6198,22.3013,168.299,101.268,99.6943,0.000313748,0.102958,20.7419,473.641,0.143753,0.0,0.0
3530,882.25,20.9157,22.8335,166.119,101.28,99.6846,0.000466846,0.103173,20.7416,473.661,0.145686,0.0,0.0
3540,884.75,21.392,22.1619,165.104,101.271,99.7404,0.000348716,0.10322,20.7414,473.621,0.139768,0.0,0.0
3550,887.25,20.6258,22.5319,164.328,101.261,99.6796,0.000322631,0.103467,20.7414,473.611,0.144435,0.0,0.0
3560,889.75,20.7281,22.2819,169.705,101.268,99.7338,0.000435476,0.103957,20.7414,473.611,0.14004,0.0,0.0
3570,892.25,20.9316,22.3152,164.435,101.287,99.4986,0.000438548,0.103862,20.7414,473.611,0.163429,0.0,0.0
3580,894.75,20.3909,22.9378,163.529,101.272,99.7206,0.000416458,0.103644,20.7436,473.601,0.141625,0.0,0.0
3590,897.25,20.4572,22.2088,165.622,101.286,99.5716,0.000376003,0.103224,20.744,473.591,0.156624,0.0,0.0
3600,899.75,20.9694,22.0675,163.664,101.295,99.5579,0.000376292,0.102971,20.7452,473.621,0.158745,0.0,0.0
3610,902.25,20.8264,21.9277,165.634,101.292,99.496,0.00050737,0.102781,20.746,473.601,0.164187,0.0,0.0
3620,904.75,20.8356,22.5714,170.145,101.298,99.5406,0.000539442,0.10269,20.7463,473.591,0.160558,0.0,0.0
3630,907.25,20.3458,22.5938,167.711,101.297,99.8449,0.000449348,0.102646,20.7462,473.601,0.132517,0.0,0.0
3640,909.75,20.3515,22.6677,164.48,101.305,99.6917,0.000325573,0.102537,20.7445,473.591,0.147311,0.0,0.0
3650,912.25,20.8411,21.95,167.842,101.301,99.7414,0.000203691,0.1025,20.7444,473.571,0.142326,0.0,0.0
3660,914.75,21.0009,22.8108,162.678,101.322,99.7288,7.42497e-05,0.102584,20.7452,473.571,0.145472,0.0,0.0
3670,917.25,21.1289,21.7927,172.858,101.315,99.6187,0.000121133,0.102669,20.7462,473.561,0.154893,0.0,0.0
3680,919.75,20.5383,22.5143,171.47,101.307,99.2937,0.000345427,0.102986,20.7462,473.561,0.184172,0.0,0.0
3690,922.25,20.8349,22.5465,163.261,101.32,99.5087,0.000538961,0.103237,20.746,473.571,0.165519,0.0,0.0
3700,924.75,20.6867,22.6093,169.477,101.331,99.7425,0.000409193,0.103127,20.7472,473.571,0.145034,0.0,0.0
3710,927.25,21.2191,22.5947,169.201,101.323,99.7724,0.000313449,0.102759,20.749,473.551,0.141497,0.0,0.0
3720,929.75,20.3557,22.2303,162.501,101.326,99.7729,0.000423746,0.102233,20.7498,473.561,0.141712,0.0,0.0
3730,932.25,20.9614,22.0459,163.358,101.331,99.8464,0.000516028,0.101801,20.7497,473.561,0.135437,0.0,0.0
3740,934.75,20.7874,22.414,168.021,101.341,99.7779,0.000507979,0.101983,20.7487,473.531,0.14259,0.0,0.0
3750,937.25,20.9984,22.2635,166.107,101.335,99.853,0.000497246,0.102356,20.7468,473.551,0.135204,0.0,0.0
3760,939.75,20.7936,22.7844,167.749,101.35,99.7927,0.000648256,0.102617,20.745,473.561,0.142095,0.0,0.0
3770,942.25,21.1007,22.0939,161.323,101.341,99.567,0.00085054,0.102869,20.7437,473.551,0.16201,0.0,0.0
3780,944.75,20.6857,22.5506,164.862,101.348,100.035,0.000821384,0.102924,20.7419,473.491,0.119658,0.0,0.0
3790,947.25,20.4444,22.4767,161.114,101.338,99.9899,0.000648975,0.103147,20.7413,473.511,0.122855,0.0,0.0
3800,949.75,20.8054,22.5837,159.866,101.344,99.2729,0.000535064,0.103317,20.7419,473.531,0.189454,0.0,0.0
3810,952.25,20.7969,22.3855,165.283,101.337,99.8991,0.000458885,0.103213,20.7428,473.481,0.131152,0.0,0.0
3820,954.75,21.271,22.2581,165.725,101.35,99.8915,0.000388203,0.102715,20.7434,473.491,0.133007,0.0,0.0
3830,957.25,20.8821,23.0761,167.811,101.348,99.8023,0.000280103,0.102409,20.7448,473.501,0.141023,0.0,0.0
3840,959.75,20.8859,22.4517,161.218,101.351,99.8388,0.000124058,0.102319,20.7453,473.481,0.137966,0.0,0.0
3850,962.25,20.8674,23.0204,166.613,101.347,99.7977,0.000113262,0.102328,20.7455,473.491,0.141331,0.0,0.0
3860,964.75,20.4687,22.4934,168.641,101.345,99.8647,0.000242848,0.102463,20.7464,473.461,0.13503,0.0,0.0
3870,967.25,20.9757,23.2695,164.006,101.371,99.6674,0.000433704,0.102856,20.7455,473.471,0.155524,0.0,0.0
3880,969.75,20.9074,22.3532,168.185,101.341,99.9138,0.00048925,0.103064,20.7449,473.451,0.130176,0.0,0.0
3890,972.25,20.6959,22.7703,167.652,101.351,99.6106,0.000433304,0.103214,20.7442,473.471,0.158962,0.0,0.0
3900,974.75,21.1527,22.1262,170.488,101.341,100.021,0.000329879,0.103833,20.7423,473.451,0.120233,0.0,0.0
3910,977.25,20.9656,22.5843,166.222,101.351,99.6999,0.000246186,0.104767,20.7386,473.451,0.150744,0.0,0.0
3920,979.75,20.9868,22.6708,161.463,101.349,99.8763,0.000394912,0.106361,20.7346,473.451,0.134294,0.0,0.0
3930,982.25,20.6541,22.554,164.922,101.353,99.5082,0.000548244,0.107934,20.7326,473.461,0.168552,0.0,0.0
3940,984.75,20.8265,22.4743,166.553,101.343,99.8581,0.000495401,0.108791,20.732,473.421,0.135449,0.0,0.0
3950,987.25,20.9636,22.4882,161.505,101.351,100.043,0.000361658,0.109305,20.7316,473.431,0.119202,0.0,0.0
3960,989.75,20.7742,22.4464,162.733,101.341,99.6248,0.000446927,0.109328,20.7314,473.401,0.156759,0.0,0.0
3970,992.25,20.8295,22.4895,165.455,101.348,99.2947,0.000594251,0.110691,20.7295,473.411,0.187774,0.0,0.0
3980,994.75,20.634,22.3785,162.428,101.35,95.4059,0.00139267,0.120411,20.7133,473.331,0.554636,0.0,1.0
3990,997.25,21.7658,24.4122,157.141,101.346,89.6916,0.00356278,0.161513,20.6354,473.171,1.12101,0.0,1.0
4000,999.75,21.7814,24.8718,155.068,101.345,82.7984,0.00785501,0.236608,20.5232,472.8,1.85466,0.0,1.0
4010,1002.25,24.1197,28.9428,144.576,101.339,71.0326,0.0142138,0.36091,20.3505,472.06,3.26059,0.0,0.0
4020,1004.75,27.0035,33.8719,143.382,101.35,72.4961,0.0185626,0.500996,20.1991,471.699,3.07447,0.0,0.0
4030,1007.25,29.862,37.2372,154.281,101.338,78.4923,0.0201126,0.57793,20.1418,471.299,2.34418,0.0,0.0
4040,1009.75,31.6365,40.5999,150.75,101.339,75.248,0.0201295,0.605845,20.1303,470.889,2.73159,0.0,0.0
4050,1012.25,32.2654,41.508,161.201,101.323,83.4353,0.0192771,0.593201,20.1893,470.708,1.78237,0.0,0.0
4060,1014.75,32.7714,41.7387,155.165,101.336,86.4174,0.0175841,0.552323,20.2555,470.478,1.46128,0.0,0.0
4070,1017.25,32.3416,41.0869,158.805,101.325,90.1465,0.0150667,0.50163,20.329,470.318,1.07269,0.0,0.0
4080,1019.75,31.9282,39.7529,157.744,101.317,90.6941,0.0122743,0.447372,20.3982,470.178,1.01636,0.0,0.0
4090,1022.25,30.5127,38.7532,159.657,101.318,88.4397,0.0102215,0.408524,20.4331,469.998,1.24742,0.0,0.0
4100,1024.75,30.6745,37.7925,158.423,101.289,92.4532,0.00820804,0.373017,20.4729,469.928,0.837591,0.0,0.0
4110,1027.25,29.6786,36.6461,162.997,101.304,94.8253,0.00628235,0.337178,20.516,469.888,0.606468,0.0,0.0
4120,1029.75,29.1321,34.9538,161.136,101.286,97.3252,0.0045997,0.297305,20.5586,469.778,0.366048,0.0,0.0
4130,1032.25,28.3933,33.7604,166.447,101.275,99.6385,0.00351796,0.258322,20.5985,469.828,0.149486,0.0,0.0
4140,1034.75,27.7005,32.6149,165.952,101.261,100.054,0.00268368,0.223184,20.6345,469.798,0.110087,0.0,0.0
4150,1037.25,26.4597,31.562,167.411,101.248,100.488,0.00207148,0.1944,20.6653,469.838,0.0691324,0.0,0.0
4160,1039.75,26.4463,29.6722,167.401,101.23,100.491,0.00167865,0.172396,20.6875,469.848,0.0671639,0.0,0.0
4170,1042.25,25.6726,28.8831,161.196,101.221,100.469,0.00137269,0.156624,20.7021,469.858,0.0684256,0.0,0.0
4180,1044.75,25.0942,28.0562,163.851,101.199,100.387,0.00102723,0.145733,20.71,469.858,0.0739048,0.0,0.0
4190,1047.25,24.2994,26.9406,166.828,101.197,100.403,0.000785934,0.137262,20.7177,469.888,0.0723096,0.0,0.0
4200,1049.75,23.5061,25.6286,166.837,101.175,100.395,0.000645434,0.129701,20.7228,469.908,0.0710788,0.0,0.0
4210,1052.25,22.7399,24.232,164.903,101.165,100.336,0.000488419,0.123294,20.7258,469.878,0.0754759,0.0,0.0
4220,1054.75,22.3223,25.0351,164.777,101.142,100.506,0.000325311,0.118188,20.7289,469.868,0.0578595,0.0,0.0
4230,1057.25,22.3061,23.7065,165.611,101.138,100.367,0.000220272,0.114673,20.7304,469.898,0.0701789,0.0,0.0
4240,1059.75,21.6459,24.1382,163.712,101.116,100.33,0.000209117,0.112046,20.731,469.898,0.0716193,0.0,0.0
4250,1062.25,21.6537,23.2092,166.187,101.1,100.18,0.000116699,0.110088,20.7314,469.888,0.0839073,0.0,0.0
4260,1064.75,21.0224,22.5834,160.772,101.086,100.312,-7.37902e-06,0.1087,20.7328,469.908,0.0705122,0.0,0.0
4270,1067.25,21.6929,23.0002,166.4,101.068,100.352,-8.97676e-05,0.107702,20.732,469.898,0.0652481,0.0,0.0
4280,1069.75,21.6203,22.2825,170.127,101.054,100.261,-0.000128851,0.107025,20.7315,469.878,0.0722792,0.0,0.0
4290,1072.25,21.3692,22.5754,168.9,101.023,100.1,1.75492e-05,0.10665,20.7311,469.918,0.0841577,0.0,0.0
4300,1074.75,20.864,21.6994,164.42,101.021,100.201,0.000285798,0.106631,20.7297,469.878,0.0748,0.0,0.0
4310,1077.25,20.805,22.1179,166.65,100.986,100.221,0.000320263,0.10651,20.7292,469.898,0.0698055,0.0,0.0
4320,1079.75,21.2339,21.8979,165.495,100.983,100.256,0.000173849,0.106471,20.729,469.898,0.0663027,0.0,0.0
4330,1082.25,20.4856,21.961,164.861,100.969,100.207,4.85779e-05,0.106644,20.7285,469.898,0.0694939,0.0,0.0
4340,1084.75,20.9338,21.5752,160.854,100.97,100.238,3.79775e-05,0.10694,20.7273,469.888,0.0667751,0.0,0.0
4350,1087.25,19.8389,21.444,165.625,100.933,100.246,0.000101826,0.107049,20.7268,469.888,0.0626986,0.0,0.0
4360,1089.75,20.1677,21.9011,169.895,100.941,100.129,0.00016181,0.106972,20.7267,469.888,0.0741392,0.0,0.0
4370,1092.25,20.1961,21.6627,171.421,100.911,100.191,8.89553e-05,0.10709,20.7266,469.908,0.0656891,0.0,0.0
4380,1094.75,20.3296,21.5657,160.864,100.905,100.094,0.000203921,0.107147,20.7251,469.898,0.0740383,0.0,0.0
4390,1097.25,19.9406,21.779,163.013,100.88,100.192,0.000352133,0.107443,20.7241,469.888,0.0627932,0.0,0.0
4400,1099.75,20.0869,21.1686,161.587,100.89,100.007,0.000310092,0.10756,20.7227,469.908,0.0806593,0.0,0.0
4410,1102.25,20.311,21.3258,166.736,100.857,100.056,0.000356444,0.107794,20.7222,469.898,0.0731854,0.0,0.0
4420,1104.75,19.5441,21.4361,168.51,100.853,99.9585,0.000505205,0.108114,20.7221,469.898,0.0817435,0.0,0.0
4430,1107.25,19.081,20.5596,168.247,100.836,99.9204,0.00036441,0.108388,20.722,469.908,0.083736,0.0,0.0
4440,1109.75,19.9389,21.5013,168.856,100.831,100.102,0.000104196,0.108598,20.72,469.918,0.0665536,0.0,0.0
4450,1112.25,19.2838,20.788,169.1,100.815,100.032,9.04301e-06,0.109011,20.7183,469.908,0.0715075,0.0,0.0
4460,1114.75,20.1024,21.0233,164.07,100.795,99.9529,-3.78023e-05,0.109412,20.7177,469.908,0.0770034,0.0,0.0
4470,1117.25,19.8718,21.2084,167.925,100.789,99.9311,4.92532e-05,0.109483,20.7175,469.918,0.0784807,0.0,0.0
4480,1119.75,20.2607,20.5733,161.539,100.764,99.9377,0.000191281,0.109571,20.7177,469.918,0.0755855,0.0,0.0
4490,1122.25,19.6963,21.159,166.961,100.762,99.9935,0.000284756,0.109601,20.718,469.888,0.0702408,0.0,0.0
4500,1124.75,20.0936,20.7703,163.172,100.724,99.9438,0.000275269,0.109362,20.7181,469.908,0.0713849,0.0,0.0
4510,1127.25,19.5696,20.5304,165.022,100.738,99.8981,0.000105539,0.108984,20.7196,469.918,0.0768146,0.0,0.0
4520,1129.75,19.3049,20.8257,170.002,100.713,100.261,6.50484e-05,0.108577,20.7208,469.908,0.0412819,0.0,0.0
4530,1132.25,19.4247,20.5934,168.869,100.707,99.9088,2.97024e-05,0.108195,20.7214,469.888,0.0729825,0.0,0.0
4540,1134.75,19.1611,20.2816,163.002,100.686,99.8449,7.85025e-05,0.108018,20.7216,469.908,0.0770131,0.0,0.0
4550,1137.25,19.3286,20.6309,165.734,100.675,99.922,0.000196951,0.108104,20.7217,469.898,0.0688794,0.0,0.0
4560,1139.75,19.3874,20.7899,165.424,100.662,100.009,0.000214763,0.108127,20.7218,469.888,0.0597094,0.0,0.0
4570,1142.25,19.5798,20.7029,164.518,100.635,99.925,9.11794e-05,0.107762,20.7224,469.908,0.064956,0.0,0.0
4580,1144.75,19.6879,20.8397,167.453,100.633,99.8875,8.43658e-06,0.107494,20.7235,469.898,0.0682519,0.0,0.0
4590,1147.25,19.5042,20.5455,167.669,100.591,99.8129,-3.02329e-05,0.107499,20.7234,469.898,0.0712677,0.0,0.0
4600,1149.75,19.0651,20.433,162.292,100.577,99.819,-4.25829e-06,0.107891,20.7221,469.918,0.0694288,0.0,0.0
4610,1152.25,19.0703,20.4655,164.269,100.532,99.8297,9.26993e-05,0.108197,20.7207,469.908,0.0643509,0.0,0.0
4620,1154.75,18.7378,20.5112,167.995,100.511,99.7212,0.000226464,0.108643,20.7196,469.918,0.0723747,0.0,0.0
4630,1157.25,19.0383,20.4866,168.827,100.495,99.6349,,0.108769,,469.908,0.0788798,0.0,0.0
4640,1159.75,18.9695,20.6744,164.08,100.459,99.7556,,,,469.898,0.0644585,0.0,0.0
4650,1162.25,19.2922,20.9723,171.07,100.443,99.5792,,,,469.888,0.0792745,0.0,0.0
4660,1164.75,18.8578,20.5734,167.44,100.412,99.4108,,,,469.898,0.0919768,0.0,0.0
4670,1167.25,18.9928,20.1208,169.984,100.383,99.4859,,,,469.898,0.0824146,0.0,0.0