File: 02_Data/Polyester_Batting/Cone/Polyester_Batting_Cone_HF50Scan_210326_R1.csv
Names,Time,Stack TC,Smoke TC,Exh Press,Smoke Comp,Smoke Meas,CO Meter,CO2 Meter,O2 Meter,Sample Mass,Ext Coeff,Start Test,Flame Verif
Chan Gain,,500,500,1,1,1,1,1,1,1,1,1.0,1.0
Offset,,0,0,0.138348,0,0,0,0,0,0,0,0.0,0.0
Gain,,1,1,25.011,13.5067,16.616,1,1,1,1.00091,1.04608,1.0,1.0
Units,sec,C,C,Pa,%,%,%,%,%,g,/m,,
Baseline,,32.4263,34.4698,162.486,101.121,98.4176,-0.00137247,0.0456747,20.9619,0.00154307,0.248669,,
2,0.25,29.9177,32.0272,161.329,101.104,98.5544,-0.00132989,0.0467126,20.9586,474.382,0.234364,0.0,0.0
4,0.75,30.1674,32.1004,163.685,101.118,98.741,-0.00131162,0.0470276,20.9576,474.302,0.21824,0.0,0.0
6,1.25,30.0417,31.5118,162.677,101.122,98.1076,-0.00129683,0.0472826,20.9562,474.282,0.277699,0.0,0.0
8,1.75,30.1543,32.0136,161.984,101.116,98.4631,-0.00129337,0.0477074,20.9548,474.282,0.243951,0.0,0.0
10,2.25,30.2146,31.88,158.548,101.109,98.7998,-0.00129056,0.0482479,20.9535,474.312,0.211992,0.0,0.0
12,2.75,30.4368,32.2912,166.206,101.126,99.1025,-0.00129342,0.0486857,20.9526,474.312,0.185452,0.0,0.0
14,3.25,30.0745,32.131,160.592,101.127,98.7141,-0.00130035,0.0493882,20.9518,474.292,0.221636,0.0,0.0
16,3.75,30.6297,31.588,162.463,101.121,98.4068,-0.00130852,0.0499573,20.9511,474.272,0.249685,0.0,0.0
18,4.25,30.3047,32.1819,163.974,101.126,98.6355,-0.00131745,0.0506994,20.9506,474.252,0.228796,0.0,0.0
20,4.75,30.2789,32.3801,158.369,101.145,98.6005,-0.00132853,0.0513006,20.9499,474.252,0.23381,0.0,0.0
22,5.25,30.5395,32.3725,159.033,101.122,98.3515,-0.00134097,0.0519427,20.9492,474.262,0.254877,0.0,0.0
24,5.75,30.8576,32.1688,161.496,101.133,99.1593,-0.00135104,0.0526024,20.9486,474.242,0.180867,0.0,0.0
26,6.25,31.3992,32.3086,162.493,101.137,98.5366,-0.00137382,0.0532708,20.9479,474.222,0.239046,0.0,0.0
28,6.75,30.9304,32.6337,160.31,101.146,98.5006,-0.00139226,0.0539329,20.9471,474.222,0.243184,0.0,0.0
30,7.25,30.8542,32.0483,161.751,101.138,98.382,-0.00140528,0.054561,20.9467,474.222,0.253535,0.0,0.0
32,7.75,30.4369,32.9342,161.466,101.164,98.5209,-0.00140992,0.0551523,20.9459,474.222,0.242941,0.0,0.0
34,8.25,30.6815,32.5054,160.078,101.154,98.3794,-0.00141785,0.0556313,20.945,474.232,0.255192,0.0,0.0
36,8.75,30.5907,32.6522,158.212,101.149,97.957,-0.00140236,0.0562474,20.9443,474.232,0.294227,0.0,0.0
38,9.25,30.0765,32.6273,163.554,101.162,98.4621,-0.0013898,0.0567464,20.9433,474.222,0.248272,0.0,0.0
40,9.75,30.7422,32.5975,166.335,101.163,98.4555,-0.00136618,0.0572354,20.9425,474.222,0.248961,0.0,0.0
42,10.25,30.7816,32.9988,160.216,101.174,98.1893,-0.00133493,0.0574841,20.9418,474.222,0.274815,0.0,0.0
44,10.75,30.6573,32.9064,160.914,101.155,98.1959,-0.00129871,0.0579092,20.9413,474.232,0.272442,0.0,0.0
46,11.25,30.3413,32.7998,156.627,101.177,98.4839,-0.00125958,0.0583207,20.9408,474.222,0.247586,0.0,0.0
48,11.75,31.2712,33.2488,165.766,101.168,98.2516,-0.00122788,0.058654,20.9409,474.212,0.268427,0.0,0.0
50,12.25,30.9762,33.1434,164.534,101.172,97.9748,-0.00118874,0.0589523,20.941,474.212,0.294659,0.0,0.0
52,12.75,30.802,32.4725,160.49,101.173,98.3678,-0.00114492,0.0592193,20.9411,474.212,0.258038,0.0,0.0
54,13.25,30.9938,32.5077,160.345,101.188,98.6548,-0.00110943,0.0594427,20.9412,474.202,0.232687,0.0,0.0
56,13.75,30.8655,33.0451,157.67,101.176,98.3059,-0.00108068,0.05963,20.9413,474.192,0.264035,0.0,0.0
58,14.25,30.652,33.0091,165.331,101.182,98.3754,-0.00104035,0.0597817,20.9414,474.202,0.25815,0.0,0.0
60,14.75,30.7689,33.327,164.818,101.188,98.0676,-0.00100767,0.0598904,20.9415,474.212,0.287429,0.0,0.0
62,15.25,31.0101,33.1578,162.456,101.196,98.7374,-0.000976339,0.0599658,20.9416,474.212,0.225712,0.0,0.0
64,15.75,31.2514,33.4931,161.651,101.19,97.4195,-0.000950957,0.0600268,20.9416,474.192,0.348454,0.0,0.0
66,16.25,30.9391,33.4022,162.798,101.207,97.9591,-0.000931615,0.0600197,20.9419,474.202,0.299271,0.0,0.0
68,16.75,31.1527,33.5644,160.587,101.199,98.5229,-0.000915949,0.0599631,20.9423,474.202,0.245929,0.0,0.0
70,17.25,31.0308,33.2011,161.192,101.211,98.1558,-0.000909348,0.0599172,20.9429,474.202,0.281233,0.0,0.0
72,17.75,31.2201,33.7696,162.896,101.209,97.7907,-0.000904001,0.0598264,20.9436,474.192,0.315315,0.0,0.0
74,18.25,30.9312,33.4604,162.119,101.224,97.7481,-0.000904798,0.0597528,20.9444,474.202,0.320658,0.0,0.0
76,18.75,31.564,33.7722,160.037,101.226,97.7359,-0.000910059,0.0595724,20.9452,474.202,0.321913,0.0,0.0
78,19.25,31.2823,33.5317,164.545,101.226,97.8313,-0.000924576,0.0594262,20.9459,474.192,0.313041,0.0,0.0
80,19.75,31.2349,33.5594,162.927,101.229,98.1573,-0.000945564,0.0592584,20.9465,474.212,0.282735,0.0,0.0
82,20.25,31.2503,34.0217,162.613,101.243,97.6122,-0.000962564,0.059078,20.9469,474.212,0.335143,0.0,0.0
84,20.75,31.035,33.5789,159.74,101.236,97.5666,-0.000989154,0.0588612,20.9473,474.212,0.338763,0.0,0.0
86,21.25,31.349,33.4841,160.33,101.25,97.4809,-0.00102223,0.0586221,20.9476,474.212,0.348133,0.0,0.0
88,21.75,31.563,33.6347,160.824,101.238,97.6964,-0.00105094,0.0583367,20.9478,474.192,0.326748,0.0,0.0
90,22.25,31.6405,33.613,160.155,101.261,97.7958,-0.00107593,0.0580228,20.9484,474.182,0.319472,0.0,0.0
92,22.75,31.0746,33.7117,160.687,101.244,97.3891,-0.00108912,0.0577686,20.949,474.182,0.356216,0.0,0.0
94,23.25,31.3937,33.7524,167.885,101.264,97.4991,-0.00109346,0.0573616,20.9496,474.192,0.347685,0.0,0.0
96,23.75,31.5541,34.0024,163.301,101.266,97.4053,-0.00109698,0.057032,20.9504,474.192,0.356629,0.0,0.0
98,24.25,31.4988,33.5887,166.493,101.277,97.6797,-0.0010645,0.0566662,20.951,474.182,0.331831,0.0,0.0
100,24.75,31.5004,33.8874,162.32,101.266,97.0849,-0.0010382,0.056281,20.9514,474.192,0.38687,0.0,0.0
102,25.25,31.3467,33.9532,160.816,101.296,96.9748,-0.000981582,0.0559691,20.9518,474.172,0.400039,0.0,0.0
104,25.75,31.2923,34.0158,163.387,101.284,97.1061,-0.000935718,0.0555824,20.9522,474.162,0.386538,0.0,0.0
106,26.25,31.9844,33.8002,160.445,101.302,96.6919,-0.000865687,0.0552692,20.9524,474.162,0.427375,0.0,0.0
108,26.75,31.2928,34.2009,163.51,101.287,97.1148,-0.000808962,0.0549083,20.9526,474.152,0.385948,0.0,0.0
110,27.25,31.4973,33.9083,164.866,101.314,96.7487,-0.000763014,0.054616,20.9528,474.152,0.423108,0.0,0.0
112,27.75,31.8864,34.1826,163.501,101.3,95.6513,-0.000688044,0.0543863,20.9529,474.162,0.52647,0.0,0.0
114,28.25,31.7242,34.1212,162.789,101.314,95.661,-0.000627317,0.0542066,20.953,474.152,0.526853,0.0,0.0
116,28.75,31.711,34.162,163.503,101.316,95.7162,-0.000556208,0.0540892,20.9531,474.132,0.521739,0.0,0.0
118,29.25,31.6405,34.2642,160.645,101.345,95.7198,-0.00049861,0.0540195,20.9532,474.132,0.523974,0.0,0.0
120,29.75,31.8967,34.1943,161.441,101.322,95.9165,-0.000433369,0.0541182,20.9533,474.132,0.503079,0.0,0.0
122,30.25,32.1018,34.0165,164.15,101.343,95.664,-0.000363796,0.0543378,20.9524,474.112,0.529137,0.0,0.0
124,30.75,31.7735,34.1375,165.354,101.335,95.6807,-0.000285001,0.0545156,20.9517,474.092,0.526859,0.0,0.0
126,31.25,31.8357,33.9954,163.806,101.346,94.5616,-0.00020098,0.0551424,20.9496,474.062,0.635828,0.0,0.0
128,31.75,31.9363,33.6217,161.775,101.344,94.9171,-0.00010853,0.0556501,20.9478,474.062,0.601212,0.0,0.0
130,32.25,31.4718,34.3433,163.822,101.378,94.6093,-1.16921e-05,0.0562874,20.945,474.062,0.634115,0.0,0.0
132,32.75,31.5667,34.7573,162.746,101.364,94.5495,9.3101e-05,0.057007,20.9428,474.082,0.638613,0.0,0.0
134,33.25,32.2134,34.2718,161.3,101.374,94.4151,0.000201702,0.05759,20.9401,474.062,0.65256,0.0,0.0
136,33.75,32.0753,34.2689,160.258,101.369,93.6276,0.000289669,0.0585464,20.9379,474.062,0.728932,0.0,0.0
138,34.25,31.266,34.7966,161.822,101.387,94.1697,0.000360922,0.0593212,20.9361,474.032,0.6776,0.0,0.0
140,34.75,31.5607,34.2627,157.665,101.382,94.3552,0.000544736,0.0603791,20.9347,474.021,0.659123,0.0,0.0
142,35.25,32.0572,34.47,163.548,101.391,94.2173,0.000693624,0.061236,20.9328,474.001,0.67333,0.0,0.0
144,35.75,31.5832,34.4382,159.567,101.395,94.4531,0.000814224,0.062792,20.9307,473.991,0.650804,0.0,0.0
146,36.25,31.9495,34.4762,162.062,101.411,92.5947,0.00128911,0.0640523,20.9287,473.761,0.834532,0.0,0.0
148,36.75,31.7609,34.3662,164.975,101.415,93.8253,0.00167377,0.0669467,20.9269,473.861,0.713748,0.0,1.0
150,37.25,31.9603,35.1019,162.125,101.429,92.3721,0.00239647,0.0709772,20.9205,473.731,0.858297,0.0,1.0
152,37.75,31.7224,35.5241,151.937,101.44,86.3175,0.00298185,0.074242,20.9109,473.691,1.48133,0.0,1.0
154,38.25,32.5842,36.064,148.855,101.438,84.4271,0.00391091,0.0768865,20.885,473.561,1.68438,0.0,1.0
156,38.75,32.833,36.6009,151.465,101.443,85.1477,0.00466345,0.0881522,20.8477,473.491,1.6068,0.0,1.0
158,39.25,33.2855,36.8274,146.563,101.442,78.2793,0.00548897,0.105489,20.8176,473.421,2.37844,0.0,1.0
160,39.75,33.7679,37.4204,148.797,101.457,72.4165,0.006352,0.1316,20.7628,473.241,3.09418,0.0,1.0
162,40.25,33.8151,38.5211,146.629,101.458,73.2633,0.00705105,0.15275,20.7184,473.101,2.98761,0.0,1.0
164,40.75,33.7698,38.6555,145.857,101.474,70.2239,0.00801378,0.18074,20.6708,473.061,3.37791,0.0,1.0
166,41.25,34.193,39.4156,142.96,101.481,70.8988,0.00879358,0.203411,20.6323,472.971,3.29073,0.0,1.0
168,41.75,34.2804,39.6771,145.268,101.48,76.8859,0.00964014,0.226466,20.6011,472.931,2.54672,0.0,0.0
170,42.25,35.4216,40.7461,144.556,101.483,72.1842,0.0105193,0.249361,20.5694,472.84,3.12604,0.0,0.0
172,42.75,35.7767,41.3466,145.178,101.495,73.8434,0.0112314,0.272105,20.5438,472.71,2.91859,0.0,0.0
174,43.25,36.3904,42.4885,147.508,101.501,71.4946,0.0121429,0.294305,20.5181,472.62,3.21573,0.0,0.0
176,43.75,36.6821,42.6357,142.399,101.503,69.0626,0.0128811,0.312288,20.4928,472.54,3.53352,0.0,0.0
178,44.25,37.6307,43.6744,142.461,101.507,65.5435,0.0138884,0.332617,20.4653,472.45,4.01372,0.0,0.0
180,44.75,37.5677,44.5447,146.524,101.516,66.2448,0.0147043,0.354271,20.4366,472.32,3.91692,0.0,0.0
182,45.25,38.0213,45.3742,133.358,101.507,60.9119,0.0158377,0.371811,20.4064,472.23,4.68628,0.0,0.0
184,45.75,39.209,46.5678,142.179,101.528,64.6972,0.0167557,0.396286,20.3756,472.13,4.13488,0.0,0.0
186,46.25,39.3301,47.468,145.132,101.521,63.7033,0.017897,0.41611,20.3464,472.05,4.27638,0.0,0.0
188,46.75,40.2382,48.2902,144.712,101.554,60.8414,0.0188214,0.439913,20.3189,471.87,4.70112,0.0,0.0
190,47.25,40.5973,48.7506,144.169,101.553,65.542,0.019962,0.459194,20.2936,471.84,4.01815,0.0,0.0
192,47.75,41.3844,49.8418,137.65,101.548,66.1723,0.0208858,0.478991,20.2704,471.719,3.92984,0.0,0.0
194,48.25,42.0327,51.0271,137.298,101.544,64.0035,0.0216342,0.498789,20.2515,471.599,4.23525,0.0,0.0
196,48.75,42.5239,51.9627,136.222,101.566,63.0421,0.0227619,0.517659,20.2335,471.479,4.37618,0.0,0.0
198,49.25,43.1083,53.1292,142.769,101.566,65.3843,0.0236754,0.535496,20.2163,471.379,4.04141,0.0,0.0
200,49.75,43.3401,53.8286,150.286,101.593,64.6125,0.0247623,0.554807,20.2005,471.329,4.15278,0.0,0.0
202,50.25,44.5524,54.46,134.348,101.587,62.1299,0.0256427,0.57045,20.186,471.139,4.51176,0.0,0.0
204,50.75,44.696,55.5652,144.13,101.589,66.0917,0.0265236,0.58312,20.1743,471.049,3.94471,0.0,0.0
206,51.25,45.0284,56.1253,137.885,101.579,65.1333,0.0273881,0.599769,20.1585,470.979,4.07789,0.0,0.0
208,51.75,45.8675,56.5695,136.658,101.601,55.1312,0.0281998,0.613254,20.1458,470.789,5.60975,0.0,0.0
210,52.25,46.365,58.1328,139.616,101.596,57.5748,0.0289578,0.632077,20.1232,470.658,5.21127,0.0,0.0
212,52.75,47.0684,58.881,142.293,101.605,57.159,0.0296568,0.647323,20.105,470.558,5.27864,0.0,0.0
214,53.25,47.6331,59.2992,142.008,101.604,55.8436,0.0302997,0.662942,20.0844,470.408,5.49212,0.0,0.0
216,53.75,47.6799,60.1092,132.542,101.62,59.2334,0.0308961,0.678536,20.0677,470.338,4.95289,0.0,0.0
218,54.25,48.3962,61.0646,143.837,101.607,62.0873,0.0314473,0.694477,20.0542,470.168,4.51988,0.0,0.0
220,54.75,48.97,62.1649,132.063,101.629,61.9073,0.0318938,0.710368,20.0392,470.098,4.54857,0.0,0.0
222,55.25,49.4335,62.8296,144.243,101.624,60.5949,0.0323291,0.726356,20.0271,469.978,4.74465,0.0,0.0
224,55.75,49.4514,63.0558,136.36,101.639,55.9105,0.032748,0.742111,20.0173,469.868,5.48436,0.0,0.0
226,56.25,50.0106,63.9212,137.514,101.64,54.908,0.0330648,0.758622,19.9982,469.728,5.65043,0.0,0.0
228,56.75,51.0655,64.9338,131.756,101.655,57.0743,0.033301,0.775369,19.9827,469.628,5.29674,0.0,0.0
230,57.25,51.9911,65.8537,145.446,101.661,64.6095,0.0334924,0.791728,19.9702,469.567,4.15936,0.0,0.0
232,57.75,52.2399,66.9377,127.188,101.661,61.8667,0.0333823,0.807493,19.96,469.407,4.55745,0.0,0.0
234,58.25,53.1973,67.9082,135.156,101.67,63.8813,0.0332932,0.820262,19.9518,469.387,4.26418,0.0,0.0
236,58.75,53.6372,69.0866,142.413,101.678,65.0075,0.033221,0.830629,19.9451,469.257,4.10456,0.0,0.0
238,59.25,54.0406,69.2413,129.354,101.671,68.8127,0.0322694,0.839047,19.9397,469.177,3.58195,0.0,0.0
240,59.75,54.4134,69.8027,141.802,101.696,72.8815,0.0314987,0.841955,19.9457,469.107,3.05708,0.0,0.0
242,60.25,54.879,69.8287,143.948,101.689,74.1999,0.0300062,0.84079,19.9599,469.047,2.8919,0.0,0.0
244,60.75,54.3325,69.7984,143.353,101.701,76.4909,0.0287972,0.833932,19.9714,469.007,2.61394,0.0,0.0
246,61.25,54.4223,69.8409,150.484,101.69,74.5472,0.0272922,0.823052,20.0052,468.937,2.84912,0.0,0.0
248,61.75,54.4331,69.8149,146.984,101.697,79.2296,0.0256,0.81424,20.0326,468.927,2.29077,0.0,0.0
250,62.25,55.0028,68.4878,154.202,101.7,84.6807,0.0242293,0.807101,20.0703,468.907,1.68051,0.0,0.0
252,62.75,54.4645,68.545,150.004,101.708,86.9118,0.0225618,0.779847,20.1148,468.887,1.44257,0.0,0.0
254,63.25,53.737,67.4941,149.468,101.716,89.1541,0.0207097,0.757771,20.1509,468.857,1.20962,0.0,0.0
256,63.75,53.0754,67.8694,154.553,101.717,91.5501,0.0189191,0.725648,20.2119,468.847,0.966309,0.0,0.0
258,64.25,52.6871,67.203,154.754,101.714,93.2483,0.0172073,0.699628,20.2614,468.837,0.797432,0.0,0.0
260,64.75,52.6174,66.4248,155.575,101.732,95.7533,0.0155916,0.678552,20.3242,468.857,0.555782,0.0,0.0
262,65.25,52.7618,65.529,156.776,101.732,96.9895,0.0140766,0.644038,20.375,468.847,0.438069,0.0,0.0
264,65.75,51.7658,64.809,155.218,101.73,98.0072,0.0126817,0.616081,20.4323,468.857,0.342063,0.0,0.0
266,66.25,51.2533,64.6343,156.852,101.738,98.5042,0.0114006,0.585891,20.4787,468.857,0.296397,0.0,0.0
268,66.75,51.0077,64.004,158.593,101.771,98.6593,0.0108545,0.554647,20.5053,468.857,0.284927,0.0,0.0
270,67.25,50.6093,63.0425,154.961,101.75,99.0361,0.00978692,0.524498,20.5508,468.857,0.248093,0.0,0.0
272,67.75,50.2267,62.6345,158.036,101.765,100.107,0.00880187,0.495721,20.5911,468.857,0.150774,0.0,0.0
274,68.25,49.8671,61.7509,159.908,101.753,99.0985,0.0079378,0.468476,20.627,468.867,0.242539,0.0,0.0
276,68.75,49.6969,61.5024,158.541,101.769,98.7876,0.00717833,0.442863,20.656,468.857,0.272854,0.0,0.0
278,69.25,49.0355,60.3788,153.12,101.763,99.3713,0.00656316,0.422117,20.6853,468.877,0.218206,0.0,0.0
280,69.75,48.2966,58.9134,158.92,101.762,99.1553,0.00601261,0.409465,20.7091,468.877,0.238137,0.0,0.0
282,70.25,48.0745,59.1877,157.401,101.767,99.8104,0.00551963,0.387829,20.7328,468.867,0.178153,0.0,0.0
284,70.75,47.7311,58.0562,158.786,101.78,99.423,0.00509358,0.367273,20.7539,468.877,0.214955,0.0,0.0
286,71.25,47.383,57.7454,156.508,101.783,99.2354,0.00472442,0.347895,20.7726,468.877,0.23262,0.0,0.0
288,71.75,46.8934,57.1206,160.777,101.791,99.639,0.0043948,0.329376,20.7878,468.897,0.196043,0.0,0.0
290,72.25,46.6836,56.2656,159.269,101.789,99.4489,0.00410027,0.311835,20.8028,468.897,0.213385,0.0,0.0
292,72.75,46.2345,55.9904,161.227,101.799,99.6157,0.00382791,0.297627,20.815,468.877,0.198933,0.0,0.0
294,73.25,46.2008,56.017,159.346,101.802,99.2673,0.00357687,0.283255,20.8255,468.877,0.231377,0.0,0.0
296,73.75,45.3563,54.8314,156.815,101.806,99.7217,0.00337353,0.269037,20.8347,468.877,0.189809,0.0,0.0
298,74.25,45.5706,54.9955,159.431,101.826,99.1918,0.00313364,0.255974,20.8428,468.877,0.240555,0.0,0.0
300,74.75,45.2239,53.7883,160.272,101.827,99.5214,0.00293933,0.244003,20.85,468.897,0.210189,0.0,0.0
302,75.25,44.7773,53.1068,161.219,101.85,99.1664,0.0027155,0.234307,20.8568,468.907,0.245019,0.0,0.0
304,75.75,44.8715,53.3171,158.133,101.838,99.2151,0.0025342,0.223374,20.8632,468.897,0.239438,0.0,0.0
306,76.25,43.9509,52.5704,160.345,101.838,99.3723,0.00238735,0.214518,20.8683,468.897,0.224948,0.0,0.0
308,76.75,44.1885,52.209,156.573,101.852,99.1603,0.00218123,0.204945,20.8729,468.907,0.24573,0.0,0.0
310,77.25,43.4549,52.4138,157.738,101.863,99.3028,0.00201428,0.197191,20.8771,468.917,0.233593,0.0,0.0
312,77.75,43.4645,51.1576,160.235,101.857,99.4402,0.00184294,0.188936,20.881,468.907,0.220348,0.0,0.0
314,78.25,43.7373,51.7539,159.662,101.857,99.3419,0.00167166,0.182249,20.8845,468.917,0.229466,0.0,0.0
316,78.75,42.952,51.3986,159.132,101.869,99.6055,0.00149818,0.175697,20.8874,468.917,0.20622,0.0,0.0
318,79.25,42.7511,50.3477,156.663,101.881,99.5275,0.00132637,0.169367,20.891,468.927,0.214456,0.0,0.0
320,79.75,43.2318,50.2832,157.479,101.874,99.2683,0.00116536,0.16424,20.894,468.907,0.237783,0.0,0.0
322,80.25,42.8691,49.37,162.06,101.898,100.229,0.00101528,0.158943,20.8978,468.917,0.151584,0.0,0.0
324,80.75,42.4717,49.371,159.597,101.883,99.5523,0.000879593,0.153624,20.9008,468.917,0.212388,0.0,0.0
326,81.25,41.8876,48.7479,158.914,101.887,99.6192,0.000756972,0.148571,20.9032,468.927,0.206517,0.0,0.0
328,81.75,42.1796,49.1212,161.67,101.889,99.5929,0.00065765,0.143809,20.9061,468.937,0.209132,0.0,0.0
330,82.25,42.0993,48.4938,165.51,101.906,98.9884,0.000577199,0.139261,20.9085,468.937,0.266588,0.0,0.0
332,82.75,41.6081,48.0125,161.065,101.922,99.4387,0.000477908,0.134957,20.9105,468.927,0.226353,0.0,0.0
334,83.25,41.3596,47.5475,163.558,101.918,99.2308,0.000397482,0.130883,20.9124,468.927,0.245223,0.0,0.0
336,83.75,41.3694,47.9112,158.84,101.922,99.4849,0.000332338,0.127056,20.9139,468.927,0.222058,0.0,0.0
338,84.25,41.3363,47.1554,157.07,101.932,99.5817,0.000278352,0.123955,20.9155,468.917,0.214094,0.0,0.0
340,84.75,41.1647,47.1402,158.219,101.934,99.7146,0.000234624,0.120636,20.9173,468.917,0.202046,0.0,0.0
342,85.25,40.7689,46.3935,159.605,101.944,99.3089,0.000211388,0.117219,20.919,468.917,0.240343,0.0,0.0
344,85.75,40.8608,46.0269,157.666,101.96,99.2764,0.000192566,0.114452,20.9206,468.917,0.244715,0.0,0.0
346,86.25,40.8223,46.1368,159.934,101.963,100.238,0.000181169,0.111571,20.9223,468.917,0.156566,0.0,0.0
348,86.75,39.8334,46.3237,162.465,101.979,99.9199,0.000175401,0.108661,20.9241,468.907,0.187136,0.0,0.0
350,87.25,40.2007,45.8027,162.156,101.968,99.7754,0.000163416,0.106303,20.9256,468.907,0.199452,0.0,0.0
352,87.75,40.1397,45.567,153.532,101.969,99.6233,0.000153709,0.103878,20.9277,468.897,0.213565,0.0,0.0
354,88.25,39.4808,45.0609,161.679,101.974,100.513,0.000132383,0.101448,20.9294,468.907,0.132368,0.0,0.0
356,88.75,39.7468,45.4651,158.547,101.986,99.5705,0.000102991,0.0991083,20.9312,468.917,0.219945,0.0,0.0
358,89.25,39.4183,44.9779,158.961,102.002,100.174,6.18774e-05,0.0968779,20.9327,468.897,0.165903,0.0,0.0
360,89.75,39.5252,44.7178,160.745,101.99,99.2835,1.30004e-05,0.094764,20.9343,468.897,0.246804,0.0,0.0
362,90.25,39.7157,44.1889,161.427,102.007,99.1755,-2.65899e-05,0.0927752,20.9357,468.897,0.258275,0.0,0.0
364,90.75,39.2474,44.1486,160.974,102.003,99.9884,-9.03221e-05,0.0908432,20.9367,468.897,0.183002,0.0,0.0
366,91.25,39.1991,44.0099,159.789,102.022,99.5173,-0.000141945,0.0889893,20.9376,468.897,0.228116,0.0,0.0
368,91.75,39.0677,43.9741,156.756,102.019,100.109,-0.000184978,0.0872453,20.9386,468.897,0.173464,0.0,0.0
370,92.25,39.019,43.844,163.23,102.028,99.9255,-0.000219834,0.0856146,20.9395,468.897,0.191074,0.0,0.0
372,92.75,38.7904,43.3592,158.383,102.038,99.6055,-0.000234694,0.0842938,20.94,468.897,0.22143,0.0,0.0
374,93.25,38.4195,43.6496,160.259,102.035,99.5964,-0.00024549,0.0826829,20.9407,468.887,0.221938,0.0,0.0
376,93.75,38.5604,42.9666,156.508,102.04,99.3667,-0.000254235,0.081378,20.9412,468.897,0.243607,0.0,0.0
378,94.25,38.7946,42.8983,160.122,102.055,99.6988,-0.000239397,0.0800581,20.9419,468.897,0.21432,0.0,0.0
380,94.75,38.5016,42.3149,166.343,102.042,100.097,-0.000227379,0.0787521,20.9427,468.887,0.176608,0.0,0.0
382,95.25,38.3527,42.1977,159.075,102.059,99.8124,-0.000208029,0.0775239,20.9433,468.907,0.20428,0.0,0.0
384,95.75,38.2167,42.4162,155.531,102.057,99.605,-0.000183703,0.0769195,20.9439,468.917,0.223181,0.0,0.0
386,96.25,38.3213,42.672,159.723,102.075,100.099,-0.000159127,0.075886,20.9443,468.907,0.17935,0.0,0.0
388,96.75,37.7512,42.4149,158.259,102.063,99.6253,-0.000139221,0.0746173,20.9446,468.907,0.221831,0.0,0.0
390,97.25,37.6165,42.0427,153.68,102.09,99.5609,-0.000123097,0.0735897,20.9449,468.897,0.230211,0.0,0.0
392,97.75,37.6149,42.0382,160.099,102.076,100.073,-0.000110036,0.0725871,20.9453,468.907,0.181878,0.0,0.0
394,98.25,38.0647,42.1858,158.717,102.093,99.492,-9.94571e-05,0.0716219,20.9459,468.907,0.236791,0.0,0.0
396,98.75,37.5479,41.5355,164.663,102.089,99.6152,-9.85799e-05,0.0706983,20.9464,468.907,0.225138,0.0,0.0
398,99.25,37.3812,41.6208,157.651,102.105,100.071,-0.000104792,0.0698226,20.9468,468.907,0.184695,0.0,0.0
400,99.75,37.2958,41.6325,156.615,102.109,100.634,-0.000123284,0.0690071,20.9471,468.907,0.133468,0.0,0.0
402,100.25,37.4117,41.1928,161.585,102.114,99.9843,-0.000150377,0.0682509,20.9473,468.907,0.193419,0.0,0.0
404,100.75,37.155,41.4789,157.665,102.117,99.7445,-0.0001845,0.0676384,20.9475,468.907,0.215716,0.0,0.0
406,101.25,37.4134,40.7404,160.332,102.145,100.029,-0.000223101,0.0669794,20.9481,468.917,0.192065,0.0,0.0
408,101.75,38.037,40.8204,159.586,102.118,99.7871,-0.000263982,0.0662991,20.9486,468.907,0.21191,0.0,0.0
410,102.25,37.4146,40.6195,160.19,102.141,99.8479,-0.000305749,0.065649,20.949,468.907,0.208352,0.0,0.0
412,102.75,37.0267,40.687,158.144,102.129,100.036,-0.000342785,0.0650333,20.9493,468.917,0.190006,0.0,0.0
414,103.25,37.0356,40.605,160.023,102.15,100.015,-0.000375669,0.0644426,20.9496,468.917,0.193765,0.0,0.0
416,103.75,36.9666,40.5824,163.464,102.157,100.51,-0.000402305,0.0638814,20.9498,468.917,0.149145,0.0,0.0
418,104.25,36.9989,40.0143,157.429,102.155,100.749,-0.00042388,0.0633349,20.95,468.897,0.127173,0.0,0.0
420,104.75,36.6245,40.085,165.844,102.157,100.169,-0.000446226,0.0628095,20.9501,468.907,0.180336,0.0,0.0
422,105.25,37.487,40.0586,157.998,102.171,99.5853,-0.000464327,0.0623062,20.9502,468.907,0.235189,0.0,0.0
424,105.75,37.3025,39.7285,157.022,102.166,99.8799,-0.000478989,0.0618286,20.9503,468.897,0.207676,0.0,0.0
426,106.25,36.3644,40.0262,155.942,102.182,99.9103,-0.000498172,0.0614417,20.9506,468.907,0.206288,0.0,0.0
428,106.75,36.5335,39.4662,162.638,102.179,99.999,-0.00051371,0.0610294,20.9511,468.897,0.197919,0.0,0.0
430,107.25,36.976,39.9632,159.322,102.186,99.8905,-0.000528732,0.0606064,20.9515,468.907,0.208437,0.0,0.0
432,107.75,36.6918,39.6991,159.762,102.174,100.751,-0.0005409,0.0602638,20.9518,468.907,0.128775,0.0,0.0
434,108.25,36.1967,39.704,160.464,102.188,99.7709,-0.000548319,0.0599863,20.952,468.907,0.219622,0.0,0.0
436,108.75,36.9589,39.8026,161.815,102.19,99.6755,-0.000554329,0.05952,20.9522,468.897,0.228617,0.0,0.0
438,109.25,36.4739,39.3893,156.254,102.195,99.5477,-0.000559198,0.0591423,20.9524,468.897,0.240868,0.0,0.0
440,109.75,36.2412,39.5315,159.012,102.196,99.5807,-0.000552181,0.0587728,20.9525,468.897,0.237905,0.0,0.0
442,110.25,36.2908,39.7568,158.47,102.207,99.8003,-0.000546497,0.0584164,20.9526,468.897,0.218694,0.0,0.0
444,110.75,36.1662,39.8532,160.732,102.219,100.152,-0.000537021,0.0580712,20.9527,468.907,0.187468,0.0,0.0
446,111.25,36.6641,39.2123,158.652,102.225,100.391,-0.000529346,0.0577408,20.9528,468.907,0.166129,0.0,0.0
448,111.75,36.1272,39.1941,165.037,102.212,100.094,-0.00052313,0.0574731,20.9528,468.907,0.192136,0.0,0.0
450,112.25,36.0236,39.2668,157.955,102.233,99.8571,-0.000529055,0.0571357,20.9529,468.897,0.215805,0.0,0.0
452,112.75,36.7638,39.1984,159.15,102.221,99.5934,-0.000539623,0.0568623,20.9529,468.907,0.238958,0.0,0.0
454,113.25,35.8235,39.024,158.237,102.23,100.503,-0.000553375,0.0565873,20.953,468.897,0.156418,0.0,0.0
456,113.75,36.2734,38.5569,164.459,102.228,99.9828,-0.000564513,0.0563646,20.953,468.897,0.203812,0.0,0.0
458,114.25,36.3124,39.2044,158.591,102.244,99.9149,-0.000586938,0.0561418,20.9532,468.907,0.21142,0.0,0.0
460,114.75,35.9614,38.6589,159.117,102.242,100.224,-0.000605102,0.0559233,20.9536,468.897,0.182908,0.0,0.0
462,115.25,36.0034,38.9618,161.712,102.249,100.126,-0.000624687,0.0557463,20.9541,468.897,0.192585,0.0,0.0
464,115.75,35.4701,38.6567,163.451,102.254,100.027,-0.00064055,0.0554689,20.9545,468.887,0.201975,0.0,0.0
466,116.25,35.6726,38.6871,160.275,102.262,100.278,-0.000654617,0.0552442,20.9548,468.887,0.179762,0.0,0.0
468,116.75,35.8411,38.6419,156.063,102.251,99.7759,-0.000666012,0.0549685,20.9551,468.887,0.224892,0.0,0.0
470,117.25,36.0167,38.8394,159.101,102.258,99.4463,-0.000683767,0.0547451,20.9553,468.897,0.255809,0.0,0.0
472,117.75,35.1625,38.6499,161.638,102.266,100.448,-0.000698148,0.0544979,20.9555,468.897,0.164639,0.0,0.0
474,118.25,35.5395,38.7065,160.482,102.261,99.8373,-0.000709797,0.0542976,20.9557,468.907,0.220063,0.0,0.0
476,118.75,35.9371,38.7048,161.453,102.275,99.8063,-0.000744807,0.0540416,20.9558,468.897,0.224202,0.0,0.0
478,119.25,35.4631,38.2916,157.376,102.271,99.8403,-0.000773166,0.0538343,20.9559,468.917,0.220746,0.0,0.0
480,119.75,35.9786,38.2806,159.805,102.276,99.5903,-0.000810751,0.053653,20.956,468.917,0.244157,0.0,0.0
482,120.25,35.4668,38.5237,159.526,102.278,100.752,-0.000841194,0.0535061,20.956,468.907,0.138005,0.0,0.0
484,120.75,35.0987,37.9819,161.09,102.279,100.218,-0.000872905,0.053373,20.9561,468.887,0.186793,0.0,0.0
486,121.25,35.6323,38.4618,161.85,102.277,100.095,-0.000904935,0.0532526,20.9561,468.897,0.197813,0.0,0.0
488,121.75,35.2397,38.0047,163.097,102.285,100,-0.00093729,0.053155,20.9561,468.897,0.207334,0.0,0.0
490,122.25,35.5639,38.1952,160.403,102.285,99.815,-0.000969266,0.0530337,20.9566,468.897,0.224297,0.0,0.0
492,122.75,35.9061,37.8545,160.593,102.287,99.6867,-0.00099709,0.0528973,20.957,468.907,0.236319,0.0,0.0
494,123.25,35.2104,38.3739,157.901,102.282,100.117,-0.00102136,0.0527376,20.9573,468.907,0.196334,0.0,0.0
496,123.75,35.5338,37.8531,157.641,102.3,100.673,-0.00103845,0.0525638,20.9576,468.907,0.147044,0.0,0.0
498,124.25,35.343,38.527,160.695,102.287,100.216,-0.00104999,0.0523878,20.9578,468.897,0.187691,0.0,0.0
500,124.75,35.7581,38.0337,162.713,102.298,100.256,-0.00105933,0.0522136,20.9579,468.897,0.185096,0.0,0.0
502,125.25,35.9384,38.1615,161.473,102.292,99.8581,-0.00105985,0.0520725,20.9581,468.897,0.220964,0.0,0.0
504,125.75,35.6,38.0237,158.965,102.308,99.8667,-0.00105392,0.0519448,20.9582,468.897,0.22165,0.0,0.0
506,126.25,35.5111,37.8619,160.697,102.301,99.9149,-0.00104206,0.0518061,20.9583,468.887,0.216524,0.0,0.0
508,126.75,35.2013,37.8827,159.517,102.312,100.047,-0.00102611,0.0516621,20.9583,468.897,0.205449,0.0,0.0
510,127.25,35.2867,37.4558,157.81,102.319,99.7612,-0.00100294,0.0515455,20.9582,468.907,0.232271,0.0,0.0
512,127.75,35.4066,38.1815,159.78,102.31,99.5589,-0.00097494,0.0513943,20.9581,468.907,0.25016,0.0,0.0
514,128.25,35.0966,37.396,161.679,102.298,100.41,-0.000952259,0.0512209,20.958,468.907,0.170952,0.0,0.0
516,128.75,34.9612,37.467,163.557,102.301,100.149,-0.000933888,0.0510804,20.958,468.907,0.195069,0.0,0.0
518,129.25,35.1793,37.4576,163.145,102.305,99.7795,-0.000880036,0.0509533,20.9579,468.897,0.229409,0.0,0.0
520,129.75,35.0311,37.9219,161.66,102.317,100.24,-0.000836416,0.0508502,20.9575,468.897,0.188236,0.0,0.0
522,130.25,34.7334,37.9386,161.34,102.308,100.204,-0.000795316,0.0507802,20.9571,468.897,0.190644,0.0,0.0
524,130.75,35.1274,37.3506,158.678,102.312,100.344,-0.000756832,0.0507235,20.9568,468.897,0.178236,0.0,0.0
526,131.25,34.959,37.1616,164.474,102.304,100.321,-0.000728225,0.0506775,20.9565,468.887,0.179675,0.0,0.0
528,131.75,34.514,37.472,161.339,102.32,100.559,-0.000707361,0.0506135,20.9563,468.897,0.15926,0.0,0.0
530,132.25,34.5627,37.4847,158.882,102.31,99.8621,-0.000690461,0.0505617,20.9561,468.897,0.222255,0.0,0.0
532,132.75,35.2527,37.3681,159.02,102.321,100.198,-0.000686386,0.0505056,20.956,468.897,0.192385,0.0,0.0
534,133.25,34.74,37.3927,165.996,102.307,100.196,-0.000691738,0.0504475,20.9559,468.897,0.191267,0.0,0.0
536,133.75,34.8217,37.5862,159.333,102.31,99.604,-0.000708252,0.0503653,20.9558,468.897,0.245964,0.0,0.0
538,134.25,34.6177,37.326,162.425,102.328,99.9154,-0.000721628,0.050267,20.9557,468.887,0.218954,0.0,0.0
540,134.75,34.6632,37.449,153.538,102.329,99.7526,-0.000732463,0.0501874,20.9557,468.887,0.234025,0.0,0.0
542,135.25,35.2084,36.5617,157.712,102.32,99.8763,-0.000747328,0.0500426,20.9556,468.887,0.221837,0.0,0.0
544,135.75,34.6209,36.8015,160.017,102.313,99.9037,-0.000759369,0.0499254,20.9556,468.887,0.218694,0.0,0.0
546,136.25,35.0782,36.9535,161.555,102.315,100.882,-0.000765468,0.0498445,20.9556,468.887,0.12939,0.0,0.0
548,136.75,34.7836,35.8146,166.54,102.317,100.041,-0.000769127,0.0497917,20.9555,468.887,0.206423,0.0,0.0
550,137.25,34.8661,37.2661,159.617,102.305,100.101,-0.000770937,0.0497418,20.9555,468.887,0.199808,0.0,0.0
552,137.75,34.9051,37.1363,158.668,102.321,100.738,-0.000773685,0.0496951,20.9555,468.877,0.143051,0.0,0.0
554,138.25,34.0495,37.1491,155.853,102.305,99.7425,-0.000777064,0.0496573,20.9555,468.887,0.232813,0.0,0.0
556,138.75,34.6873,36.8307,156.413,102.318,99.9747,-0.000779801,0.0496133,20.9555,468.867,0.212583,0.0,0.0
558,139.25,34.9988,37.0729,157.824,102.3,99.5543,-0.000780968,0.0495776,20.9555,468.867,0.24962,0.0,0.0
560,139.75,34.8336,37.0739,157.579,102.321,99.349,-0.000787835,0.0495487,20.9557,468.867,0.270454,0.0,0.0
562,140.25,34.7811,36.6629,163.976,102.303,100.064,-0.000793398,0.0495253,20.9561,468.877,0.203054,0.0,0.0
564,140.75,34.5399,37.093,159.339,102.318,99.6268,-0.000790211,0.049493,20.9564,468.877,0.244565,0.0,0.0
566,141.25,34.1671,36.9871,165.801,102.301,99.7404,-0.000780708,0.0494668,20.9567,468.887,0.232631,0.0,0.0
568,141.75,34.3781,36.9809,159.481,102.312,100.288,-0.000764678,0.0494386,20.9569,468.887,0.183394,0.0,0.0
570,142.25,34.3026,37.1415,158.37,102.305,100.333,-0.000744195,0.0494232,20.9571,468.887,0.178598,0.0,0.0
572,142.75,34.2891,36.7338,156.604,102.309,99.9453,-0.000723116,0.0493969,20.9572,468.877,0.214469,0.0,0.0
574,143.25,34.2511,36.6764,157.51,102.303,99.5006,-0.000702004,0.0493756,20.9573,468.877,0.254834,0.0,0.0
576,143.75,34.4118,36.5498,161.746,102.312,99.8895,-0.000682981,0.0493584,20.9574,468.897,0.219925,0.0,0.0
578,144.25,33.6189,37.0345,158.47,102.296,99.9067,-0.000665841,0.0493374,20.957,468.897,0.216825,0.0,0.0
580,144.75,34.9132,37.1215,159.397,102.303,100.633,-0.000650035,0.049314,20.9567,468.887,0.151028,0.0,0.0
582,145.25,34.6907,37.1404,156.812,102.297,99.5082,-0.000635501,0.0492951,20.9565,468.887,0.253653,0.0,0.0
584,145.75,34.5391,36.9204,157.558,102.3,99.71,-0.000623729,0.0492798,20.9563,468.907,0.235319,0.0,0.0
586,146.25,34.7774,36.7145,157.047,102.292,99.4367,-0.000614194,0.0492462,20.9561,468.897,0.259804,0.0,0.0
588,146.75,34.3168,37.3096,161.538,102.296,99.6481,-0.000591856,0.0492001,20.956,468.907,0.240646,0.0,0.0
590,147.25,34.1732,36.908,165.735,102.297,99.9747,-0.000573762,0.0491416,20.9559,468.897,0.210733,0.0,0.0
592,147.75,34.3514,37.02,160.771,102.299,99.7927,-0.0005518,0.0490752,20.9558,468.877,0.227642,0.0,0.0
594,148.25,34.2879,36.5278,158.08,102.289,100.208,-0.00053401,0.0490215,20.9557,468.877,0.188572,0.0,0.0
596,148.75,34.3993,37.1126,161.051,102.288,99.7719,-0.000513511,0.0489779,20.9557,468.877,0.228555,0.0,0.0
598,149.25,34.5088,37.2039,159.468,102.288,100.239,-0.000496906,0.0489426,20.9556,468.887,0.185704,0.0,0.0
600,149.75,34.2762,36.8165,160.9,102.287,100.785,-0.000483457,0.048914,20.9558,468.887,0.135698,0.0,0.0
602,150.25,34.4756,36.8899,162.124,102.28,100.43,-0.000472563,0.0489176,20.9562,468.887,0.167564,0.0,0.0
604,150.75,34.1522,36.8811,157.972,102.285,100.187,-0.000473353,0.0489205,20.9565,468.877,0.190228,0.0,0.0
606,151.25,34.0512,37.0612,163.148,102.305,100.201,-0.000482647,0.048963,20.9567,468.887,0.190739,0.0,0.0
608,151.75,34.5246,36.6713,159.555,102.274,100.184,-0.000490175,0.0489974,20.9569,468.887,0.18946,0.0,0.0
610,152.25,34.2949,36.759,159.191,102.279,99.8753,-0.000516142,0.0490112,20.9571,468.887,0.218197,0.0,0.0
612,152.75,34.2084,36.6413,155.767,102.27,99.637,-0.000555058,0.0490097,20.9582,468.897,0.239306,0.0,0.0
614,153.25,34.6063,36.4375,161.502,102.27,99.9706,-0.00058658,0.0490085,20.9591,468.877,0.208703,0.0,0.0
616,153.75,34.0687,36.8666,154.175,102.262,100.205,-0.000626215,0.0490075,20.9598,468.897,0.186438,0.0,0.0
618,154.25,34.4286,35.9177,162.799,102.263,99.8991,-0.000671009,0.0490067,20.9599,468.887,0.214601,0.0,0.0
620,154.75,34.2009,36.8236,158.892,102.252,100.074,-0.000709857,0.0490061,20.96,468.897,0.197631,0.0,0.0
622,155.25,34.1772,36.3081,160.977,102.257,99.7318,-0.000743632,0.0489922,20.9601,468.887,0.22943,0.0,0.0
624,155.75,34.225,36.6488,160.303,102.25,99.9062,-0.000770989,0.0489809,20.9601,468.877,0.212803,0.0,0.0
626,156.25,34.0695,36.2306,160.648,102.254,99.7105,-0.000793148,0.0490119,20.9602,468.867,0.231094,0.0,0.0
628,156.75,34.3364,36.4626,163.57,102.233,99.9534,-0.000811097,0.049037,20.9602,468.867,0.206881,0.0,0.0
630,157.25,34.1157,36.616,162.177,102.248,99.5234,-0.000826854,0.0490574,20.9603,468.857,0.247812,0.0,0.0
632,157.75,34.2162,36.5863,159.333,102.236,100.356,-0.000839616,0.0490337,20.9603,468.887,0.170374,0.0,0.0
634,158.25,33.8939,35.9432,158.38,102.237,100.413,-0.000854826,0.0490146,20.9603,468.887,0.165246,0.0,0.0
636,158.75,34.205,36.5258,160.517,102.228,99.6735,-0.000872397,0.048959,20.9604,468.897,0.23217,0.0,0.0
638,159.25,34.2782,36.5674,160.645,102.234,99.4854,-0.000878943,0.0489139,20.9604,468.887,0.250061,0.0,0.0
640,159.75,33.9842,36.3921,160.615,102.231,99.7455,-0.000881733,0.0488774,20.9604,468.897,0.22584,0.0,0.0
642,160.25,33.8283,36.0796,161.928,102.225,99.6958,-0.000886505,0.0488479,20.9604,468.887,0.229895,0.0,0.0
644,160.75,34.5355,36.8944,163.883,102.218,99.782,-0.000866013,0.0488099,20.9604,468.897,0.221297,0.0,0.0
646,161.25,33.8199,36.2253,160.419,102.208,100.042,-0.000849415,0.0487664,20.9604,468.887,0.196603,0.0,0.0
648,161.75,34.3589,36.5104,152.931,102.208,99.3936,-0.000815459,0.0487429,20.9604,468.887,0.256236,0.0,0.0
650,162.25,34.1109,36.4454,164.969,102.209,99.817,-0.000769495,0.0487389,20.9604,468.867,0.217303,0.0,0.0
652,162.75,34.2516,36.1851,162.17,102.19,99.9468,-0.000718803,0.0487372,20.9604,468.877,0.203639,0.0,0.0
654,163.25,34.3053,36.9396,159.868,102.209,99.747,-0.000665629,0.0487343,20.9604,468.887,0.223702,0.0,0.0
656,163.75,34.2034,36.5257,161.435,102.199,99.6958,-0.000619994,0.0487319,20.9604,468.887,0.227563,0.0,0.0
658,164.25,33.8942,36.3741,162.347,102.193,99.9149,-0.000580723,0.0487793,20.9604,468.897,0.206832,0.0,0.0
660,164.75,33.9505,36.5005,155.787,102.186,99.5609,-0.000557886,0.048862,20.9604,468.887,0.238802,0.0,0.0
662,165.25,33.8046,36.2623,159.383,102.189,99.8819,-0.000547464,0.0489782,20.9604,468.907,0.209526,0.0,0.0
664,165.75,34.0845,36.7404,163.628,102.173,100.129,-0.000539023,0.0491167,20.9604,468.917,0.185376,0.0,0.0
666,166.25,34.089,36.244,159.79,102.171,100.145,-0.000563849,0.0492641,20.9604,468.917,0.183797,0.0,0.0
668,166.75,33.8223,36.3174,155.622,102.158,99.7972,-0.000583959,0.0494151,20.9604,468.917,0.214532,0.0,0.0
670,167.25,33.7348,36.106,158.999,102.169,99.999,-0.000600247,0.0495375,20.9604,468.907,0.196993,0.0,0.0
672,167.75,33.6176,36.4166,159.864,102.14,99.7414,-0.000660937,0.0497302,20.9602,468.907,0.218069,0.0,0.0
674,168.25,33.8688,36.4444,162.811,102.152,99.713,-0.000710095,0.0498864,20.9598,468.897,0.22172,0.0,0.0
676,168.75,33.9945,36.4951,160.109,102.149,99.1588,-0.000764528,0.05016,20.9595,468.897,0.272607,0.0,0.0
678,169.25,34.0144,35.9917,163.805,102.148,99.4651,-0.000808618,0.0503817,20.9592,468.897,0.244196,0.0,0.0
680,169.75,33.6057,36.6947,159.443,102.129,100.184,-0.000843049,0.0507232,20.959,468.897,0.176434,0.0,0.0
682,170.25,33.6201,35.7922,162.153,102.13,99.1928,-0.000869785,0.0511458,20.9579,468.887,0.267759,0.0,0.0
684,170.75,33.6001,36.1759,162.633,102.114,99.4047,-0.000883108,0.051488,20.9571,468.897,0.246765,0.0,0.0
686,171.25,33.7905,36.4156,162.886,102.125,99.1887,-0.000886401,0.0520599,20.9559,468.897,0.267727,0.0,0.0
688,171.75,34.2749,36.2054,161.779,102.098,99.8976,-0.000889068,0.0525231,20.955,468.897,0.199935,0.0,0.0
690,172.25,34.2646,36.7989,163.547,102.116,99.638,-0.000857128,0.0530253,20.954,468.887,0.225443,0.0,0.0
692,172.75,33.9978,36.3773,162.249,102.108,100.685,-0.000831257,0.0535464,20.953,468.887,0.128809,0.0,0.0
694,173.25,33.7611,36.4521,162.736,102.098,99.8647,-0.000784728,0.054039,20.9522,468.897,0.202963,0.0,0.0
696,173.75,33.918,36.7386,157.306,102.082,99.5903,-0.000747038,0.0545015,20.9515,468.887,0.226723,0.0,0.0
698,174.25,33.734,35.7803,161.214,102.098,99.744,-0.00071651,0.0548761,20.951,468.887,0.214022,0.0,0.0
700,174.75,34.1796,36.222,158.924,102.064,99.5264,-0.000678386,0.0552198,20.9505,468.887,0.231017,0.0,0.0
702,175.25,33.9148,36.8386,162.537,102.081,99.8672,-0.000647506,0.0554982,20.9502,468.887,0.201211,0.0,0.0
704,175.75,34.0729,35.7345,161.456,102.068,99.8109,-0.000622493,0.0557103,20.9499,468.877,0.205236,0.0,0.0
706,176.25,33.8396,36.1223,159.087,102.066,99.2917,-0.000579092,0.0558821,20.9496,468.877,0.252913,0.0,0.0
708,176.75,34.0187,37.2619,164.722,102.051,99.4986,-0.000543938,0.0560353,20.9493,468.877,0.232404,0.0,0.0
710,177.25,33.4543,36.6887,163.774,102.061,99.7166,-0.000505849,0.0561722,20.9491,468.867,0.213281,0.0,0.0
712,177.75,33.5929,36.1453,158.405,102.042,100.094,-0.000466343,0.056283,20.9489,468.877,0.176877,0.0,0.0
714,178.25,33.5799,36.1873,162.723,102.049,99.3424,-0.000434344,0.0563728,20.9487,468.887,0.246708,0.0,0.0
716,178.75,33.3276,36.3466,159.078,102.027,100.373,,0.0564187,,468.877,0.149937,0.0,0.0
718,179.25,33.8437,36.2116,160.242,102.04,99.6182,,0.0564559,,468.867,0.220373,0.0,0.0
720,179.75,33.9844,36.8886,161.544,102.013,99.2435,,0.0564324,,468.877,0.252584,0.0,0.0
722,180.25,33.8762,36.3637,159.275,102.043,99.8799,,0.0564133,,468.867,0.196637,0.0,0.0
724,180.75,34.0594,37.1546,158.311,102.007,99.4412,,0.0563626,,468.867,0.233723,0.0,0.0
726,181.25,34.0048,36.6683,156.471,102.019,99.1872,,0.0562898,,468.867,0.258346,0.0,0.0
728,181.75,34.3837,36.2272,158.433,101.987,99.104,,,,468.867,0.263112,0.0,0.0
730,182.25,33.1751,35.7401,166.33,101.999,99.8211,,,,468.877,0.198038,0.0,0.0
732,182.75,33.8198,35.827,160.115,101.979,99.7896,,,,468.877,0.199112,0.0,0.0
734,183.25,34.019,36.4209,161.593,101.988,99.636,,,,468.877,0.214104,0.0,0.0
736,183.75,34.1464,36.5167,159.238,101.987,100.032,,,,468.867,0.17763,0.0,0.0
738,184.25,33.7559,36.5441,158.375,101.966,100.328,,,,468.867,0.148613,0.0,0.0
740,184.75,33.8044,36.286,155.093,101.955,99.6704,,,,468.867,0.207925,0.0,0.0
742,185.25,33.9081,36.2789,161.411,101.958,99.8626,,,,468.867,0.190582,0.0,0.0
744,185.75,34.4137,36.7325,164.266,101.961,99.6304,,,,468.867,0.21217,0.0,0.0
746,186.25,33.8863,36.9746,161.363,101.962,99.0782,,,,468.877,0.263245,0.0,0.0
748,186.75,33.9105,36.0839,159.815,101.937,99.354,,,,468.857,0.235543,0.0,0.0
750,187.25,33.418,36.6615,159.44,101.944,99.5579,,,,468.857,0.21733,0.0,0.0
752,187.75,33.4021,35.9729,162.036,101.933,100.148,,,,468.857,0.162171,0.0,0.0
754,188.25,34.2351,36.508,160.223,101.93,99.1512,,,,468.867,0.253665,0.0,0.0
756,188.75,33.6304,36.4548,162.003,101.936,99.5001,,,,468.877,0.221917,0.0,0.0
758,189.25,34.5502,35.6264,161.716,101.932,99.5579,,,,468.857,0.216253,0.0,0.0