File: 01_Data/Bean_Bag_Chair_Inner_Lining/STA/N2/30K_min/Bean_Bag_Liner_STA_N2_30KData_220516_R1.csv
##Temp./Â°C,Time/min,Mass loss(subtr.2)/mg,DSC(subtr.2)/(mW/mg),Sensit./(uV/mW)
48.581,10.01,-0.00758,-0.00333232,1.054
49.281,10.55931,-0.00784106,0.03467056,1.05386
49.981,10.68265,-0.0078086,0.06707445,1.05372
50.681,10.77492,-0.006210787,0.09292465,1.05357
51.381,10.8485,-0.007917298,0.12044,1.05343
52.081,10.9116,-0.00658166,0.14772,1.05328
52.781,10.96855,-0.006835931,0.1695,1.05314
53.481,11.02096,-0.006510935,0.18973,1.05299
54.181,11.06885,-0.005628477,0.20996,1.05284
54.881,11.11389,-0.00618763,0.22916,1.05269
55.581,11.15652,-0.00694172,0.24748,1.05254
56.281,11.19721,-0.007545744,0.26279,1.05239
56.981,11.2361,-0.00728023,0.27965,1.05224
57.681,11.27368,-0.007125436,0.29516,1.05209
58.381,11.30997,-0.007790167,0.30717,1.05193
59.081,11.34512,-0.00638377,0.32149,1.05178
59.781,11.3794,-0.00765858,0.33518,1.05162
60.481,11.41291,-0.007256467,0.34715,1.05147
61.181,11.44554,-0.007242426,0.35803,1.05131
61.881,11.47751,-0.00804702,0.36837,1.05115
62.581,11.50891,-0.00819117,0.38196,1.05099
63.281,11.53979,-0.007913599,0.39136,1.05083
63.981,11.57019,-0.00702279,0.40123,1.05067
64.681,11.60004,-0.007030866,0.41218,1.05051
65.381,11.6296,-0.00727062,0.42175,1.05035
66.081,11.65845,-0.005294819,0.43013,1.05018
66.781,11.6872,-0.005576632,0.44192,1.05002
67.481,11.71562,-0.00668513,0.45079,1.04986
68.181,11.74383,-0.007532061,0.45749,1.04969
68.881,11.77162,-0.006926835,0.4686,1.04952
69.581,11.799,-0.00681906,0.47574,1.04936
70.281,11.82618,-0.007567895,0.48517,1.04919
70.981,11.85335,-0.007145028,0.49225,1.04902
71.681,11.88033,-0.007156079,0.50466,1.04885
72.381,11.9072,-0.00773419,0.50954,1.04868
73.081,11.9335,-0.007769123,0.51952,1.0485
73.781,11.95995,-0.007790796,0.52544,1.04833
74.481,11.98616,-0.007224328,0.5332,1.04816
75.181,12.01252,-0.007054658,0.54111,1.04798
75.881,12.03855,-0.007205352,0.54689,1.04781
76.581,12.06434,-0.008105951,0.55443,1.04763
77.281,12.09018,-0.007926467,0.55925,1.04745
77.981,12.1157,-0.008111501,0.56046,1.04728
78.681,12.1412,-0.00777759,0.56247,1.0471
79.381,12.16645,-0.006861123,0.56147,1.04692
80.081,12.19165,-0.007979652,0.56353,1.04674
80.781,12.21672,-0.00810994,0.55967,1.04655
81.481,12.2418,-0.0076925,0.55918,1.04637
82.181,12.26667,-0.008066388,0.55736,1.04619
82.881,12.29159,-0.0074433,0.55352,1.046
83.581,12.31659,-0.007653091,0.54855,1.04582
84.281,12.3414,-0.00769704,0.547,1.04563
84.981,12.36608,-0.00819587,0.54339,1.04545
85.681,12.39044,-0.00841135,0.53921,1.04526
86.381,12.41485,-0.008468266,0.53785,1.04507
87.081,12.439,-0.007919974,0.53395,1.04488
87.781,12.46337,-0.007897497,0.53378,1.04469
88.481,12.48762,-0.007892076,0.53062,1.0445
89.181,12.51179,-0.00753321,0.52933,1.04431
89.881,12.53618,-0.00792471,0.52423,1.04412
90.581,12.5601,-0.00789997,0.5228,1.04392
91.281,12.584,-0.007900404,0.52244,1.04373
91.981,12.60798,-0.0079064,0.52266,1.04353
92.681,12.63192,-0.006483447,0.51973,1.04334
93.381,12.65612,-0.007703943,0.51951,1.04314
94.081,12.68011,-0.00790114,0.51974,1.04294
94.781,12.70393,-0.006933388,0.52061,1.04274
95.481,12.72772,-0.007061,0.51873,1.04254
96.181,12.75131,-0.007843424,0.51817,1.04234
96.881,12.77507,-0.006533945,0.51613,1.04214
97.581,12.7987,-0.00653155,0.51655,1.04194
98.281,12.82235,-0.00788837,0.51886,1.04174
98.981,12.84603,-0.006451104,0.52218,1.04153
99.681,12.86952,-0.007883248,0.52061,1.04133
100.381,12.89308,-0.007935918,0.52382,1.04112
101.081,12.91655,-0.00674291,0.52405,1.04092
101.781,12.94019,-0.006925553,0.52686,1.04071
102.481,12.96375,-0.007873416,0.52695,1.0405
103.181,12.98731,-0.00789679,0.52758,1.04029
103.881,13.01091,-0.007492459,0.53459,1.04008
104.581,13.0344,-0.008020905,0.5372,1.03987
105.281,13.05793,-0.00790364,0.53873,1.03966
105.981,13.08136,-0.007899075,0.5413,1.03945
106.681,13.10479,-0.007858881,0.5428,1.03923
107.381,13.1282,-0.007959467,0.54639,1.03902
108.081,13.1516,-0.007897148,0.55042,1.03881
108.781,13.1749,-0.00783309,0.55409,1.03859
109.481,13.19832,-0.00651127,0.55809,1.03837
110.181,13.22166,-0.007938266,0.56141,1.03816
110.881,13.2451,-0.007901923,0.56576,1.03794
111.581,13.2685,-0.00788354,0.56911,1.03772
112.281,13.2919,-0.00674001,0.57353,1.0375
112.981,13.31529,-0.007843915,0.57601,1.03728
113.681,13.33864,-0.007899646,0.57892,1.03706
114.381,13.362,-0.007897235,0.58321,1.03684
115.081,13.38525,-0.008785831,0.58692,1.03661
115.781,13.4085,-0.009212599,0.58974,1.03639
116.481,13.43162,-0.009221514,0.5948,1.03617
117.181,13.45486,-0.009267487,0.59835,1.03594
117.881,13.47802,-0.007988233,0.60156,1.03571
118.581,13.5012,-0.00790791,0.60699,1.03549
119.281,13.5245,-0.007909711,0.61133,1.03526
119.981,13.54757,-0.007909552,0.61421,1.03503
120.681,13.5707,-0.00791324,0.61962,1.0348
121.381,13.5939,-0.008238915,0.6239,1.03457
122.081,13.6169,-0.009091451,0.62517,1.03434
122.781,13.63999,-0.007899888,0.62777,1.03411
123.481,13.6631,-0.007901807,0.63092,1.03387
124.181,13.6861,-0.0079001,0.63406,1.03364
124.881,13.70931,-0.007900001,0.63971,1.03341
125.581,13.7323,-0.007899998,0.64441,1.03317
126.281,13.75525,-0.007899961,0.64804,1.03293
126.981,13.7781,-0.007899561,0.65056,1.0327
127.681,13.8009,-0.007904817,0.65535,1.03246
128.381,13.82383,-0.008264054,0.65739,1.03222
129.081,13.8468,-0.007820974,0.65995,1.03198
129.781,13.8696,-0.007571773,0.66269,1.03174
130.481,13.89243,-0.007552324,0.66779,1.0315
131.181,13.9152,-0.007932554,0.67104,1.03126
131.881,13.93799,-0.007901794,0.67333,1.03102
132.581,13.96083,-0.007892345,0.67573,1.03077
133.281,13.98356,-0.008848416,0.67944,1.03053
133.981,14.0063,-0.009183629,0.6785,1.03028
134.681,14.0289,-0.008327884,0.68419,1.03004
135.381,14.05151,-0.007901253,0.68748,1.02979
136.081,14.0742,-0.00790013,0.68948,1.02954
136.781,14.0968,-0.007900006,0.69447,1.0293
137.481,14.11934,-0.0079,0.70034,1.02905
138.181,14.14194,-0.007899986,0.70167,1.0288
138.881,14.1645,-0.007899573,0.70328,1.02855
139.581,14.18701,-0.007893348,0.70965,1.0283
140.281,14.20948,-0.009187385,0.71296,1.02804
140.981,14.2319,-0.009220313,0.71554,1.02779
141.681,14.2543,-0.009002583,0.71591,1.02754
142.381,14.2767,-0.00787646,0.72084,1.02728
143.081,14.29911,-0.00790942,0.72178,1.02703
143.781,14.3215,-0.007910084,0.72376,1.02677
144.481,14.3438,-0.007911408,0.72858,1.02651
145.181,14.3661,-0.007935568,0.7328,1.02626
145.881,14.3884,-0.008740616,0.73325,1.026
146.581,14.4107,-0.009226086,0.73997,1.02574
147.281,14.433,-0.008315349,0.74113,1.02548
147.981,14.45519,-0.00791277,0.74332,1.02522
148.681,14.4774,-0.00790002,0.74521,1.02496
149.381,14.4994,-0.00789769,0.74683,1.02469
150.081,14.52166,-0.008030697,0.75153,1.02443
150.781,14.54391,-0.008861616,0.75394,1.02417
151.481,14.56613,-0.008888424,0.75713,1.0239
152.181,14.5885,-0.00888996,0.75996,1.02364
152.881,14.61062,-0.008889987,0.76018,1.02337
153.581,14.6327,-0.008888988,0.76208,1.0231
154.281,14.6548,-0.00886654,0.76727,1.02284
154.981,14.6769,-0.008214256,0.77094,1.02257
155.681,14.6988,-0.007564471,0.76869,1.0223
156.381,14.72088,-0.00762705,0.77448,1.02203
157.081,14.7429,-0.008896626,0.77544,1.02176
157.781,14.76484,-0.008890468,0.77904,1.02149
158.481,14.78689,-0.008889929,0.78262,1.02121
159.181,14.80892,-0.0088893,0.78395,1.02094
159.881,14.83097,-0.008902181,0.78702,1.02067
160.581,14.85285,-0.00816351,0.79189,1.02039
161.281,14.8749,-0.008225276,0.792,1.02012
161.981,14.8969,-0.00822978,0.79501,1.01984
162.681,14.9189,-0.00823,0.79492,1.01956
163.381,14.94099,-0.00822991,0.79864,1.01929
164.081,14.96285,-0.008225981,0.80203,1.01901
164.781,14.98475,-0.009059228,0.80312,1.01873
165.481,15.0066,-0.009532284,0.806,1.01845
166.181,15.02844,-0.00954945,0.80789,1.01817
166.881,15.0504,-0.009549977,0.8086,1.01789
167.581,15.07223,-0.00954692,0.81112,1.0176
168.281,15.09405,-0.009450215,0.81301,1.01732
168.981,15.1159,-0.00886911,0.81803,1.01704
169.681,15.13775,-0.008889105,0.82019,1.01675
170.381,15.15957,-0.008889757,0.81795,1.01647
171.081,15.1814,-0.008903352,0.82279,1.01618
171.781,15.20318,-0.007965184,0.8247,1.01589
172.481,15.225,-0.007492473,0.82601,1.01561
173.181,15.24678,-0.00886311,0.8293,1.01532
173.881,15.26857,-0.00888953,0.83181,1.01503
174.581,15.2903,-0.008890007,0.83424,1.01474
175.281,15.312,-0.008890002,0.83347,1.01445
175.981,15.3337,-0.00889,0.83744,1.01416
176.681,15.35534,-0.00889,0.84079,1.01387
177.381,15.37698,-0.008889995,0.84084,1.01357
178.081,15.3986,-0.008889954,0.8435,1.01328
178.781,15.4203,-0.00889021,0.8453,1.01298
179.481,15.44191,-0.008910108,0.85011,1.01269
180.181,15.4636,-0.008744393,0.85097,1.01239
180.881,15.48518,-0.009199975,0.85251,1.0121
181.581,15.5067,-0.009217069,0.85616,1.0118
182.281,15.52829,-0.009012619,0.85578,1.0115
182.981,15.54975,-0.007896141,0.85651,1.0112
183.681,15.5713,-0.007888706,0.85902,1.0109
184.381,15.5928,-0.008787207,0.86355,1.0106
185.081,15.6142,-0.009196518,0.86453,1.0103
185.781,15.63574,-0.00920919,0.86685,1.01
186.481,15.6573,-0.009209962,0.86962,1.0097
187.181,15.67881,-0.009209999,0.87206,1.0094
187.881,15.7003,-0.00921,0.87343,1.00909
188.581,15.7218,-0.009210012,0.87397,1.00879
189.281,15.74324,-0.009210325,0.87987,1.00848
189.981,15.76462,-0.00921616,0.88071,1.00818
190.681,15.786,-0.009379184,0.87944,1.00787
191.381,15.80741,-0.00988349,0.88221,1.00756
192.081,15.82876,-0.00987043,0.88651,1.00725
192.781,15.8501,-0.009869998,0.88791,1.00694
193.481,15.8714,-0.009869999,0.8914,1.00663
194.181,15.8928,-0.00987002,0.89072,1.00632
194.881,15.91419,-0.009870413,0.89372,1.00601
195.581,15.9356,-0.009876852,0.8951,1.0057
196.281,15.9569,-0.009964888,0.89496,1.00539
196.981,15.97825,-0.008569031,0.89731,1.00508
197.681,15.9995,-0.008560134,0.89994,1.00476
198.381,16.02082,-0.008559987,0.8999,1.00445
199.081,16.04214,-0.008559983,0.90349,1.00413
199.781,16.06343,-0.00855966,0.90451,1.00382
200.481,16.0848,-0.008553771,0.90615,1.0035
201.181,16.1062,-0.00846356,0.90852,1.00318
201.881,16.12748,-0.00985105,0.91059,1.00286
202.581,16.14868,-0.009869513,0.91309,1.00254
203.281,16.16991,-0.009869997,0.91388,1.00222
203.981,16.1911,-0.009870234,0.91598,1.0019
204.681,16.21239,-0.0098776,0.91889,1.00158
205.381,16.23368,-0.01006574,0.92131,1.00126
206.081,16.25508,-0.01070737,0.92275,1.00094
206.781,16.27638,-0.01053773,0.92468,1.00062
207.481,16.2976,-0.01053036,0.92712,1.00029
208.181,16.3189,-0.01053001,0.92618,0.99997
208.881,16.3401,-0.01053,0.93226,0.99964
209.581,16.3614,-0.01052932,0.93381,0.99932
210.281,16.38266,-0.0105112,0.93481,0.99899
210.981,16.40389,-0.01089568,0.93595,0.99866
211.681,16.42513,-0.0108625,0.94183,0.99833
212.381,16.4464,-0.01086266,0.94478,0.99801
213.081,16.4676,-0.01089192,0.94553,0.99768
213.781,16.48881,-0.01052229,0.94814,0.99735
214.481,16.5101,-0.01053001,0.9494,0.99702
215.181,16.5312,-0.01052621,0.95256,0.99668
215.881,16.55244,-0.01040858,0.95522,0.99635
216.581,16.57376,-0.009523627,0.95891,0.99602
217.281,16.59499,-0.009538888,0.95986,0.99569
217.981,16.6162,-0.00953984,0.96512,0.99535
218.681,16.63747,-0.009538781,0.96662,0.99502
219.381,16.65864,-0.009528261,0.96798,0.99468
220.081,16.6798,-0.008899312,0.97307,0.99434
220.781,16.70103,-0.008887476,0.97763,0.99401
221.481,16.7222,-0.008889695,0.98023,0.99367
222.181,16.74341,-0.008889975,0.98493,0.99333
222.881,16.76462,-0.00889,0.98877,0.99299
223.581,16.7858,-0.00888997,0.99129,0.99265
224.281,16.807,-0.0088896,0.9956,0.99231
224.981,16.82818,-0.008885593,1.00131,0.99197
225.681,16.84933,-0.01015764,1.00602,0.99163
226.381,16.87049,-0.01020187,1.01307,0.99129
227.081,16.89164,-0.01020038,1.01709,0.99094
227.781,16.91281,-0.01020059,1.02224,0.9906
228.481,16.93396,-0.01021082,1.02621,0.99026
229.181,16.9551,-0.01047098,1.03175,0.98991
229.881,16.97625,-0.01155912,1.03808,0.98956
230.581,16.99738,-0.01152196,1.04294,0.98922
231.281,17.01855,-0.01152007,1.0481,0.98887
231.981,17.0396,-0.01152,1.05402,0.98852
232.681,17.0608,-0.01152001,1.06111,0.98818
233.381,17.08201,-0.01152019,1.06892,0.98783
234.081,17.10304,-0.01152427,1.07668,0.98748
234.781,17.12422,-0.01160063,1.08361,0.98713
235.481,17.14528,-0.01025759,1.09325,0.98677
236.181,17.16637,-0.01020833,1.10123,0.98642
236.881,17.18755,-0.0102867,1.11117,0.98607
237.581,17.2088,-0.008895514,1.12522,0.98572
238.281,17.2299,-0.008890044,1.13559,0.98536
238.981,17.25112,-0.008886804,1.15014,0.98501
239.681,17.2723,-0.009367305,1.16384,0.98465
240.381,17.2934,-0.009853536,1.18013,0.9843
241.081,17.3146,-0.009868968,1.19862,0.98394
241.781,17.33576,-0.009871883,1.21879,0.98359
242.481,17.35691,-0.010005,1.24265,0.98323
243.181,17.37792,-0.01122876,1.26627,0.98287
243.881,17.3991,-0.01119118,1.29808,0.98251
244.581,17.42016,-0.01118994,1.33317,0.98215
245.281,17.4413,-0.01118383,1.37798,0.98179
245.981,17.46249,-0.01099643,1.44516,0.98143
246.681,17.48357,-0.009863158,1.53141,0.98107
247.381,17.50476,-0.00986953,1.62608,0.98071
248.081,17.5259,-0.009869972,1.72194,0.98034
248.781,17.5471,-0.009869999,1.82574,0.97998
249.481,17.5683,-0.00987,1.93167,0.97962
250.181,17.58948,-0.00987,2.03853,0.97925
250.881,17.61075,-0.00987,2.14818,0.97889
251.581,17.632,-0.00986999,2.2604,0.97852
252.281,17.65331,-0.00986967,2.37084,0.97815
252.981,17.67464,-0.009863795,2.48294,0.97779
253.681,17.69595,-0.009773423,2.59418,0.97742
254.381,17.71728,-0.01116891,2.70632,0.97705
255.081,17.7386,-0.0111895,2.81143,0.97668
255.781,17.75996,-0.01119,2.90041,0.97631
256.481,17.78131,-0.01118997,2.97385,0.97594
257.181,17.80266,-0.01118901,3.02207,0.97557
257.881,17.82394,-0.01116971,3.02588,0.9752
258.581,17.84525,-0.01070026,2.97978,0.97482
259.281,17.8665,-0.00986517,2.8791,0.97445
259.981,17.88774,-0.009869892,2.73568,0.97408
260.681,17.9089,-0.009870987,2.58072,0.9737
261.381,17.93001,-0.01020112,2.4212,0.97333
262.081,17.95107,-0.01117655,2.2724,0.97295
262.781,17.97213,-0.01118845,2.14019,0.97258
263.481,17.99325,-0.01118987,2.0161,0.9722
264.181,18.01435,-0.01118999,1.9035,0.97182
264.881,18.03545,-0.01119,1.81292,0.97145
265.581,18.05654,-0.01119,1.72682,0.97107
266.281,18.07754,-0.01119,1.64926,0.97069
266.981,18.09854,-0.01119,1.59036,0.97031
267.681,18.11949,-0.01118999,1.53344,0.96993
268.381,18.1404,-0.01119018,1.48659,0.96955
269.081,18.1614,-0.01119933,1.44203,0.96916
269.781,18.1824,-0.01082871,1.40237,0.96878
270.481,18.2033,-0.01085666,1.36995,0.9684
271.181,18.22417,-0.01084631,1.34177,0.96802
271.881,18.24505,-0.01055945,1.31773,0.96763
272.581,18.2659,-0.00985678,1.29636,0.96725
273.281,18.28679,-0.009869246,1.27709,0.96686
273.981,18.30782,-0.009869963,1.25912,0.96648
274.681,18.3289,-0.009869992,1.2464,0.96609
275.381,18.34995,-0.009869995,1.23398,0.9657
276.081,18.371,-0.00987167,1.22564,0.96531
276.781,18.39208,-0.009924136,1.21361,0.96493
277.481,18.41313,-0.01083549,1.20892,0.96454
278.181,18.4341,-0.01149341,1.20173,0.96415
278.881,18.4551,-0.0115187,1.19443,0.96376
279.581,18.47604,-0.01152691,1.18661,0.96337
280.281,18.49701,-0.01161437,1.18322,0.96298
280.981,18.51804,-0.01021218,1.17836,0.96258
281.681,18.5391,-0.01020022,1.17786,0.96219
282.381,18.56014,-0.01020021,1.17321,0.9618
283.081,18.58111,-0.01022747,1.17067,0.9614
283.781,18.60205,-0.01052233,1.16795,0.96101
284.481,18.6231,-0.01052934,1.16589,0.96062
285.181,18.64411,-0.01052995,1.16472,0.96022
285.881,18.66514,-0.01053,1.16272,0.95982
286.581,18.6863,-0.01053,1.16191,0.95943
287.281,18.70737,-0.01053,1.16171,0.95903
287.981,18.72837,-0.01053,1.15954,0.95863
288.681,18.74943,-0.01053,1.15913,0.95823
289.381,18.77048,-0.01053,1.15875,0.95783
290.081,18.7915,-0.01053,1.15769,0.95744
290.781,18.81253,-0.01053,1.15965,0.95703
291.481,18.83352,-0.01053002,1.15931,0.95663
292.181,18.85451,-0.01053028,1.15759,0.95623
292.881,18.8756,-0.01053438,1.15689,0.95583
293.581,18.8967,-0.01069093,1.15965,0.95543
294.281,18.91787,-0.01154536,1.15921,0.95503
294.981,18.9391,-0.01152071,1.15938,0.95462
295.681,18.96017,-0.01151999,1.15883,0.95422
296.381,18.98125,-0.01151997,1.16033,0.95381
297.081,19.00231,-0.01151913,1.15981,0.95341
297.781,19.02334,-0.01149014,1.16,0.953
298.481,19.04433,-0.01010531,1.16057,0.9526
299.181,19.06545,-0.01019395,1.15953,0.95219
299.881,19.08653,-0.01019916,1.16119,0.95178
300.581,19.10768,-0.01019394,1.15915,0.95137
301.281,19.12885,-0.01144156,1.15898,0.95096
301.981,19.14996,-0.01151982,1.16186,0.95055
302.681,19.17108,-0.01152098,1.16213,0.95014
303.381,19.1922,-0.0115427,1.1631,0.94973
304.081,19.21324,-0.01059449,1.16321,0.94932
304.781,19.23418,-0.01021438,1.16076,0.94891
305.481,19.25516,-0.01020995,1.16306,0.9485
306.181,19.27627,-0.01041408,1.16368,0.94809
306.881,19.29745,-0.01052525,1.16358,0.94767
307.581,19.31881,-0.01052985,1.16326,0.94726
308.281,19.34013,-0.01053,1.16312,0.94685
308.981,19.36125,-0.01052988,1.16423,0.94643
309.681,19.3824,-0.0105267,1.16521,0.94602
310.381,19.40351,-0.01121872,1.1641,0.9456
311.081,19.42462,-0.01182482,1.16279,0.94518
311.781,19.44572,-0.01184845,1.1633,0.94477
312.481,19.46688,-0.01184992,1.16294,0.94435
313.181,19.48803,-0.01185,1.1631,0.94393
313.881,19.5092,-0.01185,1.16265,0.94351
314.581,19.53042,-0.01185,1.1632,0.94309
315.281,19.55159,-0.01185,1.16511,0.94267
315.981,19.57268,-0.01185001,1.16552,0.94225
316.681,19.59386,-0.0118501,1.16614,0.94183
317.381,19.61499,-0.01185171,1.16437,0.94141
318.081,19.63614,-0.0119521,1.16339,0.94099
318.781,19.65738,-0.01322108,1.1646,0.94057
319.481,19.67851,-0.01317192,1.16689,0.94014
320.181,19.69973,-0.01316987,1.16591,0.93972
320.881,19.72091,-0.01317842,1.16554,0.93929
321.581,19.74211,-0.01233507,1.16672,0.93887
322.281,19.76332,-0.01186367,1.16527,0.93844
322.981,19.7845,-0.01185086,1.16711,0.93802
323.681,19.80578,-0.01184824,1.16624,0.93759
324.381,19.82702,-0.01182552,1.16553,0.93717
325.081,19.84827,-0.01103229,1.16598,0.93674
325.781,19.86947,-0.01053933,1.16845,0.93631
326.481,19.8906,-0.01054006,1.16814,0.93588
327.181,19.91183,-0.01054067,1.16744,0.93545
327.881,19.933,-0.01055566,1.16727,0.93502
328.581,19.9543,-0.01091718,1.16757,0.93459
329.281,19.97553,-0.01185619,1.16647,0.93416
329.981,19.99674,-0.01185034,1.16936,0.93373
330.681,20.01792,-0.01185002,1.16777,0.9333
331.381,20.0392,-0.01185,1.16741,0.93287
332.081,20.06038,-0.01185,1.16854,0.93244
332.781,20.08163,-0.01185004,1.17001,0.932
333.481,20.10295,-0.01185109,1.16897,0.93157
334.181,20.12421,-0.01189614,1.16978,0.93114
334.881,20.14549,-0.01325526,1.1696,0.9307
335.581,20.1666,-0.01317479,1.17115,0.93027
336.281,20.18779,-0.01317022,1.17113,0.92983
336.981,20.2091,-0.01317001,1.17161,0.92939
337.681,20.23045,-0.01317,1.17269,0.92896
338.381,20.25187,-0.01317,1.17402,0.92852
339.081,20.2733,-0.01317,1.17603,0.92808
339.781,20.2946,-0.01317,1.17693,0.92764
340.481,20.31588,-0.01317,1.17691,0.9272
341.181,20.3372,-0.01317,1.18078,0.92677
341.881,20.35858,-0.01317,1.18225,0.92633
342.581,20.3799,-0.01317,1.18228,0.92589
343.281,20.40119,-0.01317,1.18272,0.92544
343.981,20.4224,-0.01316994,1.18646,0.925
344.681,20.44371,-0.0131686,1.18563,0.92456
345.381,20.465,-0.0131456,1.18643,0.92412
346.081,20.48635,-0.01374288,1.18675,0.92368
346.781,20.50771,-0.01382687,1.1856,0.92323
347.481,20.52905,-0.01382991,1.18892,0.92279
348.181,20.55041,-0.01383,1.19035,0.92235
348.881,20.57175,-0.01383,1.19085,0.9219
349.581,20.59318,-0.01383,1.1895,0.92146
350.281,20.6146,-0.01383,1.19228,0.92101
350.981,20.636,-0.01383,1.19309,0.92056
351.681,20.65735,-0.01383003,1.19362,0.92012
352.381,20.67865,-0.01383031,1.19411,0.91967
353.081,20.69996,-0.01383018,1.19532,0.91922
353.781,20.72131,-0.01421447,1.19595,0.91877
354.481,20.7427,-0.01447836,1.19731,0.91833
355.181,20.76416,-0.01435703,1.19909,0.91788
355.881,20.7856,-0.0141678,1.20181,0.91743
356.581,20.80704,-0.01415559,1.20241,0.91698
357.281,20.8285,-0.01411261,1.20301,0.91653
357.981,20.8499,-0.01481115,1.20473,0.91607
358.681,20.87133,-0.01480917,1.20542,0.91562
359.381,20.89273,-0.01480991,1.2074,0.91517
360.081,20.91415,-0.01480999,1.20966,0.91472
360.781,20.9355,-0.01481,1.20965,0.91427
361.481,20.9569,-0.01481,1.21109,0.91381
362.181,20.9783,-0.01481002,1.21163,0.91336
362.881,20.99963,-0.01481006,1.21381,0.9129
363.581,21.0211,-0.01480686,1.21522,0.91245
364.281,21.04257,-0.01532481,1.21658,0.91199
364.981,21.06405,-0.01591167,1.21842,0.91154
365.681,21.0855,-0.0161206,1.21911,0.91108
366.381,21.10681,-0.0161295,1.22124,0.91062
367.081,21.12813,-0.01613002,1.22347,0.91017
367.781,21.14949,-0.01613019,1.22518,0.90971
368.481,21.17087,-0.01612446,1.22525,0.90925
369.181,21.19237,-0.01649156,1.22821,0.90879
369.881,21.2138,-0.01646593,1.22826,0.90833
370.581,21.23526,-0.0165191,1.22856,0.90787
371.281,21.2567,-0.01551786,1.23126,0.90741
371.981,21.27811,-0.01542356,1.23366,0.90695
372.681,21.29944,-0.01645409,1.23737,0.90649
373.381,21.32102,-0.01646058,1.23711,0.90603
374.081,21.3427,-0.01646015,1.23973,0.90557
374.781,21.36436,-0.01646157,1.24197,0.90511
375.481,21.3861,-0.01648551,1.24385,0.90464
376.181,21.40771,-0.01722693,1.24649,0.90418
376.881,21.42919,-0.01778097,1.24921,0.90372
377.581,21.45074,-0.01777995,1.25169,0.90325
378.281,21.4724,-0.01778,1.25246,0.90279
378.981,21.49385,-0.0177801,1.25483,0.90232
379.681,21.5154,-0.01778171,1.25689,0.90186
380.381,21.53697,-0.01780364,1.25988,0.90139
381.081,21.5585,-0.01842098,1.26185,0.90092
381.781,21.58011,-0.01778156,1.26312,0.90046
382.481,21.60144,-0.01778117,1.2681,0.89999
383.181,21.62283,-0.01778014,1.26783,0.89952
383.881,21.6443,-0.01778047,1.27262,0.89905
384.581,21.66568,-0.01778753,1.27464,0.89859
385.281,21.68732,-0.01932833,1.2779,0.89812
385.981,21.70897,-0.02041476,1.28197,0.89765
386.681,21.73055,-0.0204092,1.283,0.89718
387.381,21.75214,-0.02036905,1.28587,0.89671
388.081,21.77373,-0.0216234,1.29191,0.89624
388.781,21.79531,-0.02172846,1.29543,0.89576
389.481,21.81682,-0.02173098,1.30065,0.89529
390.181,21.83836,-0.02174057,1.3059,0.89482
390.881,21.8599,-0.02238409,1.30842,0.89435
391.581,21.88148,-0.02245551,1.31236,0.89387
392.281,21.90311,-0.02371401,1.31876,0.8934
392.981,21.92482,-0.02397465,1.32471,0.89293
393.681,21.94651,-0.0254319,1.33149,0.89245
394.381,21.96823,-0.02532354,1.33855,0.89198
395.081,21.98992,-0.02667721,1.34692,0.8915
395.781,22.01166,-0.02681175,1.35386,0.89103
396.481,22.03333,-0.0282055,1.35853,0.89055
397.181,22.055,-0.02936915,1.36363,0.89008
397.881,22.07668,-0.02963413,1.3715,0.8896
398.581,22.09834,-0.03128873,1.37903,0.88912
399.281,22.11996,-0.03238543,1.38639,0.88864
399.981,22.14166,-0.03293958,1.39071,0.88817
400.681,22.16335,-0.03420658,1.39868,0.88769
401.381,22.185,-0.03558744,1.4077,0.88721
402.081,22.20672,-0.03639948,1.41615,0.88673
402.781,22.22845,-0.03741935,1.42346,0.88625
403.481,22.25016,-0.03876015,1.43792,0.88577
404.181,22.2719,-0.04083165,1.44641,0.88529
404.881,22.29361,-0.04313542,1.45527,0.88481
405.581,22.31534,-0.04624564,1.46433,0.88432
406.281,22.337,-0.04860622,1.47897,0.88384
406.981,22.3587,-0.05101399,1.49357,0.88336
407.681,22.3805,-0.05318673,1.50318,0.88288
408.381,22.40215,-0.05529486,1.50698,0.88239
409.081,22.42386,-0.05707599,1.5143,0.88191
409.781,22.44559,-0.05893634,1.51673,0.88143
410.481,22.4672,-0.06021503,1.51566,0.88094
411.181,22.48892,-0.06187689,1.51033,0.88046
411.881,22.51064,-0.06242884,1.51132,0.87997
412.581,22.53246,-0.06279798,1.50778,0.87949
413.281,22.55423,-0.06279984,1.51099,0.879
413.981,22.57597,-0.0628,1.51598,0.87852
414.681,22.59773,-0.06280012,1.5164,0.87803
415.381,22.61939,-0.06252703,1.521,0.87754
416.081,22.64115,-0.06123766,1.51777,0.87705
416.781,22.6629,-0.0601815,1.52237,0.87657
417.481,22.68444,-0.05892552,1.52643,0.87608
418.181,22.70616,-0.05531755,1.51806,0.87559
418.881,22.7279,-0.04939152,1.51114,0.8751
419.581,22.74969,-0.043894,1.50355,0.87461
420.281,22.7717,-0.03853847,1.49774,0.87412
420.981,22.79359,-0.03627623,1.49386,0.87363
421.681,22.81544,-0.03487155,1.48978,0.87314
422.381,22.83719,-0.03438361,1.49052,0.87265
423.081,22.85894,-0.03337162,1.48555,0.87216
423.781,22.88071,-0.03202443,1.48282,0.87166
424.481,22.90245,-0.03204453,1.48217,0.87117
425.181,22.92424,-0.03442966,1.48266,0.87068
425.881,22.94592,-0.03881028,1.48044,0.87019
426.581,22.96763,-0.04561392,1.48949,0.86969
427.281,22.98938,-0.05635778,1.49672,0.8692
427.981,23.01107,-0.06465047,1.50483,0.86871
428.681,23.03281,-0.07427893,1.51849,0.86821
429.381,23.05455,-0.08192775,1.53596,0.86772
430.081,23.07628,-0.09158424,1.54871,0.86722
430.781,23.09806,-0.10082,1.56181,0.86672
431.481,23.1199,-0.11248,1.55789,0.86623
432.181,23.14166,-0.12538,1.575,0.86573
432.881,23.1634,-0.13802,1.60974,0.86524
433.581,23.1852,-0.15165,1.62556,0.86474
434.281,23.2069,-0.16477,1.65372,0.86424
434.981,23.2286,-0.18341,1.68224,0.86374
435.681,23.25045,-0.20053,1.71165,0.86324
436.381,23.27225,-0.22253,1.73422,0.86275
437.081,23.29415,-0.24121,1.76186,0.86225
437.781,23.31607,-0.26509,1.79611,0.86175
438.481,23.33786,-0.28644,1.82476,0.86125
439.181,23.35959,-0.31053,1.86164,0.86075
439.881,23.38141,-0.33524,1.893,0.86025
440.581,23.4033,-0.36014,1.93707,0.85975
441.281,23.42511,-0.38775,1.97521,0.85925
441.981,23.44705,-0.4126,2.00805,0.85874
442.681,23.46892,-0.44363,2.03426,0.85824
443.381,23.49075,-0.47012,2.0615,0.85774
444.081,23.51249,-0.5038,2.09347,0.85724
444.781,23.5343,-0.53179,2.12259,0.85673
445.481,23.55612,-0.56633,2.15699,0.85623
446.181,23.57795,-0.59784,2.19277,0.85573
446.881,23.59994,-0.6315,2.22239,0.85522
447.581,23.62183,-0.66699,2.25105,0.85472
448.281,23.6437,-0.70243,2.27686,0.85421
448.981,23.6656,-0.74251,2.28869,0.85371
449.681,23.68745,-0.77904,2.32508,0.8532
450.381,23.7093,-0.82403,2.34384,0.8527
451.081,23.7312,-0.86013,2.37089,0.85219
451.781,23.75311,-0.90461,2.395,0.85168
452.481,23.77494,-0.94255,2.40799,0.85118
453.181,23.79685,-0.98904,2.42308,0.85067
453.881,23.8187,-1.03217,2.43171,0.85016
454.581,23.84068,-1.07916,2.43431,0.84965
455.281,23.8627,-1.1269,2.44179,0.84915
455.981,23.8846,-1.17223,2.47345,0.84864
456.681,23.90655,-1.22498,2.48315,0.84813
457.381,23.9284,-1.26976,2.49171,0.84762
458.081,23.9503,-1.32558,2.50202,0.84711
458.781,23.97222,-1.37203,2.51016,0.8466
459.481,23.9941,-1.42898,2.51128,0.84609
460.181,24.016,-1.47662,2.51723,0.84558
460.881,24.03792,-1.53166,2.51954,0.84507
461.581,24.0598,-1.58314,2.51949,0.84456
462.281,24.0819,-1.63649,2.51766,0.84405
462.981,24.1038,-1.70022,2.50943,0.84353
463.681,24.1257,-1.7658,2.50157,0.84302
464.381,24.1477,-1.82015,2.48735,0.84251
465.081,24.16957,-1.87437,2.46731,0.842
465.781,24.19156,-1.92869,2.44645,0.84148
466.481,24.21349,-1.98329,2.42027,0.84097
467.181,24.23548,-2.03832,2.38923,0.84045
467.881,24.25754,-2.09232,2.35369,0.83994
468.581,24.27945,-2.14811,2.31557,0.83943
469.281,24.3015,-2.19883,2.27471,0.83891
469.981,24.32335,-2.24324,2.22414,0.8384
470.681,24.34528,-2.29047,2.17494,0.83788
471.381,24.36729,-2.3329,2.11746,0.83736
472.081,24.38928,-2.38105,2.05997,0.83685
472.781,24.41131,-2.42506,1.99772,0.83633
473.481,24.43326,-2.46632,1.93011,0.83581
474.181,24.45513,-2.50841,1.86665,0.8353
474.881,24.47705,-2.54429,1.79801,0.83478
475.581,24.49898,-2.58328,1.73003,0.83426
476.281,24.52091,-2.61305,1.65845,0.83374
476.981,24.54289,-2.64777,1.58866,0.83323
477.681,24.5649,-2.67505,1.51752,0.83271
478.381,24.58681,-2.70358,1.44864,0.83219
479.081,24.60878,-2.72665,1.38197,0.83167
479.781,24.63079,-2.74908,1.3169,0.83115
480.481,24.65285,-2.77093,1.25306,0.83063
481.181,24.67486,-2.7896,1.19503,0.83011
481.881,24.6969,-2.80912,1.1396,0.82959
482.581,24.71896,-2.82451,1.08454,0.82907
483.281,24.7409,-2.84156,1.03728,0.82855
483.981,24.76292,-2.85427,0.98867,0.82803
484.681,24.78496,-2.86834,0.94353,0.8275
485.381,24.80698,-2.87977,0.90124,0.82698
486.081,24.82885,-2.89176,0.8623,0.82646
486.781,24.8508,-2.90238,0.82275,0.82594
487.481,24.8728,-2.91292,0.7859,0.82541
488.181,24.89477,-2.92319,0.74777,0.82489
488.881,24.91695,-2.93214,0.71504,0.82437
489.581,24.93904,-2.94106,0.6804,0.82384
490.281,24.96105,-2.94806,0.64998,0.82332
490.981,24.9831,-2.95668,0.61714,0.82279
491.681,25.0051,-2.96314,0.58611,0.82227
492.381,25.0272,-2.97013,0.55798,0.82174
493.081,25.0492,-2.97703,0.52933,0.82122
493.781,25.0714,-2.9839,0.50308,0.82069
494.481,25.09344,-2.98976,0.47599,0.82017
495.181,25.11553,-2.99462,0.45265,0.81964
495.881,25.1376,-3.00033,0.42614,0.81912
496.581,25.1597,-3.0046,0.40172,0.81859
497.281,25.1818,-3.00954,0.38033,0.81806
497.981,25.20395,-3.01438,0.35772,0.81753
498.681,25.22608,-3.01834,0.33633,0.81701
499.381,25.24825,-3.02262,0.31783,0.81648
500.081,25.27024,-3.02534,0.29774,0.81595
500.781,25.29218,-3.02916,0.2798,0.81542
501.481,25.3143,-3.03262,0.26539,0.81489
502.181,25.33645,-3.03591,0.24578,0.81436
502.881,25.3588,-3.04037,0.23374,0.81384
503.581,25.38123,-3.04401,0.21741,0.81331
504.281,25.4035,-3.04791,0.20362,0.81278
504.981,25.4257,-3.05101,0.18836,0.81225
505.681,25.44787,-3.05406,0.17458,0.81172
506.381,25.47008,-3.0567,0.16135,0.81118
507.081,25.49225,-3.05936,0.15589,0.81065
507.781,25.51445,-3.06181,0.13769,0.81012
508.481,25.53654,-3.06474,0.13146,0.80959
509.181,25.55861,-3.06606,0.11916,0.80906
509.881,25.58077,-3.06776,0.10898,0.80853
510.581,25.60299,-3.0697,0.1003,0.808
511.281,25.6252,-3.07227,0.09354465,0.80746
511.981,25.6475,-3.07504,0.08792705,0.80693
512.681,25.66978,-3.07731,0.08039779,0.8064
513.381,25.69199,-3.07948,0.0720722,0.80586
514.081,25.71422,-3.08126,0.06242941,0.80533
514.781,25.73653,-3.08303,0.05743952,0.8048
515.481,25.75881,-3.08523,0.05438872,0.80426
516.181,25.781,-3.08777,0.04761101,0.80373
516.881,25.80339,-3.08984,0.04029728,0.80319
517.581,25.8257,-3.09204,0.0334019,0.80266
518.281,25.8479,-3.09421,0.02967908,0.80212
518.981,25.87035,-3.09648,0.02348486,0.80159
519.681,25.8927,-3.09805,0.02003742,0.80105
520.381,25.9151,-3.09913,0.01736443,0.80052
521.081,25.93763,-3.10033,0.01381319,0.79998
521.781,25.9601,-3.10171,0.0119444,0.79944
522.481,25.9825,-3.10324,0.00897294,0.79891
523.181,26.0048,-3.10356,0.00173776,0.79837
523.881,26.02715,-3.10446,-0.001114372,0.79783
524.581,26.04942,-3.10621,-0.006314939,0.7973
525.281,26.07153,-3.10743,-0.007339487,0.79676
525.981,26.09367,-3.1086,-0.01017678,0.79622
526.681,26.116,-3.10946,-0.01349748,0.79568
527.381,26.13842,-3.11071,-0.01713166,0.79514
528.081,26.161,-3.11083,-0.02003113,0.79461
528.781,26.1835,-3.11235,-0.02207299,0.79407
529.481,26.20591,-3.11327,-0.02406975,0.79353
530.181,26.22833,-3.11385,-0.02769197,0.79299
530.881,26.2507,-3.1152,-0.03175444,0.79245
531.581,26.27314,-3.11585,-0.03713605,0.79191
532.281,26.29557,-3.11646,-0.03838886,0.79137
532.981,26.31793,-3.11776,-0.04077911,0.79083
533.681,26.34038,-3.11783,-0.04477277,0.79029
534.381,26.3628,-3.11901,-0.04872212,0.78975
535.081,26.38519,-3.11911,-0.0505185,0.78921
535.781,26.40765,-3.12038,-0.05238538,0.78867
536.481,26.4301,-3.12048,-0.05422946,0.78812
537.181,26.45252,-3.12184,-0.05754128,0.78758
537.881,26.47493,-3.12171,-0.0595627,0.78704
538.581,26.4974,-3.12309,-0.06133698,0.7865
539.281,26.51988,-3.12311,-0.06401717,0.78596
539.981,26.5423,-3.12311,-0.06765657,0.78541
540.681,26.5649,-3.12306,-0.06914905,0.78487
541.381,26.5873,-3.12431,-0.07039995,0.78433
542.081,26.60983,-3.12442,-0.07191162,0.78378
542.781,26.6324,-3.12564,-0.07564246,0.78324
543.481,26.65492,-3.12638,-0.07634639,0.7827
544.181,26.6775,-3.12641,-0.0794178,0.78215
544.881,26.7,-3.12641,-0.08263339,0.78161
545.581,26.72245,-3.12756,-0.08278607,0.78106
546.281,26.745,-3.12764,-0.08246348,0.78052
546.981,26.7674,-3.12902,-0.08709352,0.77997
547.681,26.78983,-3.12904,-0.08510966,0.77943
548.381,26.81242,-3.12905,-0.08568472,0.77888
549.081,26.835,-3.1293,-0.08804514,0.77834
549.781,26.85766,-3.13038,-0.08820199,0.77779
550.481,26.8803,-3.13036,-0.08938466,0.77725
551.181,26.9028,-3.13037,-0.09058079,0.7767
551.881,26.9252,-3.13053,-0.0928656,0.77616
552.581,26.94776,-3.13069,-0.09122411,0.77561
553.281,26.9703,-3.13069,-0.09343053,0.77506
553.981,26.99294,-3.13071,-0.09458625,0.77451
554.681,27.01567,-3.13208,-0.09511125,0.77397
555.381,27.0384,-3.132,-0.09619231,0.77342
556.081,27.061,-3.132,-0.09672691,0.77287
556.781,27.08362,-3.132,-0.09871931,0.77233
557.481,27.1061,-3.13201,-0.10123,0.77178
558.181,27.1287,-3.13255,-0.09959319,0.77123
558.881,27.1513,-3.1333,-0.10175,0.77068
559.581,27.17397,-3.13441,-0.10169,0.77013
560.281,27.19667,-3.13566,-0.10256,0.76958
560.981,27.2193,-3.13704,-0.10453,0.76903
561.681,27.24192,-3.13886,-0.10441,0.76848
562.381,27.26455,-3.13928,-0.10368,0.76794
563.081,27.28718,-3.14083,-0.1052,0.76739
563.781,27.3099,-3.14329,-0.10457,0.76684
564.481,27.33253,-3.14533,-0.10562,0.76629
565.181,27.3552,-3.14625,-0.10854,0.76574
565.881,27.378,-3.14628,-0.10927,0.76519
566.581,27.4007,-3.14628,-0.11069,0.76464
567.281,27.42333,-3.14613,-0.11063,0.76408
567.981,27.44605,-3.14492,-0.11235,0.76353
568.681,27.4687,-3.14496,-0.11226,0.76298
569.381,27.49134,-3.14496,-0.11397,0.76243
570.081,27.51404,-3.14496,-0.11682,0.76188
570.781,27.53667,-3.14496,-0.12064,0.76133
571.481,27.5594,-3.14496,-0.11831,0.76078
572.181,27.5821,-3.14496,-0.11948,0.76022
572.881,27.6048,-3.14496,-0.12271,0.75967
573.581,27.62752,-3.14496,-0.12444,0.75912
574.281,27.65023,-3.14496,-0.12324,0.75857
574.981,27.6729,-3.14443,-0.12511,0.75801
575.681,27.6956,-3.14398,-0.12514,0.75746
576.381,27.71828,-3.14397,-0.12452,0.75691
577.081,27.741,-3.14397,-0.1261,0.75635
577.781,27.76377,-3.14397,-0.12532,0.7558
578.481,27.7865,-3.14397,-0.12799,0.75525
579.181,27.8093,-3.14397,-0.12974,0.75469
579.881,27.83206,-3.14398,-0.13206,0.75414
580.581,27.8548,-3.14422,-0.1334,0.75358
581.281,27.8776,-3.14531,-0.13508,0.75303
581.981,27.9002,-3.14529,-0.13328,0.75248
582.681,27.923,-3.1467,-0.13467,0.75192
583.381,27.94577,-3.14662,-0.13637,0.75137
584.081,27.96852,-3.14661,-0.13466,0.75081
584.781,27.99137,-3.14661,-0.13593,0.75026
585.481,28.01411,-3.14661,-0.13643,0.7497
586.181,28.03694,-3.14667,-0.13573,0.74914
586.881,28.05975,-3.14594,-0.13841,0.74859
587.581,28.08253,-3.14659,-0.14011,0.74803
588.281,28.10533,-3.14667,-0.13943,0.74748
588.981,28.128,-3.14807,-0.13905,0.74692
589.681,28.15079,-3.14808,-0.14045,0.74636
590.381,28.17352,-3.14936,-0.1413,0.74581
591.081,28.19635,-3.14935,-0.14247,0.74525
591.781,28.21919,-3.14935,-0.14292,0.74469
592.481,28.242,-3.14936,-0.14454,0.74414
593.181,28.2649,-3.15076,-0.14359,0.74358
593.881,28.28769,-3.15067,-0.14376,0.74302
594.581,28.3105,-3.15104,-0.14422,0.74246
595.281,28.33333,-3.15196,-0.14385,0.74191
595.981,28.3561,-3.15198,-0.14669,0.74135
596.681,28.37895,-3.15194,-0.146,0.74079
597.381,28.4016,-3.15332,-0.14309,0.74023
598.081,28.42447,-3.15331,-0.14326,0.73967
598.781,28.4474,-3.15331,-0.14313,0.73912
599.481,28.4702,-3.15331,-0.14584,0.73856
600.181,28.49326,-3.15358,-0.14709,0.738
600.881,28.516,-3.15462,-0.14648,0.73744
601.581,28.5389,-3.15461,-0.14638,0.73688
602.281,28.5617,-3.15386,-0.14685,0.73632
602.981,28.58455,-3.15365,-0.14629,0.73576
603.681,28.6075,-3.15408,-0.14796,0.7352
604.381,28.6303,-3.15495,-0.14681,0.73464
605.081,28.6532,-3.15495,-0.14605,0.73408
605.781,28.67602,-3.15495,-0.14648,0.73352
606.481,28.6989,-3.1552,-0.14604,0.73296
607.181,28.7218,-3.15625,-0.14699,0.7324
607.881,28.74455,-3.15627,-0.14645,0.73184
608.581,28.7675,-3.15626,-0.14643,0.73128
609.281,28.7904,-3.15761,-0.1482,0.73072
609.981,28.81335,-3.1576,-0.14842,0.73016
610.681,28.83646,-3.15759,-0.14912,0.7296
611.381,28.85936,-3.1576,-0.14798,0.72904
612.081,28.88226,-3.15872,-0.1497,0.72848
612.781,28.90515,-3.15889,-0.14877,0.72792
613.481,28.92802,-3.15886,-0.14809,0.72735
614.181,28.9509,-3.16024,-0.15183,0.72679
614.881,28.9739,-3.16022,-0.15136,0.72623
615.581,28.99687,-3.16022,-0.1488,0.72567
616.281,29.0198,-3.16021,-0.15043,0.72511
616.981,29.0427,-3.16182,-0.14948,0.72455
617.681,29.0656,-3.16365,-0.15119,0.72398
618.381,29.08847,-3.1657,-0.15221,0.72342
619.081,29.1114,-3.16756,-0.15272,0.72286
619.781,29.13425,-3.16935,-0.15044,0.7223
620.481,29.1571,-3.17117,-0.15088,0.72173
621.181,29.18001,-3.17241,-0.15179,0.72117
621.881,29.2029,-3.17236,-0.14942,0.72061
622.581,29.2259,-3.17371,-0.15208,0.72004
623.281,29.2488,-3.17338,-0.15305,0.71948
623.981,29.27168,-3.17339,-0.15037,0.71892
624.681,29.29458,-3.17339,-0.15037,0.71835
625.381,29.3175,-3.17334,-0.14969,0.71779
626.081,29.3405,-3.17472,-0.15012,0.71723
626.781,29.3635,-3.17471,-0.14866,0.71666
627.481,29.3865,-3.17471,-0.1481,0.7161
628.181,29.40943,-3.17469,-0.14756,0.71553
628.881,29.43222,-3.17608,-0.14554,0.71497
629.581,29.45505,-3.17606,-0.14819,0.71441
630.281,29.478,-3.17682,-0.1488,0.71384
630.981,29.50095,-3.17735,-0.14877,0.71328
631.681,29.5241,-3.1777,-0.1477,0.71271
632.381,29.54709,-3.17867,-0.14832,0.71215
633.081,29.57,-3.17866,-0.14863,0.71158
633.781,29.59293,-3.17984,-0.14981,0.71102
634.481,29.61585,-3.17998,-0.1493,0.71045
635.181,29.63875,-3.17998,-0.14925,0.70989
635.881,29.66171,-3.17998,-0.14496,0.70932
636.581,29.68455,-3.18003,-0.14777,0.70876
637.281,29.70747,-3.18135,-0.14594,0.70819
637.981,29.73045,-3.1813,-0.14756,0.70763
638.681,29.75344,-3.1813,-0.14822,0.70706
639.381,29.7765,-3.18236,-0.14581,0.70649
640.081,29.79952,-3.18229,-0.14591,0.70593
640.781,29.8224,-3.18229,-0.14718,0.70536
641.481,29.8454,-3.18228,-0.14691,0.7048
642.181,29.8684,-3.18222,-0.14639,0.70423
642.881,29.89139,-3.1836,-0.14519,0.70366
643.581,29.91435,-3.1836,-0.14461,0.7031
644.281,29.9373,-3.1836,-0.14544,0.70253
644.981,29.9603,-3.1836,-0.16824,0.70196
645.681,29.9832,-3.18386,-0.1631,0.7014
646.381,30.00618,-3.18487,-0.15861,0.70083
647.081,30.02911,-3.18696,-0.15204,0.70026
647.781,30.05203,-3.19228,-0.1502,0.6997
648.481,30.075,-3.20055,-0.14879,0.69913
649.181,30.09798,-3.20558,-0.14958,0.69856
649.881,30.12104,-3.20581,-0.14614,0.69799
650.581,30.144,-3.20372,-0.14618,0.69743
651.281,30.16702,-3.20201,-0.143,0.69686
651.981,30.19,-3.2004,-0.14376,0.69629
652.681,30.213,-3.19894,-0.14338,0.69572
653.381,30.23602,-3.19654,-0.14393,0.69516
654.081,30.259,-3.19666,-0.14391,0.69459
654.781,30.282,-3.19665,-0.14066,0.69402
655.481,30.30493,-3.19612,-0.14203,0.69345
656.181,30.3279,-3.19523,-0.14032,0.69289
656.881,30.3509,-3.19452,-0.14324,0.69232
657.581,30.3739,-3.19416,-0.13848,0.69175
658.281,30.39687,-3.19281,-0.14194,0.69118
658.981,30.4199,-3.1914,-0.13958,0.69061
659.681,30.4428,-3.19023,-0.13851,0.69004
660.381,30.4658,-3.19008,-0.14009,0.68948
661.081,30.48876,-3.19008,-0.13981,0.68891
661.781,30.51179,-3.19008,-0.13938,0.68834
662.481,30.5348,-3.19008,-0.14285,0.68777
663.181,30.5578,-3.19008,-0.14182,0.6872
663.881,30.5809,-3.19008,-0.13916,0.68663
664.581,30.60387,-3.19008,-0.14097,0.68606
665.281,30.62687,-3.19008,-0.13989,0.68549
665.981,30.64988,-3.19008,-0.13961,0.68492
666.681,30.67287,-3.19008,-0.14047,0.68436
667.381,30.6958,-3.19008,-0.14173,0.68379
668.081,30.71882,-3.19008,-0.14001,0.68322
668.781,30.7418,-3.19008,-0.13972,0.68265
669.481,30.76478,-3.19008,-0.13859,0.68208
670.181,30.7878,-3.19008,-0.13904,0.68151
670.881,30.81075,-3.19011,-0.13771,0.68094
671.581,30.8337,-3.19145,-0.13722,0.68037
672.281,30.8566,-3.1914,-0.13566,0.6798
672.981,30.8796,-3.1914,-0.1353,0.67923
673.681,30.90264,-3.1928,-0.13497,0.67866
674.381,30.9257,-3.19272,-0.13403,0.67809
675.081,30.9488,-3.19271,-0.13601,0.67752
675.781,30.9719,-3.19271,-0.13378,0.67695
676.481,30.99486,-3.19271,-0.13456,0.67638
677.181,31.0179,-3.19273,-0.13563,0.67581
677.881,31.0408,-3.19376,-0.13722,0.67524
678.581,31.06383,-3.19403,-0.13476,0.67467
679.281,31.0869,-3.19403,-0.13754,0.6741
679.981,31.10991,-3.19403,-0.14021,0.67353
680.681,31.13294,-3.19399,-0.13916,0.67296
681.381,31.15598,-3.19299,-0.13917,0.67239
682.081,31.179,-3.19304,-0.14249,0.67182
682.781,31.202,-3.19312,-0.14444,0.67125
683.481,31.22512,-3.1944,-0.14623,0.67068
684.181,31.24812,-3.1941,-0.14524,0.67011
684.881,31.2711,-3.19511,-0.14693,0.66953
685.581,31.29415,-3.19535,-0.14723,0.66896
686.281,31.31717,-3.19535,-0.1362,0.66839
686.981,31.34017,-3.19535,-0.12243,0.66782
687.681,31.3632,-3.19627,-0.12327,0.66725
688.381,31.38628,-3.19665,-0.12467,0.66668
689.081,31.40928,-3.19666,-0.12659,0.66611
689.781,31.43236,-3.19666,-0.12794,0.66554
690.481,31.45542,-3.19666,-0.12841,0.66497
691.181,31.47845,-3.19666,-0.12872,0.6644
691.881,31.5015,-3.19666,-0.1336,0.66382
692.581,31.52451,-3.19666,-0.13323,0.66325
693.281,31.5475,-3.19668,-0.13288,0.66268
693.981,31.57054,-3.19769,-0.13623,0.66211
694.681,31.59355,-3.19798,-0.1382,0.66154
695.381,31.61658,-3.19798,-0.13507,0.66097
696.081,31.6396,-3.19798,-0.13332,0.6604
696.781,31.66259,-3.19798,-0.134,0.65983
697.481,31.68565,-3.19798,-0.13786,0.65925
698.181,31.7088,-3.19795,-0.13975,0.65868
698.881,31.7318,-3.19934,-0.13925,0.65811
699.581,31.75498,-3.19861,-0.13958,0.65754
700.281,31.7781,-3.19805,-0.1422,0.65697
700.981,31.8011,-3.19799,-0.14522,0.6564
701.681,31.82418,-3.19799,-0.14487,0.65582
702.381,31.8472,-3.19801,-0.15089,0.65525
703.081,31.87022,-3.199,-0.15054,0.65468
703.781,31.89325,-3.19931,-0.1506,0.65411
704.481,31.91628,-3.19931,-0.15266,0.65354
705.181,31.9394,-3.19931,-0.15129,0.65297
705.881,31.96237,-3.19931,-0.15194,0.65239
706.581,31.9855,-3.19931,-0.15747,0.65182
707.281,32.00862,-3.19931,-0.16011,0.65125
707.981,32.03172,-3.19929,-0.15905,0.65068
708.681,32.0549,-3.20035,-0.16179,0.65011
709.381,32.07796,-3.20061,-0.16353,0.64953
710.081,32.101,-3.20062,-0.16584,0.64896
710.781,32.12409,-3.20062,-0.16889,0.64839
711.481,32.14714,-3.20062,-0.17271,0.64782
712.181,32.17026,-3.20062,-0.17486,0.64725
712.881,32.19328,-3.20062,-0.175,0.64667
713.581,32.21634,-3.20163,-0.17491,0.6461
714.281,32.23943,-3.20194,-0.1804,0.64553
714.981,32.26247,-3.20194,-0.18173,0.64496
715.681,32.2855,-3.20194,-0.18137,0.64439
716.381,32.30851,-3.20196,-0.18339,0.64381
717.081,32.3316,-3.20304,-0.18605,0.64324
717.781,32.3547,-3.20326,-0.18632,0.64267
718.481,32.37784,-3.20326,-0.19102,0.6421
719.181,32.40078,-3.20323,-0.1957,0.64153
719.881,32.42389,-3.20225,-0.19643,0.64095
720.581,32.44689,-3.20226,-0.19892,0.64038
721.281,32.47002,-3.20359,-0.19945,0.63981
721.981,32.49329,-3.2036,-0.20343,0.63924
722.681,32.51635,-3.20359,-0.20621,0.63866
723.381,32.5395,-3.20359,-0.2057,0.63809
724.081,32.56257,-3.2036,-0.20845,0.63752
724.781,32.5856,-3.20415,-0.21194,0.63695
725.481,32.60864,-3.20458,-0.21747,0.63638
726.181,32.63172,-3.20568,-0.22079,0.6358
726.881,32.65484,-3.20589,-0.22498,0.63523
727.581,32.67792,-3.20589,-0.23183,0.63466
728.281,32.70107,-3.2059,-0.23239,0.63409
728.981,32.72417,-3.20731,-0.23625,0.63351
729.681,32.7472,-3.20721,-0.23952,0.63294
730.381,32.7703,-3.20721,-0.24539,0.63237
731.081,32.79333,-3.20715,-0.24854,0.6318
731.781,32.81644,-3.2085,-0.25168,0.63123
732.481,32.8395,-3.20853,-0.2574,0.63065
733.181,32.8626,-3.20853,-0.26277,0.63008
733.881,32.88562,-3.20853,-0.26721,0.62951
734.581,32.90863,-3.20853,-0.26913,0.62894
735.281,32.93172,-3.20853,-0.27409,0.62836
735.981,32.95486,-3.20853,-0.27773,0.62779
736.681,32.97797,-3.20853,-0.28151,0.62722
737.381,33.00105,-3.20989,-0.28468,0.62665
738.081,33.02407,-3.20985,-0.28819,0.62608
738.781,33.0471,-3.20981,-0.2938,0.6255
739.481,33.06997,-3.20885,-0.29537,0.62493
740.181,33.0929,-3.21026,-0.29912,0.62436
740.881,33.11595,-3.21018,-0.30387,0.62379
741.581,33.1389,-3.21017,-0.31083,0.62322
742.281,33.16219,-3.21017,-0.31734,0.62264
742.981,33.1852,-3.21017,-0.32107,0.62207
743.681,33.20828,-3.21016,-0.3226,0.6215
744.381,33.23138,-3.20982,-0.32815,0.62093
745.081,33.25442,-3.20984,-0.3295,0.62036
745.781,33.2776,-3.20984,-0.33633,0.61978
746.481,33.30063,-3.20984,-0.34161,0.61921
747.181,33.3237,-3.20984,-0.34647,0.61864
747.881,33.34672,-3.20984,-0.34764,0.61807
748.581,33.3697,-3.20984,-0.35226,0.6175
749.281,33.3927,-3.20984,-0.36038,0.61692
749.981,33.41574,-3.20983,-0.3631,0.61635
750.681,33.4388,-3.21108,-0.36553,0.61578
751.381,33.4619,-3.21117,-0.37188,0.61521
752.081,33.485,-3.21116,-0.37643,0.61464
752.781,33.5081,-3.21135,-0.37912,0.61406
753.481,33.53118,-3.21257,-0.38579,0.61349
754.181,33.55424,-3.21294,-0.38999,0.61292
754.881,33.57736,-3.21343,-0.39621,0.61235
755.581,33.60041,-3.21291,-0.3994,0.61178
756.281,33.6235,-3.21291,-0.40912,0.61121
756.981,33.64653,-3.21291,-0.41338,0.61063
757.681,33.6696,-3.21292,-0.41797,0.61006
758.381,33.69266,-3.21408,-0.42248,0.60949
759.081,33.7157,-3.21423,-0.42907,0.60892
759.781,33.73881,-3.21423,-0.437,0.60835
760.481,33.76188,-3.21423,-0.44082,0.60778
761.181,33.78505,-3.21423,-0.44879,0.60721
761.881,33.80816,-3.21423,-0.45438,0.60663
762.581,33.83124,-3.21423,-0.45643,0.60606
763.281,33.85435,-3.21426,-0.46315,0.60549
763.981,33.87741,-3.21389,-0.46698,0.60492
764.681,33.90047,-3.2146,-0.47283,0.60435
765.381,33.92355,-3.21521,-0.4777,0.60378
766.081,33.94662,-3.21522,-0.48423,0.60321
766.781,33.96969,-3.21523,-0.48917,0.60264
767.481,33.99283,-3.21422,-0.49669,0.60206
768.181,34.01596,-3.21424,-0.50131,0.60149
768.881,34.03911,-3.21424,-0.50572,0.60092
769.581,34.06225,-3.21424,-0.50872,0.60035
770.281,34.0852,-3.21424,-0.5134,0.59978
770.981,34.1083,-3.21424,-0.52074,0.59921
771.681,34.13142,-3.21424,-0.52192,0.59864
772.381,34.1545,-3.21424,-0.52549,0.59807
773.081,34.1779,-3.21424,-0.53034,0.5975
773.781,34.201,-3.21424,-0.53586,0.59693
774.481,34.2241,-3.21424,-0.53915,0.59636
775.181,34.24722,-3.21426,-0.54356,0.59579
775.881,34.2703,-3.21525,-0.54916,0.59522
776.581,34.29345,-3.21555,-0.55187,0.59465
777.281,34.31661,-3.21555,-0.5552,0.59407
777.981,34.33978,-3.21555,-0.55992,0.5935
778.681,34.3628,-3.21557,-0.56047,0.59293
779.381,34.3858,-3.21519,-0.5656,0.59236
780.081,34.4088,-3.21522,-0.56544,0.59179
780.781,34.43188,-3.21522,-0.56998,0.59122
781.481,34.45511,-3.21522,-0.57527,0.59065
782.181,34.47841,-3.21522,-0.58029,0.59008
782.881,34.50169,-3.2152,-0.58421,0.58951
783.581,34.52487,-3.21627,-0.59089,0.58894
784.281,34.54802,-3.21653,-0.59297,0.58837
784.981,34.57117,-3.21654,-0.59739,0.5878
785.681,34.59429,-3.21658,-0.60041,0.58723
786.381,34.6175,-3.21533,-0.59984,0.58667
787.081,34.6406,-3.21522,-0.6043,0.5861
787.781,34.66386,-3.21523,-0.60922,0.58553
788.481,34.6871,-3.21438,-0.61456,0.58496
789.181,34.71028,-3.21423,-0.61843,0.58439
789.881,34.7335,-3.21423,-0.6229,0.58382
790.581,34.75672,-3.2142,-0.62845,0.58325
791.281,34.77989,-3.21325,-0.62988,0.58268
791.981,34.80308,-3.21285,-0.6319,0.58211
792.681,34.82631,-3.21421,-0.63286,0.58154
793.381,34.84952,-3.21485,-0.63587,0.58097
794.081,34.8727,-3.21554,-0.63727,0.5804
794.781,34.89598,-3.21555,-0.641,0.57983
795.481,34.9191,-3.21555,-0.64507,0.57927
796.181,34.94235,-3.21555,-0.64768,0.5787
796.881,34.96565,-3.21555,-0.64996,0.57813
797.581,34.98885,-3.21555,-0.65219,0.57756
797.881,34.999,-3.21555,-0.65388,0.57732