File: 01_Data/Bean_Bag_Chair_Inner_Lining/STA/N2/30K_min/Bean_Bag_Inner_Liner_STA_N2_30KData_220517_R3.csv
##Temp./Â°C,Time/min,Mass loss(subtr.2)/mg,DSC(subtr.2)/(mW/mg),Sensit./(uV/mW)
48.532,10.01,0.02043,-0.003517415,1.05401
49.232,10.5577,0.01949623,0.02000251,1.05387
49.932,10.68398,0.01885791,0.043951,1.05373
50.632,10.77392,0.02364594,0.06670143,1.05358
51.332,10.84732,0.02131783,0.08956127,1.05344
52.032,10.9103,0.01822794,0.10921,1.05329
52.732,10.9682,0.01972602,0.12811,1.05315
53.432,11.02032,0.02185524,0.1471,1.053
54.132,11.06836,0.02185566,0.16516,1.05285
54.832,11.11358,0.01951315,0.18022,1.0527
55.532,11.1562,0.0179235,0.19503,1.05255
56.232,11.19673,0.01542997,0.21124,1.0524
56.932,11.23591,0.01559611,0.22608,1.05225
57.632,11.2735,0.01783157,0.23943,1.0521
58.332,11.30991,0.01965861,0.25059,1.05194
59.032,11.34555,0.02057218,0.26512,1.05179
59.732,11.38008,0.02207153,0.27889,1.05163
60.432,11.41367,0.01814042,0.28897,1.05148
61.132,11.4462,0.01633919,0.30084,1.05132
61.832,11.4778,0.01627248,0.30912,1.05116
62.532,11.50935,0.01999307,0.3188,1.051
63.232,11.5405,0.02221194,0.32755,1.05084
63.932,11.57134,0.02371064,0.33787,1.05068
64.632,11.60114,0.0249984,0.34497,1.05052
65.332,11.63059,0.02719328,0.3514,1.05036
66.032,11.65957,0.02840385,0.36081,1.0502
66.732,11.68827,0.02679034,0.36914,1.05003
67.432,11.71677,0.02400009,0.37689,1.04987
68.132,11.7448,0.02219992,0.38443,1.0497
68.832,11.7727,0.02104934,0.39325,1.04953
69.532,11.80021,0.02040961,0.40005,1.04937
70.232,11.8279,0.01914676,0.40964,1.0492
70.932,11.85515,0.01857976,0.4186,1.04903
71.632,11.88233,0.01756487,0.42747,1.04886
72.332,11.90922,0.01574915,0.43336,1.04869
73.032,11.9358,0.0145538,0.44183,1.04852
73.732,11.96227,0.01484455,0.44801,1.04834
74.432,11.9885,0.01697506,0.45678,1.04817
75.132,12.01453,0.01781313,0.46428,1.048
75.832,12.04072,0.01789084,0.4693,1.04782
76.532,12.06654,0.01823965,0.47465,1.04764
77.232,12.09243,0.01827985,0.47874,1.04747
77.932,12.118,0.01798461,0.48366,1.04729
78.632,12.1435,0.01843313,0.48364,1.04711
79.332,12.16893,0.01788476,0.48256,1.04693
80.032,12.19402,0.01930643,0.48413,1.04675
80.732,12.21908,0.01921073,0.48127,1.04657
81.432,12.24417,0.0208752,0.47872,1.04638
82.132,12.2692,0.02242097,0.47692,1.0462
82.832,12.29434,0.0225201,0.47196,1.04602
83.532,12.31933,0.02223768,0.46838,1.04583
84.232,12.34409,0.02107754,0.46568,1.04565
84.932,12.36875,0.01945481,0.46388,1.04546
85.632,12.39334,0.02016807,0.45838,1.04527
86.332,12.41794,0.02120715,0.4557,1.04508
87.032,12.44237,0.02133394,0.45173,1.04489
87.732,12.46679,0.022807,0.4509,1.0447
88.432,12.491,0.02200197,0.448,1.04451
89.132,12.51505,0.02192151,0.44487,1.04432
89.832,12.53887,0.02121574,0.44603,1.04413
90.532,12.5629,0.01888925,0.44256,1.04394
91.232,12.58699,0.01770495,0.44213,1.04374
91.932,12.6112,0.01915653,0.43838,1.04355
92.632,12.63545,0.02043819,0.43781,1.04335
93.332,12.6594,0.02005083,0.4368,1.04315
94.032,12.68332,0.02094326,0.4342,1.04295
94.732,12.70711,0.02077494,0.43443,1.04276
95.432,12.73093,0.02101577,0.43449,1.04256
96.132,12.7547,0.02092595,0.43292,1.04236
96.832,12.7784,0.01962258,0.43348,1.04216
97.532,12.8022,0.01935078,0.43311,1.04195
98.232,12.8257,0.01963762,0.43343,1.04175
98.932,12.8491,0.01938931,0.43356,1.04155
99.632,12.8726,0.01836771,0.433,1.04134
100.332,12.8961,0.01892492,0.43451,1.04114
101.032,12.92,0.01965001,0.43714,1.04093
101.732,12.94355,0.01972081,0.4386,1.04072
102.432,12.9671,0.01977696,0.43949,1.04051
103.132,12.9906,0.02141849,0.44046,1.04031
103.832,13.01407,0.0210171,0.44358,1.0401
104.532,13.0376,0.02142595,0.44581,1.03989
105.232,13.06073,0.02140976,0.44839,1.03967
105.932,13.08394,0.02141021,0.44844,1.03946
106.632,13.10731,0.02141418,0.45263,1.03925
107.332,13.13067,0.0213825,0.45816,1.03904
108.032,13.15435,0.02040284,0.46017,1.03882
108.732,13.1779,0.02040862,0.46347,1.03861
109.432,13.2013,0.02011618,0.4648,1.03839
110.132,13.22468,0.02145801,0.46806,1.03817
110.832,13.248,0.0214114,0.47355,1.03795
111.532,13.2713,0.02140996,0.47551,1.03774
112.232,13.2946,0.02141005,0.47708,1.03752
112.932,13.3178,0.02141074,0.48267,1.0373
113.632,13.34105,0.02140145,0.48457,1.03707
114.332,13.3643,0.02163669,0.48847,1.03685
115.032,13.38751,0.02141549,0.49202,1.03663
115.732,13.41075,0.02141369,0.49425,1.03641
116.432,13.434,0.02281623,0.49756,1.03618
117.132,13.45721,0.02273005,0.50282,1.03596
117.832,13.4803,0.02270181,0.50322,1.03573
118.532,13.50339,0.02128392,0.50862,1.0355
119.232,13.52655,0.0201943,0.51178,1.03527
119.932,13.5496,0.01986615,0.5166,1.03505
120.632,13.5728,0.01869917,0.52188,1.03482
121.332,13.59593,0.01855823,0.52495,1.03459
122.032,13.61895,0.01730012,0.52667,1.03435
122.732,13.64206,0.01722722,0.53136,1.03412
123.432,13.66509,0.01636636,0.53573,1.03389
124.132,13.688,0.0159334,0.54095,1.03366
124.832,13.7111,0.01632046,0.54278,1.03342
125.532,13.734,0.01690103,0.54521,1.03319
126.232,13.7569,0.01714762,0.54713,1.03295
126.932,13.77984,0.01723992,0.55167,1.03271
127.632,13.8026,0.01718936,0.55458,1.03248
128.332,13.82559,0.01850906,0.55751,1.03224
129.032,13.8484,0.01855456,0.56021,1.032
129.732,13.87125,0.01864585,0.56277,1.03176
130.432,13.8941,0.01988373,0.56435,1.03152
131.132,13.91676,0.02100075,0.56789,1.03128
131.832,13.93948,0.02129731,0.57024,1.03103
132.532,13.9621,0.02131129,0.57012,1.03079
133.232,13.9847,0.02172986,0.57359,1.03055
133.932,14.0073,0.02270573,0.57673,1.0303
134.632,14.02987,0.02161894,0.57775,1.03006
135.332,14.0525,0.02269995,0.58005,1.02981
136.032,14.0751,0.02263736,0.58302,1.02956
136.732,14.0976,0.02403376,0.58493,1.02931
137.432,14.12009,0.0240495,0.58744,1.02906
138.132,14.1426,0.02321047,0.59014,1.02882
138.832,14.16509,0.02438152,0.59335,1.02856
139.532,14.1876,0.02437325,0.59623,1.02831
140.232,14.21009,0.02438577,0.59598,1.02806
140.932,14.2326,0.0253407,0.59964,1.02781
141.632,14.25495,0.02460778,0.60273,1.02756
142.332,14.27733,0.02439883,0.60642,1.0273
143.032,14.29965,0.0237081,0.60545,1.02705
143.732,14.32187,0.02453308,0.60803,1.02679
144.432,14.3442,0.02587366,0.61221,1.02653
145.132,14.3664,0.02638616,0.61385,1.02628
145.832,14.3886,0.02735309,0.61318,1.02602
146.532,14.4109,0.02733954,0.61555,1.02576
147.232,14.4331,0.02733989,0.61828,1.0255
147.932,14.45509,0.02733907,0.62163,1.02524
148.632,14.4773,0.02732751,0.62561,1.02498
149.332,14.49952,0.02672212,0.62657,1.02471
150.032,14.5217,0.02463981,0.62919,1.02445
150.732,14.5441,0.02464825,0.63078,1.02419
151.432,14.5663,0.02331898,0.63183,1.02392
152.132,14.5885,0.02338672,0.63458,1.02366
152.832,14.6106,0.02300954,0.63687,1.02339
153.532,14.6327,0.02209835,0.63943,1.02312
154.232,14.6547,0.02216579,0.64158,1.02286
154.932,14.67673,0.02087431,0.64391,1.02259
155.632,14.69875,0.01943699,0.64926,1.02232
156.332,14.72076,0.01943072,0.64927,1.02205
157.032,14.74274,0.01948301,0.65137,1.02178
157.732,14.76474,0.01818372,0.65506,1.02151
158.432,14.78674,0.0181115,0.65636,1.02123
159.132,14.8087,0.01811196,0.65858,1.02096
159.832,14.83075,0.01808821,0.6596,1.02069
160.532,14.8528,0.01815844,0.66108,1.02041
161.232,14.8748,0.01802828,0.66439,1.02014
161.932,14.89681,0.02046099,0.66689,1.01986
162.632,14.91877,0.02074363,0.66827,1.01958
163.332,14.9407,0.02075019,0.67012,1.01931
164.032,14.9626,0.02074985,0.67146,1.01903
164.732,14.98449,0.02074569,0.67254,1.01875
165.432,15.0063,0.02068102,0.67194,1.01847
166.132,15.02803,0.02162933,0.67442,1.01819
166.832,15.04986,0.02272225,0.67818,1.01791
167.532,15.0717,0.02271861,0.68072,1.01762
168.232,15.09366,0.02271986,0.67973,1.01734
168.932,15.11556,0.02272003,0.68078,1.01706
169.632,15.1374,0.02272045,0.68049,1.01677
170.332,15.1591,0.02272297,0.68394,1.01649
171.032,15.18087,0.02266393,0.68422,1.0162
171.732,15.2027,0.0214316,0.68729,1.01591
172.432,15.22456,0.02038929,0.6888,1.01563
173.132,15.2464,0.02010826,0.6888,1.01534
173.832,15.2681,0.01990549,0.68986,1.01505
174.532,15.28984,0.01909417,0.69089,1.01476
175.232,15.31156,0.02007353,0.69217,1.01447
175.932,15.3332,0.02008832,0.69201,1.01418
176.632,15.35493,0.02008991,0.69426,1.01389
177.332,15.37665,0.02009031,0.69489,1.01359
178.032,15.39824,0.02009328,0.69511,1.0133
178.732,15.41986,0.02041126,0.6994,1.01301
179.432,15.44145,0.02106851,0.70122,1.01271
180.132,15.463,0.02105734,0.70243,1.01241
180.832,15.48461,0.02144502,0.70462,1.01212
181.532,15.50622,0.02141884,0.70456,1.01182
182.232,15.52791,0.02148957,0.70462,1.01152
182.932,15.5495,0.02009438,0.70637,1.01122
183.632,15.57104,0.0204632,0.70885,1.01092
184.332,15.59266,0.02074734,0.71112,1.01062
185.032,15.61413,0.01999333,0.71079,1.01032
185.732,15.6356,0.01946157,0.71342,1.01002
186.432,15.65714,0.01944105,0.71307,1.00972
187.132,15.67855,0.01944004,0.71822,1.00942
187.832,15.69995,0.01944,0.71757,1.00911
188.532,15.72145,0.0194404,0.71839,1.00881
189.232,15.74296,0.01945225,0.72086,1.0085
189.932,15.7644,0.01886792,0.72012,1.0082
190.632,15.7859,0.0194933,0.72262,1.00789
191.332,15.8073,0.01943299,0.72411,1.00758
192.032,15.82876,0.01942979,0.72631,1.00728
192.732,15.8501,0.01943056,0.72684,1.00697
193.432,15.8715,0.02081604,0.72805,1.00666
194.132,15.89295,0.02077209,0.72923,1.00635
194.832,15.91426,0.02113138,0.73091,1.00604
195.532,15.93573,0.02206508,0.73423,1.00572
196.232,15.9571,0.02206025,0.7332,1.00541
196.932,15.9785,0.02205994,0.7367,1.0051
197.632,15.99986,0.02205989,0.73465,1.00478
198.332,16.0212,0.02207524,0.73965,1.00447
199.032,16.0425,0.02133065,0.74042,1.00415
199.732,16.06382,0.02124473,0.74055,1.00384
200.432,16.08511,0.01968892,0.74344,1.00352
201.132,16.1065,0.01976555,0.74242,1.0032
201.832,16.12783,0.01976981,0.74413,1.00289
202.532,16.14915,0.01976999,0.74621,1.00257
203.232,16.17054,0.01977,0.74606,1.00225
203.932,16.1918,0.01977017,0.74859,1.00193
204.632,16.21303,0.01977403,0.75101,1.00161
205.332,16.23435,0.01898003,0.75359,1.00128
206.032,16.25561,0.01837769,0.75625,1.00096
206.732,16.27691,0.01973467,0.75624,1.00064
207.432,16.29823,0.01975939,0.75822,1.00032
208.132,16.31951,0.01975999,0.75905,0.99999
208.832,16.34075,0.01975996,0.76159,0.99967
209.532,16.362,0.01975826,0.76469,0.99934
210.232,16.38324,0.0197085,0.76545,0.99901
210.932,16.40446,0.01870991,0.76717,0.99869
211.632,16.42569,0.01876631,0.77185,0.99836
212.332,16.447,0.01876979,0.77159,0.99803
213.032,16.46829,0.0187698,0.7716,0.9977
213.732,16.48959,0.01876917,0.77626,0.99737
214.432,16.5108,0.01879802,0.77969,0.99704
215.132,16.53196,0.02012842,0.78034,0.99671
215.832,16.55322,0.02074849,0.78015,0.99638
216.532,16.57443,0.02138583,0.78437,0.99604
217.232,16.5957,0.02142715,0.78726,0.99571
217.932,16.61693,0.02188721,0.78956,0.99537
218.632,16.63811,0.02206292,0.79416,0.99504
219.332,16.6593,0.02206983,0.79605,0.9947
220.032,16.68046,0.02207,0.79543,0.99437
220.732,16.7016,0.0220694,0.80284,0.99403
221.432,16.7228,0.02204719,0.80554,0.99369
222.132,16.74404,0.02065255,0.80754,0.99336
222.832,16.76521,0.02074364,0.81109,0.99302
223.532,16.78635,0.02074978,0.81416,0.99268
224.232,16.80755,0.02075175,0.81891,0.99234
224.932,16.8287,0.02098328,0.82356,0.992
225.632,16.84985,0.02206241,0.82874,0.99165
226.332,16.87105,0.0220574,0.83212,0.99131
227.032,16.8922,0.02259326,0.83638,0.99097
227.732,16.91345,0.02304089,0.84138,0.99062
228.432,16.9346,0.02242581,0.84567,0.99028
229.132,16.95569,0.02240183,0.85033,0.98993
229.832,16.97681,0.02240307,0.85625,0.98959
230.532,16.998,0.02243437,0.86174,0.98924
231.232,17.01911,0.02210807,0.86644,0.9889
231.932,17.0403,0.02074642,0.87142,0.98855
232.632,17.06154,0.0215689,0.87945,0.9882
233.332,17.0827,0.02238987,0.8858,0.98785
234.032,17.10389,0.02365018,0.89135,0.9875
234.732,17.12509,0.02360806,0.89921,0.98715
235.432,17.14624,0.02367172,0.9089,0.9868
236.132,17.16732,0.02290197,0.91776,0.98645
236.832,17.18846,0.02293851,0.92599,0.9861
237.532,17.20956,0.02293996,0.93712,0.98574
238.232,17.2307,0.02294046,0.94866,0.98539
238.932,17.25189,0.02295908,0.96407,0.98503
239.632,17.27311,0.02204169,0.97707,0.98468
240.332,17.29427,0.02177977,0.99128,0.98432
241.032,17.31539,0.02194552,1.0072,0.98397
241.732,17.33655,0.0218607,1.03012,0.98361
242.432,17.3577,0.02185847,1.0497,0.98325
243.132,17.37882,0.02163758,1.0763,0.98289
243.832,17.3999,0.02163033,1.10566,0.98254
244.532,17.421,0.02156204,1.14058,0.98218
245.232,17.44215,0.02030426,1.19166,0.98182
245.932,17.46327,0.02030952,1.26288,0.98146
246.632,17.48445,0.02031003,1.34653,0.98109
247.332,17.5057,0.0203111,1.43713,0.98073
248.032,17.5269,0.02043301,1.53135,0.98037
248.732,17.54806,0.0217865,1.63719,0.98001
249.432,17.56932,0.02177486,1.74535,0.97964
250.132,17.59054,0.02042694,1.85492,0.97928
250.832,17.6117,0.01930363,1.96293,0.97891
251.532,17.63288,0.01904015,2.07457,0.97855
252.232,17.65418,0.02048967,2.18857,0.97818
252.932,17.67536,0.0205425,2.30606,0.97781
253.632,17.69665,0.02193,2.41851,0.97744
254.332,17.718,0.02195931,2.51433,0.97707
255.032,17.73936,0.02196026,2.59566,0.97671
255.732,17.7607,0.02195463,2.67147,0.97634
256.432,17.78208,0.02284927,2.73061,0.97597
257.132,17.80343,0.02358646,2.75251,0.97559
257.832,17.8247,0.02360836,2.7451,0.97522
258.532,17.84594,0.02360977,2.68973,0.97485
259.232,17.86721,0.02360826,2.58878,0.97448
259.932,17.88845,0.02339313,2.46005,0.9741
260.632,17.90972,0.02228554,2.31722,0.97373
261.332,17.9309,0.02229122,2.17841,0.97335
262.032,17.95198,0.02230291,2.04156,0.97298
262.732,17.97307,0.02190347,1.91824,0.9726
263.432,17.9941,0.0223221,1.80195,0.97223
264.132,18.01511,0.02227895,1.70308,0.97185
264.832,18.03621,0.02193807,1.6099,0.97147
265.532,18.05724,0.02094108,1.52682,0.97109
266.232,18.0783,0.02096879,1.46379,0.97071
266.932,18.0993,0.02096998,1.40045,0.97033
267.632,18.12023,0.02096993,1.34623,0.96995
268.332,18.1412,0.02096442,1.30833,0.96957
269.032,18.1621,0.02080883,1.26252,0.96919
269.732,18.1831,0.01964306,1.22524,0.96881
270.432,18.20412,0.01964944,1.19253,0.96843
271.132,18.225,0.01964933,1.16794,0.96804
271.832,18.24598,0.01964052,1.14793,0.96766
272.532,18.26693,0.01941135,1.12277,0.96727
273.232,18.28787,0.01932298,1.10359,0.96689
273.932,18.30896,0.01931189,1.09144,0.9665
274.632,18.3299,0.01866469,1.07734,0.96612
275.332,18.3509,0.01874513,1.06342,0.96573
276.032,18.37191,0.01962972,1.05557,0.96534
276.732,18.39292,0.01964824,1.0424,0.96495
277.432,18.41395,0.01964985,1.03805,0.96456
278.132,18.43495,0.01964974,1.02937,0.96417
278.832,18.45597,0.0196463,1.0241,0.96378
279.532,18.47702,0.01960018,1.01716,0.96339
280.232,18.49802,0.02088985,1.01399,0.963
280.932,18.51898,0.02096744,1.00974,0.96261
281.632,18.54,0.02097,1.00846,0.96222
282.332,18.56099,0.02097006,1.00644,0.96183
283.032,18.58199,0.02097148,1.00401,0.96143
283.732,18.60302,0.02100209,1.00174,0.96104
284.432,18.62397,0.02000914,1.00056,0.96064
285.132,18.64503,0.02012861,0.99625,0.96025
285.832,18.66606,0.02097809,0.99837,0.95985
286.532,18.6871,0.0209953,0.99645,0.95945
287.232,18.70818,0.02177831,0.99656,0.95906
287.932,18.72919,0.02228097,0.99677,0.95866
288.632,18.7502,0.02227998,0.9957,0.95826
289.332,18.77126,0.02227996,0.99547,0.95786
290.032,18.7924,0.02227912,0.99632,0.95746
290.732,18.81342,0.02226201,0.9951,0.95706
291.432,18.83447,0.02187979,0.99526,0.95666
292.132,18.85549,0.02091307,0.99517,0.95626
292.832,18.8765,0.02212416,0.99627,0.95586
293.532,18.89762,0.02227138,0.99596,0.95546
294.232,18.91873,0.02173798,0.99605,0.95505
294.932,18.9399,0.02097275,0.99542,0.95465
295.632,18.96099,0.01962518,0.99538,0.95425
296.332,18.982,0.01964705,0.99543,0.95384
297.032,19.00315,0.01965092,0.99573,0.95344
297.732,19.02424,0.01969687,0.99472,0.95303
298.432,19.04535,0.0210566,0.99403,0.95262
299.132,19.06639,0.02097507,0.99413,0.95222
299.832,19.08751,0.02097033,0.99633,0.95181
300.532,19.10855,0.02097089,0.99394,0.9514
301.232,19.12966,0.02097354,0.9953,0.95099
301.932,19.15075,0.02205654,0.99549,0.95058
302.632,19.17192,0.02360234,0.99476,0.95017
303.332,19.19304,0.02356875,0.99494,0.94976
304.032,19.21412,0.02459313,0.99529,0.94935
304.732,19.23526,0.02490743,0.99535,0.94894
305.432,19.25636,0.02491927,0.99594,0.94853
306.132,19.27744,0.02491996,0.99691,0.94812
306.832,19.29852,0.02492,0.99714,0.9477
307.532,19.31966,0.02492,0.99735,0.94729
308.232,19.34082,0.02492,0.99882,0.94687
308.932,19.36198,0.02492005,0.99815,0.94646
309.632,19.38316,0.02492118,0.99936,0.94604
310.332,19.40429,0.02494163,1.00035,0.94563
311.032,19.42539,0.0254264,1.00345,0.94521
311.732,19.4465,0.02624522,1.00046,0.9448
312.432,19.4676,0.02624354,1.00077,0.94438
313.132,19.4888,0.02626958,0.99919,0.94396
313.832,19.5099,0.02492219,1.00174,0.94354
314.532,19.53109,0.02491804,1.00274,0.94312
315.232,19.55227,0.02491977,1.0026,0.9427
315.932,19.57335,0.02491998,1.00369,0.94228
316.632,19.59446,0.02492,1.00312,0.94186
317.332,19.61565,0.02492,1.00487,0.94144
318.032,19.63685,0.02492,1.00643,0.94102
318.732,19.658,0.02492,1.00845,0.94059
319.432,19.6792,0.02492,1.00692,0.94017
320.132,19.70041,0.02492,1.00805,0.93975
320.832,19.72154,0.02491996,1.00708,0.93932
321.532,19.74279,0.02491897,1.00865,0.9389
322.232,19.764,0.02489961,1.01045,0.93847
322.932,19.7851,0.02444898,1.01092,0.93805
323.632,19.80625,0.02359832,1.01123,0.93762
324.332,19.82741,0.02364773,1.01158,0.9372
325.032,19.84855,0.02234646,1.01314,0.93677
325.732,19.86976,0.02229751,1.01527,0.93634
326.432,19.891,0.02094387,1.01551,0.93591
327.132,19.91226,0.02096679,1.01707,0.93548
327.832,19.93347,0.02096973,1.01609,0.93505
328.532,19.95475,0.02096998,1.01605,0.93462
329.232,19.97596,0.02097,1.01716,0.93419
329.932,19.99713,0.02097,1.0175,0.93376
330.632,20.01841,0.02097001,1.01938,0.93333
331.332,20.03968,0.02097005,1.01924,0.9329
332.032,20.06089,0.02096779,1.01912,0.93247
332.732,20.0822,0.02088061,1.0207,0.93203
333.432,20.10345,0.01959784,1.02016,0.9316
334.132,20.1247,0.01964639,1.02217,0.93117
334.832,20.146,0.01964978,1.02125,0.93073
335.532,20.16725,0.0196499,1.02134,0.9303
336.232,20.1885,0.01964912,1.02264,0.92986
336.932,20.20978,0.02117263,1.02244,0.92942
337.632,20.23106,0.02257023,1.02244,0.92899
338.332,20.25228,0.02390901,1.02185,0.92855
339.032,20.27355,0.02383003,1.02482,0.92811
339.732,20.29484,0.02386789,1.02629,0.92767
340.432,20.3161,0.02268815,1.0273,0.92724
341.132,20.33746,0.0225073,1.02703,0.9268
341.832,20.35882,0.02250208,1.02806,0.92636
342.532,20.3801,0.022839,1.02841,0.92592
343.232,20.4015,0.02269456,1.03011,0.92548
343.932,20.42279,0.02217724,1.03051,0.92503
344.632,20.44404,0.0218267,1.03133,0.92459
345.332,20.4653,0.02085404,1.03402,0.92415
346.032,20.48661,0.02086468,1.03465,0.92371
346.732,20.50791,0.01951198,1.03596,0.92326
347.432,20.5292,0.01820975,1.03733,0.92282
348.132,20.55053,0.01822038,1.03768,0.92238
348.832,20.57187,0.0182194,1.03947,0.92193
349.532,20.59323,0.01820311,1.04243,0.92149
350.232,20.61466,0.01780105,1.04054,0.92104
350.932,20.63609,0.0169044,1.04067,0.92059
351.632,20.65754,0.01690809,1.04494,0.92015
352.332,20.67894,0.01666065,1.04533,0.9197
353.032,20.7003,0.01559481,1.04324,0.91925
353.732,20.7218,0.01559144,1.04439,0.91881
354.432,20.74309,0.01559127,1.04393,0.91836
355.132,20.7645,0.01561204,1.04598,0.91791
355.832,20.78584,0.01502661,1.0456,0.91746
356.532,20.8072,0.01602981,1.04482,0.91701
357.232,20.82859,0.0162522,1.04721,0.91656
357.932,20.85003,0.0169123,1.0475,0.91611
358.632,20.87144,0.01756152,1.04788,0.91565
359.332,20.89284,0.01759251,1.04824,0.9152
360.032,20.9142,0.01898641,1.04717,0.91475
360.732,20.9356,0.01919099,1.04843,0.9143
361.432,20.95693,0.02022854,1.04904,0.91384
362.132,20.9784,0.02016486,1.04892,0.91339
362.832,20.99989,0.0215167,1.05071,0.91294
363.532,21.02139,0.02152234,1.05123,0.91248
364.232,21.04288,0.02151947,1.05108,0.91202
364.932,21.0643,0.02150403,1.05206,0.91157
365.632,21.08577,0.02113023,1.05346,0.91111
366.332,21.1072,0.02087072,1.0551,0.91066
367.032,21.12865,0.02086037,1.05478,0.9102
367.732,21.15014,0.02085995,1.05744,0.90974
368.432,21.1717,0.02085156,1.0585,0.90928
369.132,21.19315,0.02059968,1.05965,0.90882
369.832,21.21461,0.01954435,1.05862,0.90837
370.532,21.23609,0.01954967,1.06015,0.90791
371.232,21.2575,0.01954998,1.06351,0.90745
371.932,21.27896,0.01955,1.0647,0.90699
372.632,21.3005,0.01955003,1.06505,0.90652
373.332,21.322,0.01955187,1.06769,0.90606
374.032,21.34347,0.01883361,1.06955,0.9056
374.732,21.365,0.0168433,1.07137,0.90514
375.432,21.38648,0.01690637,1.07295,0.90468
376.132,21.40791,0.01690985,1.07493,0.90421
376.832,21.42945,0.01691,1.07763,0.90375
377.532,21.45092,0.01691,1.07914,0.90328
378.232,21.4724,0.01690997,1.08249,0.90282
378.932,21.49391,0.01690922,1.08586,0.90235
379.632,21.51545,0.01689645,1.08822,0.90189
380.332,21.53697,0.01649903,1.095,0.90142
381.032,21.55859,0.01557626,1.09682,0.90096
381.732,21.58016,0.01558991,1.10167,0.90049
382.432,21.6017,0.01503708,1.10483,0.90002
383.132,21.62321,0.01292929,1.10969,0.89956
383.832,21.6447,0.01213309,1.11216,0.89909
384.532,21.6661,0.01166639,1.11551,0.89862
385.232,21.68765,0.01050271,1.11688,0.89815
385.932,21.70918,0.01032357,1.12273,0.89768
386.632,21.7307,0.01032346,1.12576,0.89721
387.332,21.75231,0.0117241,1.13114,0.89674
388.032,21.77386,0.01164684,1.13579,0.89627
388.732,21.79543,0.01163861,1.14143,0.8958
389.432,21.81697,0.01161463,1.1469,0.89533
390.132,21.83858,0.01078242,1.15184,0.89485
390.832,21.8601,0.01032014,1.15873,0.89438
391.532,21.88166,0.01032007,1.16436,0.89391
392.232,21.90326,0.01031936,1.16783,0.89343
392.932,21.92486,0.0103073,1.17658,0.89296
393.632,21.9464,0.009953396,1.18218,0.89249
394.332,21.96796,0.008979392,1.18688,0.89201
395.032,21.98953,0.008999698,1.19423,0.89154
395.732,22.01101,0.009000042,1.20011,0.89106
396.432,22.03256,0.009000256,1.20344,0.89058
397.132,22.05415,0.009005598,1.21014,0.89011
397.832,22.07575,0.008058116,1.21753,0.88963
398.532,22.0974,0.00769975,1.2247,0.88915
399.232,22.11906,0.007725168,1.22806,0.88868
399.932,22.14067,0.006366059,1.23437,0.8882
400.632,22.16226,0.00628562,1.24157,0.88772
401.332,22.1839,0.004750827,1.24953,0.88724
402.032,22.2055,0.00371261,1.25855,0.88676
402.732,22.22718,0.002730846,1.26537,0.88628
403.432,22.24888,0.0005464975,1.27808,0.8858
404.132,22.2706,-0.002479366,1.29045,0.88532
404.832,22.29231,-0.006205092,1.29777,0.88484
405.532,22.314,-0.009564448,1.31004,0.88436
406.232,22.33567,-0.01222768,1.31825,0.88388
406.932,22.35735,-0.01487912,1.32024,0.88339
407.632,22.379,-0.01792286,1.32704,0.88291
408.332,22.40067,-0.02194344,1.33648,0.88243
409.032,22.42237,-0.02699079,1.34382,0.88195
409.732,22.44408,-0.03244141,1.34736,0.88146
410.432,22.46576,-0.03576195,1.3573,0.88098
411.132,22.48754,-0.03790048,1.36893,0.88049
411.832,22.50926,-0.0393478,1.37862,0.88001
412.532,22.53098,-0.04115563,1.38945,0.87952
413.232,22.5528,-0.04365499,1.39345,0.87904
413.932,22.5746,-0.04680814,1.40074,0.87855
414.632,22.59633,-0.04961108,1.40742,0.87806
415.332,22.61811,-0.05397004,1.41968,0.87758
416.032,22.63991,-0.059367,1.42866,0.87709
416.732,22.66168,-0.06441606,1.44531,0.8766
417.432,22.6835,-0.07014409,1.44775,0.87611
418.132,22.7053,-0.07787646,1.45201,0.87562
418.832,22.72702,-0.08498695,1.43495,0.87513
419.532,22.74875,-0.0919537,1.42327,0.87464
420.232,22.77049,-0.09706045,1.4083,0.87415
420.932,22.7922,-0.10298,1.39516,0.87366
421.632,22.81389,-0.10752,1.38839,0.87317
422.332,22.83566,-0.11463,1.36657,0.87268
423.032,22.85741,-0.12113,1.35141,0.87219
423.732,22.87927,-0.12837,1.34505,0.8717
424.432,22.90107,-0.13535,1.33391,0.87121
425.132,22.92285,-0.1422,1.33409,0.87071
425.832,22.94466,-0.15041,1.31931,0.87022
426.532,22.9664,-0.15862,1.31074,0.86973
427.232,22.9882,-0.16957,1.30219,0.86923
427.932,23.01005,-0.17897,1.29734,0.86874
428.632,23.03194,-0.19034,1.29888,0.86825
429.332,23.0538,-0.19936,1.31242,0.86775
430.032,23.07566,-0.21047,1.31423,0.86726
430.732,23.09747,-0.2211,1.31817,0.86676
431.432,23.11926,-0.23309,1.3298,0.86626
432.132,23.14101,-0.24387,1.33387,0.86577
432.832,23.1629,-0.25459,1.336,0.86527
433.532,23.18477,-0.26634,1.33703,0.86477
434.232,23.20664,-0.27869,1.34066,0.86428
434.932,23.22856,-0.29428,1.34396,0.86378
435.632,23.25046,-0.30828,1.33526,0.86328
436.332,23.27238,-0.32756,1.32348,0.86278
437.032,23.2943,-0.34317,1.31111,0.86228
437.732,23.31619,-0.3593,1.30094,0.86178
438.432,23.33804,-0.37187,1.29243,0.86128
439.132,23.35991,-0.38672,1.29616,0.86078
439.832,23.38175,-0.402,1.30628,0.86028
440.532,23.40363,-0.41819,1.32403,0.85978
441.232,23.42556,-0.4386,1.34444,0.85928
441.932,23.44745,-0.45729,1.36899,0.85878
442.632,23.46937,-0.48056,1.39194,0.85828
443.332,23.49137,-0.499,1.41824,0.85777
444.032,23.5134,-0.52221,1.45269,0.85727
444.732,23.5353,-0.54266,1.48827,0.85677
445.432,23.55729,-0.56894,1.52035,0.85627
446.132,23.57923,-0.59558,1.55826,0.85576
446.832,23.60118,-0.62382,1.6024,0.85526
447.532,23.62322,-0.65221,1.64492,0.85475
448.232,23.64527,-0.68032,1.68855,0.85425
448.932,23.6673,-0.71414,1.73005,0.85374
449.632,23.68929,-0.74537,1.77756,0.85324
450.332,23.71135,-0.7842,1.82214,0.85273
451.032,23.7333,-0.8164,1.86708,0.85223
451.732,23.75525,-0.85667,1.91469,0.85172
452.432,23.77729,-0.89176,1.95765,0.85121
453.132,23.79926,-0.93099,2.0029,0.85071
453.832,23.8214,-0.96997,2.04221,0.8502
454.532,23.84365,-1.01025,2.08033,0.84969
455.232,23.8659,-1.05685,2.11107,0.84918
455.932,23.88805,-1.09748,2.14052,0.84867
456.632,23.91,-1.1461,2.16225,0.84816
457.332,23.932,-1.18699,2.18949,0.84766
458.032,23.9541,-1.23953,2.21859,0.84715
458.732,23.97619,-1.28431,2.24054,0.84664
459.432,23.99842,-1.33679,2.26024,0.84613
460.132,24.02052,-1.38657,2.27674,0.84561
460.832,24.04253,-1.43727,2.28686,0.8451
461.532,24.06447,-1.4918,2.29924,0.84459
462.232,24.08661,-1.54129,2.30414,0.84408
462.932,24.1088,-1.60034,2.30754,0.84357
463.632,24.13111,-1.6533,2.31078,0.84306
464.332,24.1536,-1.7117,2.30591,0.84254
465.032,24.17594,-1.78121,2.29322,0.84203
465.732,24.1983,-1.83715,2.27993,0.84152
466.432,24.2205,-1.89223,2.2617,0.841
467.132,24.24267,-1.94637,2.24037,0.84049
467.832,24.26474,-1.99849,2.21047,0.83998
468.532,24.2868,-2.05292,2.1775,0.83946
469.232,24.30898,-2.10379,2.14058,0.83895
469.932,24.3311,-2.15609,2.10023,0.83843
470.632,24.3533,-2.20742,2.05512,0.83792
471.332,24.3754,-2.26095,2.00328,0.8374
472.032,24.39753,-2.3008,1.94842,0.83688
472.732,24.4197,-2.34642,1.89002,0.83637
473.432,24.44182,-2.39116,1.82913,0.83585
474.132,24.4639,-2.43219,1.76719,0.83533
474.832,24.48604,-2.47459,1.70194,0.83482
475.532,24.50808,-2.5096,1.6354,0.8343
476.232,24.53012,-2.5496,1.56662,0.83378
476.932,24.55224,-2.58129,1.49792,0.83326
477.632,24.57425,-2.61615,1.4291,0.83274
478.332,24.59637,-2.6436,1.35508,0.83222
479.032,24.61851,-2.67271,1.28874,0.83171
479.732,24.64059,-2.69911,1.21641,0.83119
480.432,24.66271,-2.72534,1.14734,0.83067
481.132,24.68476,-2.749,1.08157,0.83015
481.832,24.70682,-2.7678,1.02116,0.82963
482.532,24.7288,-2.78793,0.96196,0.8291
483.232,24.75091,-2.80318,0.90572,0.82858
483.932,24.773,-2.82005,0.85362,0.82806
484.632,24.79503,-2.83326,0.80345,0.82754
485.332,24.81713,-2.84861,0.75684,0.82702
486.032,24.83918,-2.86187,0.70941,0.8265
486.732,24.86121,-2.87315,0.6658,0.82597
487.432,24.88331,-2.88458,0.6266,0.82545
488.132,24.9054,-2.89422,0.58676,0.82493
488.832,24.92748,-2.90467,0.55077,0.8244
489.532,24.94962,-2.91263,0.51572,0.82388
490.232,24.97176,-2.92212,0.48275,0.82336
490.932,24.9939,-2.92927,0.45148,0.82283
491.632,25.01605,-2.93681,0.41981,0.82231
492.332,25.03818,-2.94226,0.3905,0.82178
493.032,25.06031,-2.94897,0.36168,0.82126
493.732,25.08248,-2.95595,0.33716,0.82073
494.432,25.10462,-2.96199,0.31339,0.8202
495.132,25.1268,-2.9688,0.2897,0.81968
495.832,25.14892,-2.9741,0.268,0.81915
496.532,25.17106,-2.97987,0.24522,0.81863
497.232,25.19316,-2.98397,0.22582,0.8181
497.932,25.2153,-2.98859,0.2064,0.81757
498.632,25.23752,-2.99276,0.18865,0.81704
499.332,25.25977,-2.99672,0.16837,0.81652
500.032,25.28209,-2.99979,0.15211,0.81599
500.732,25.30416,-3.00319,0.13894,0.81546
501.432,25.32636,-3.00582,0.12391,0.81493
502.132,25.34845,-3.00936,0.11108,0.8144
502.832,25.37063,-3.0124,0.09624179,0.81387
503.532,25.393,-3.01551,0.08520191,0.81334
504.232,25.41525,-3.01843,0.07378378,0.81281
504.932,25.43754,-3.02137,0.06217575,0.81228
505.632,25.45981,-3.02351,0.05416632,0.81175
506.332,25.48208,-3.02579,0.04291004,0.81122
507.032,25.5043,-3.0275,0.03368106,0.81069
507.732,25.5265,-3.02973,0.02236783,0.81016
508.432,25.54877,-3.03282,0.01587206,0.80963
509.132,25.57104,-3.03438,0.01145122,0.8091
509.832,25.59336,-3.03656,0.00404992,0.80857
510.532,25.6156,-3.03829,-0.002221577,0.80803
511.232,25.6377,-3.03943,-0.01006887,0.8075
511.932,25.66,-3.04078,-0.01354134,0.80697
512.632,25.68223,-3.04278,-0.01982739,0.80643
513.332,25.70453,-3.04536,-0.02366631,0.8059
514.032,25.72701,-3.0482,-0.02538605,0.80537
514.732,25.74924,-3.05084,-0.02951805,0.80483
515.432,25.77157,-3.0526,-0.03249159,0.8043
516.132,25.794,-3.05374,-0.03291621,0.80377
516.832,25.8163,-3.05489,-0.03201294,0.80323
517.532,25.83867,-3.05603,-0.03633624,0.8027
518.232,25.861,-3.05751,-0.03708416,0.80216
518.932,25.88326,-3.05902,-0.03680263,0.80163
519.632,25.90557,-3.06079,-0.03715081,0.80109
520.332,25.92786,-3.06152,-0.03178329,0.80055
521.032,25.9502,-3.06253,-0.02430776,0.80002
521.732,25.9725,-3.06382,-0.01646902,0.79948
522.432,25.99481,-3.0665,-0.0126983,0.79895
523.132,26.01711,-3.06638,-0.006029181,0.79841
523.832,26.03943,-3.06857,-0.00211281,0.79787
524.532,26.0617,-3.06906,0.003767773,0.79733
525.232,26.08406,-3.07032,0.00775757,0.7968
525.932,26.10644,-3.07163,0.01270451,0.79626
526.632,26.12886,-3.07283,0.01196416,0.79572
527.332,26.15139,-3.07457,0.0127714,0.79518
528.032,26.17386,-3.07617,0.01213564,0.79464
528.732,26.19625,-3.07789,0.01192073,0.7941
529.432,26.2186,-3.07941,0.01410029,0.79357
530.132,26.24103,-3.0796,0.01246843,0.79303
530.832,26.26342,-3.0802,0.01320843,0.79249
531.532,26.28593,-3.08016,0.01296219,0.79195
532.232,26.30837,-3.08104,0.01154362,0.79141
532.932,26.33085,-3.08138,0.01364103,0.79087
533.632,26.35333,-3.0811,0.01277651,0.79033
534.332,26.37562,-3.0826,0.0106525,0.78979
535.032,26.39801,-3.08298,0.010826,0.78924
535.732,26.4203,-3.0828,0.0103863,0.7887
536.432,26.4427,-3.0825,0.01092657,0.78816
537.132,26.4652,-3.0825,0.0108028,0.78762
537.832,26.4877,-3.08249,0.01144766,0.78708
538.532,26.5103,-3.08249,0.009201245,0.78654
539.232,26.5328,-3.08366,0.009762981,0.78599
539.932,26.5552,-3.08381,0.01029898,0.78545
540.632,26.5777,-3.08381,0.009086356,0.78491
541.332,26.60022,-3.08381,0.009470121,0.78437
542.032,26.62282,-3.08642,0.008558844,0.78382
542.732,26.6456,-3.08651,0.009362562,0.78328
543.432,26.66818,-3.08791,0.008523292,0.78273
544.132,26.6908,-3.08944,0.00974477,0.78219
544.832,26.7134,-3.09071,0.00253673,0.78165
545.532,26.73595,-3.09213,-0.03207369,0.7811
546.232,26.7586,-3.09402,-0.04664103,0.78056
546.932,26.78112,-3.09702,-0.04671128,0.78001
547.632,26.8037,-3.09696,-0.03253133,0.77947
548.332,26.8262,-3.097,-0.005969067,0.77892
549.032,26.84869,-3.09585,0.00916896,0.77838
549.732,26.87118,-3.09716,0.01963458,0.77783
550.432,26.89377,-3.0959,0.02627982,0.77729
551.132,26.91638,-3.09648,0.02689225,0.77674
551.832,26.939,-3.09632,0.02617867,0.77619
552.532,26.96167,-3.09712,0.02640424,0.77565
553.232,26.98423,-3.09734,0.02284215,0.7751
553.932,27.0068,-3.09877,0.02212223,0.77455
554.632,27.0294,-3.09777,0.01495299,0.77401
555.332,27.05207,-3.09777,0.009987447,0.77346
556.032,27.0746,-3.09917,0.009914032,0.77291
556.732,27.09726,-3.09908,0.004639882,0.77236
557.432,27.11986,-3.09908,0.0002826052,0.77182
558.132,27.14242,-3.09908,-0.004788635,0.77127
558.832,27.1651,-3.09892,-0.004700079,0.77072
559.532,27.18773,-3.09922,-0.008083922,0.77017
560.232,27.2104,-3.09872,-0.01273602,0.76962
560.932,27.23303,-3.09873,-0.01712525,0.76907
561.632,27.25559,-3.09875,-0.0187954,0.76852
562.332,27.2781,-3.09924,-0.02081586,0.76797
563.032,27.30065,-3.10006,-0.02035303,0.76742
563.732,27.32323,-3.10006,-0.02207747,0.76687
564.432,27.3459,-3.10006,-0.02288679,0.76632
565.132,27.3687,-3.10006,-0.02661757,0.76577
565.832,27.3914,-3.10016,-0.02887231,0.76522
566.532,27.41415,-3.1014,-0.03033906,0.76467
567.232,27.4368,-3.10181,-0.03131353,0.76412
567.932,27.45945,-3.10234,-0.03411978,0.76357
568.632,27.4821,-3.1037,-0.0355202,0.76302
569.332,27.5048,-3.10369,-0.03560468,0.76247
570.032,27.5275,-3.10369,-0.03776966,0.76192
570.732,27.55017,-3.10402,-0.03924275,0.76137
571.432,27.57289,-3.10497,-0.0398442,0.76081
572.132,27.5956,-3.10486,-0.04097263,0.76026
572.832,27.6183,-3.10657,-0.04390052,0.75971
573.532,27.641,-3.10837,-0.0426734,0.75916
574.232,27.66371,-3.11001,-0.04335063,0.75861
574.932,27.68645,-3.11133,-0.04539559,0.75805
575.632,27.7091,-3.111,-0.04774,0.7575
576.332,27.73178,-3.10995,-0.04686166,0.75695
577.032,27.7545,-3.10967,-0.04786364,0.75639
577.732,27.77722,-3.10981,-0.04947255,0.75584
578.432,27.80002,-3.10995,-0.05115483,0.75529
579.132,27.8228,-3.10849,-0.05393885,0.75473
579.832,27.8455,-3.10803,-0.05652306,0.75418
580.532,27.8682,-3.10801,-0.05781576,0.75362
581.232,27.891,-3.10851,-0.05919973,0.75307
581.932,27.9137,-3.10851,-0.06100213,0.75251
582.632,27.93652,-3.10851,-0.06193617,0.75196
583.332,27.95931,-3.10851,-0.06202409,0.7514
584.032,27.98211,-3.10851,-0.06435003,0.75085
584.732,28.0049,-3.10853,-0.06485575,0.75029
585.432,28.02768,-3.10927,-0.06590616,0.74974
586.132,28.05048,-3.10983,-0.06621611,0.74918
586.832,28.07327,-3.10983,-0.06876199,0.74863
587.532,28.0961,-3.10985,-0.07217516,0.74807
588.232,28.11882,-3.11041,-0.0735082,0.74752
588.932,28.14159,-3.11225,-0.07514808,0.74696
589.632,28.1644,-3.11247,-0.07670874,0.7464
590.332,28.1872,-3.11247,-0.07761277,0.74585
591.032,28.21005,-3.11247,-0.08222529,0.74529
591.732,28.2329,-3.1126,-0.08392016,0.74473
592.432,28.25565,-3.11382,-0.08375281,0.74418
593.132,28.27849,-3.11378,-0.08364407,0.74362
593.832,28.3014,-3.11373,-0.0882959,0.74306
594.532,28.3243,-3.11243,-0.08762066,0.7425
595.232,28.3472,-3.11317,-0.08962699,0.74195
595.932,28.36976,-3.11378,-0.09238325,0.74139
596.632,28.39231,-3.11465,-0.09235308,0.74083
597.332,28.415,-3.11521,-0.09497101,0.74027
598.032,28.43768,-3.11454,-0.09778201,0.73971
598.732,28.4606,-3.1152,-0.09739165,0.73916
599.432,28.4836,-3.11654,-0.09631967,0.7386
600.132,28.5065,-3.11814,-0.09777295,0.73804
600.832,28.52948,-3.11959,-0.10001,0.73748
601.532,28.5526,-3.12224,-0.10062,0.73692
602.232,28.5755,-3.1237,-0.10303,0.73636
602.932,28.5984,-3.12532,-0.10235,0.7358
603.632,28.6213,-3.12653,-0.10351,0.73524
604.332,28.6442,-3.12739,-0.10489,0.73468
605.032,28.66709,-3.12899,-0.10419,0.73412
605.732,28.68996,-3.12936,-0.10427,0.73356
606.432,28.7129,-3.13166,-0.10493,0.733
607.132,28.73568,-3.13167,-0.10729,0.73244
607.832,28.7586,-3.13162,-0.10779,0.73188
608.532,28.7814,-3.13303,-0.10903,0.73132
609.232,28.80415,-3.13177,-0.10991,0.73076
609.932,28.82702,-3.13168,-0.11301,0.7302
610.632,28.8498,-3.13168,-0.11417,0.72964
611.332,28.8728,-3.13031,-0.11432,0.72908
612.032,28.89579,-3.13036,-0.11602,0.72852
612.732,28.9187,-3.12913,-0.11678,0.72796
613.432,28.94163,-3.12904,-0.11978,0.72739
614.132,28.96448,-3.12904,-0.11894,0.72683
614.832,28.98735,-3.12904,-0.11945,0.72627
615.532,29.01026,-3.12904,-0.11967,0.72571
616.232,29.03316,-3.12904,-0.12215,0.72515
616.932,29.0561,-3.12904,-0.12272,0.72458
617.632,29.0791,-3.12903,-0.12178,0.72402
618.332,29.10205,-3.12821,-0.12369,0.72346
619.032,29.12492,-3.12773,-0.12346,0.7229
619.732,29.14772,-3.12787,-0.12165,0.72233
620.432,29.1706,-3.12925,-0.12263,0.72177
621.132,29.1935,-3.13084,-0.12451,0.72121
621.832,29.2165,-3.13224,-0.1225,0.72065
622.532,29.23957,-3.13385,-0.12117,0.72008
623.232,29.26245,-3.13476,-0.12282,0.71952
623.932,29.2854,-3.13519,-0.12499,0.71896
624.632,29.3084,-3.13661,-0.12283,0.71839
625.332,29.33125,-3.13529,-0.12361,0.71783
626.032,29.35422,-3.1368,-0.12329,0.71727
626.732,29.37718,-3.13743,-0.12416,0.7167
627.432,29.4001,-3.13804,-0.12178,0.71614
628.132,29.42308,-3.13798,-0.12232,0.71557
628.832,29.446,-3.13932,-0.12149,0.71501
629.532,29.4689,-3.13936,-0.12237,0.71445
630.232,29.4918,-3.13983,-0.12268,0.71388
630.932,29.51478,-3.14193,-0.12077,0.71332
631.632,29.53779,-3.14278,-0.12017,0.71275
632.332,29.56076,-3.14403,-0.11765,0.71219
633.032,29.5838,-3.1448,-0.11975,0.71162
633.732,29.6068,-3.14598,-0.11984,0.71106
634.432,29.6298,-3.14595,-0.11947,0.71049
635.132,29.6528,-3.14535,-0.11959,0.70993
635.832,29.67574,-3.14465,-0.1199,0.70936
636.532,29.69872,-3.14463,-0.11943,0.7088
637.232,29.72161,-3.14463,-0.12062,0.70823
637.932,29.7446,-3.14463,-0.11909,0.70766
638.632,29.7676,-3.14463,-0.12,0.7071
639.332,29.7906,-3.14463,-0.11966,0.70653
640.032,29.81359,-3.14463,-0.12029,0.70597
640.732,29.8366,-3.1447,-0.12093,0.7054
641.432,29.8595,-3.14396,-0.11961,0.70484
642.132,29.88255,-3.14397,-0.11791,0.70427
642.832,29.9055,-3.14397,-0.11961,0.7037
643.532,29.92847,-3.14397,-0.11966,0.70314
644.232,29.9515,-3.1445,-0.12048,0.70257
644.932,29.97454,-3.14594,-0.11813,0.702
645.632,29.99755,-3.14743,-0.11755,0.70144
646.332,30.0204,-3.14902,-0.1142,0.70087
647.032,30.0433,-3.14902,-0.11717,0.7003
647.732,30.0663,-3.14892,-0.11855,0.69974
648.432,30.0892,-3.15034,-0.11699,0.69917
649.132,30.1123,-3.15034,-0.11337,0.6986
649.832,30.13535,-3.15029,-0.11568,0.69803
650.532,30.15832,-3.1516,-0.11731,0.69747
651.232,30.1813,-3.15212,-0.11704,0.6969
651.932,30.2043,-3.15305,-0.11645,0.69633
652.632,30.2273,-3.15425,-0.11676,0.69576
653.332,30.25028,-3.15374,-0.11624,0.6952
654.032,30.27331,-3.15374,-0.11645,0.69463
654.732,30.2963,-3.15371,-0.11563,0.69406
655.432,30.3193,-3.15282,-0.1151,0.69349
656.132,30.3423,-3.15103,-0.12054,0.69292
656.832,30.36536,-3.1511,-0.1209,0.69236
657.532,30.3883,-3.15111,-0.121,0.69179
658.232,30.4113,-3.15111,-0.12131,0.69122
658.932,30.43429,-3.15261,-0.11847,0.69065
659.632,30.4572,-3.1542,-0.12079,0.69008
660.332,30.4802,-3.15629,-0.12198,0.68951
661.032,30.50317,-3.15779,-0.12427,0.68895
661.732,30.5262,-3.15838,-0.12169,0.68838
662.432,30.54924,-3.15936,-0.11955,0.68781
663.132,30.5722,-3.15935,-0.12217,0.68724
663.832,30.59528,-3.15935,-0.12383,0.68667
664.532,30.6182,-3.15937,-0.12531,0.6861
665.232,30.6412,-3.16043,-0.12447,0.68553
665.932,30.66429,-3.16059,-0.128,0.68496
666.632,30.68725,-3.16222,-0.13085,0.68439
667.332,30.7104,-3.16264,-0.12841,0.68383
668.032,30.73344,-3.16263,-0.12985,0.68326
668.732,30.75641,-3.16263,-0.13159,0.68269
669.432,30.7795,-3.16263,-0.13294,0.68212
670.132,30.80248,-3.16263,-0.1329,0.68155
670.832,30.82558,-3.16161,-0.13488,0.68098
671.532,30.8486,-3.16175,-0.13462,0.68041
672.232,30.87163,-3.16044,-0.13218,0.67984
672.932,30.89465,-3.16046,-0.13403,0.67927
673.632,30.9177,-3.16121,-0.1372,0.6787
674.332,30.94073,-3.16174,-0.13933,0.67813
675.032,30.96378,-3.16272,-0.14013,0.67756
675.732,30.98684,-3.16306,-0.14019,0.67699
676.432,31.00988,-3.16307,-0.14164,0.67642
677.132,31.033,-3.16304,-0.14503,0.67585
677.832,31.0561,-3.1642,-0.14586,0.67528
678.532,31.0791,-3.16439,-0.14947,0.67471
679.232,31.10218,-3.16439,-0.14987,0.67414
679.932,31.1252,-3.16439,-0.15147,0.67357
680.632,31.1482,-3.16456,-0.15454,0.673
681.332,31.17118,-3.16606,-0.15464,0.67243
682.032,31.19424,-3.16637,-0.15742,0.67186
682.732,31.2173,-3.16797,-0.15726,0.67129
683.432,31.2404,-3.16791,-0.16093,0.67072
684.132,31.26347,-3.16933,-0.1593,0.67015
684.832,31.28649,-3.16924,-0.16167,0.66957
685.532,31.3096,-3.16923,-0.16268,0.669
686.232,31.33264,-3.16915,-0.16551,0.66843
686.932,31.3556,-3.16891,-0.16549,0.66786
687.632,31.3788,-3.1689,-0.16862,0.66729
688.332,31.4017,-3.16751,-0.17042,0.66672
689.032,31.42458,-3.1676,-0.16924,0.66615
689.732,31.44779,-3.16843,-0.17318,0.66558
690.432,31.4708,-3.16954,-0.17854,0.66501
691.132,31.49415,-3.17066,-0.18513,0.66444
691.832,31.51744,-3.17202,-0.18578,0.66386
692.532,31.54058,-3.17197,-0.18736,0.66329
693.232,31.56366,-3.17197,-0.18987,0.66272
693.932,31.58677,-3.17192,-0.18889,0.66215
694.632,31.6098,-3.17328,-0.1902,0.66158
695.332,31.63288,-3.17323,-0.19213,0.66101
696.032,31.65602,-3.17456,-0.19647,0.66044
696.732,31.6791,-3.1746,-0.19566,0.65987
697.432,31.70229,-3.1746,-0.19764,0.65929
698.132,31.72542,-3.1746,-0.19906,0.65872
698.832,31.74853,-3.1746,-0.2004,0.65815
699.532,31.77161,-3.17509,-0.20199,0.65758
700.232,31.7947,-3.17599,-0.20429,0.65701
700.932,31.81782,-3.1768,-0.20712,0.65644
701.632,31.841,-3.17658,-0.20806,0.65586
702.332,31.86415,-3.17753,-0.20904,0.65529
703.032,31.8873,-3.17756,-0.21117,0.65472
703.732,31.9104,-3.17756,-0.21396,0.65415
704.432,31.93358,-3.17756,-0.2156,0.65358
705.132,31.95675,-3.17757,-0.21763,0.65301
705.832,31.97993,-3.17789,-0.21952,0.65243
706.532,32.00308,-3.17821,-0.22376,0.65186
707.232,32.02616,-3.17822,-0.22509,0.65129
707.932,32.0493,-3.17822,-0.2275,0.65072
708.632,32.0724,-3.17761,-0.23314,0.65015
709.332,32.09552,-3.17666,-0.23445,0.64957
710.032,32.11867,-3.17515,-0.2395,0.649
710.732,32.1419,-3.17355,-0.24166,0.64843
711.432,32.165,-3.17206,-0.24668,0.64786
712.132,32.18825,-3.1705,-0.24879,0.64729
712.832,32.21151,-3.17066,-0.25263,0.64671
713.532,32.23474,-3.17035,-0.25548,0.64614
714.232,32.25797,-3.17111,-0.25668,0.64557
714.932,32.28116,-3.17164,-0.25837,0.645
715.632,32.30437,-3.17317,-0.26084,0.64443
716.332,32.32754,-3.17428,-0.26266,0.64385
717.032,32.35076,-3.17591,-0.27121,0.64328
717.732,32.37395,-3.1774,-0.27059,0.64271
718.432,32.39713,-3.17813,-0.27278,0.64214
719.132,32.4204,-3.17889,-0.27779,0.64157
719.832,32.44359,-3.18031,-0.28147,0.64099
720.532,32.4668,-3.18021,-0.2856,0.64042
721.232,32.49004,-3.18021,-0.28697,0.63985
721.932,32.5133,-3.18024,-0.28848,0.63928
722.632,32.53645,-3.17906,-0.2923,0.6387
723.332,32.55962,-3.17889,-0.29994,0.63813
724.032,32.58272,-3.17769,-0.30075,0.63756
724.732,32.60582,-3.17746,-0.28831,0.63699
725.432,32.62911,-3.17745,-0.29047,0.63642
726.132,32.65247,-3.1763,-0.29604,0.63584
726.832,32.67588,-3.17614,-0.30227,0.63527
727.532,32.69917,-3.17587,-0.30596,0.6347
728.232,32.72238,-3.17484,-0.31079,0.63413
728.932,32.74564,-3.17481,-0.31757,0.63355
729.632,32.76897,-3.17426,-0.3196,0.63298
730.332,32.79238,-3.17353,-0.32617,0.63241
731.032,32.81566,-3.17502,-0.33033,0.63184
731.732,32.83899,-3.17639,-0.33321,0.63127
732.432,32.86225,-3.17705,-0.33897,0.63069
733.132,32.88556,-3.17787,-0.34254,0.63012
733.832,32.9089,-3.17918,-0.3485,0.62955
734.532,32.93223,-3.17858,-0.35422,0.62898
735.232,32.9556,-3.17856,-0.3579,0.6284
735.932,32.9789,-3.17856,-0.36293,0.62783
736.632,33.00221,-3.17856,-0.36819,0.62726
737.332,33.02544,-3.17856,-0.37195,0.62669
738.032,33.04872,-3.17856,-0.37577,0.62612
738.732,33.07205,-3.17856,-0.38131,0.62554
739.432,33.09532,-3.17856,-0.38497,0.62497
740.132,33.11865,-3.17856,-0.39102,0.6244
740.832,33.14195,-3.17857,-0.3953,0.62383
741.532,33.1653,-3.17887,-0.40205,0.62326
742.232,33.18865,-3.18034,-0.40712,0.62268
742.932,33.21198,-3.18083,-0.41304,0.62211
743.632,33.23534,-3.18143,-0.42168,0.62154
744.332,33.25869,-3.18178,-0.42478,0.62097
745.032,33.28204,-3.18344,-0.4291,0.6204
745.732,33.30536,-3.18457,-0.43325,0.61982
746.432,33.32869,-3.18339,-0.44035,0.61925
747.132,33.35203,-3.18339,-0.44336,0.61868
747.832,33.37539,-3.18339,-0.45093,0.61811
748.532,33.39877,-3.18339,-0.4519,0.61754
749.232,33.42215,-3.18339,-0.4579,0.61696
749.932,33.44553,-3.1843,-0.46101,0.61639
750.632,33.46891,-3.18468,-0.46689,0.61582
751.332,33.4923,-3.18608,-0.47411,0.61525
752.032,33.51566,-3.18613,-0.48242,0.61468
752.732,33.539,-3.18461,-0.48314,0.6141
753.432,33.56224,-3.18403,-0.49425,0.61353
754.132,33.58555,-3.1832,-0.49988,0.61296
754.832,33.60892,-3.18317,-0.50533,0.61239
755.532,33.63228,-3.18177,-0.51209,0.61182
756.232,33.65573,-3.18184,-0.51818,0.61125
756.932,33.67918,-3.18185,-0.52437,0.61067
757.632,33.70245,-3.18185,-0.52704,0.6101
758.332,33.72579,-3.18185,-0.53446,0.60953
759.032,33.74917,-3.18185,-0.53832,0.60896
759.732,33.77262,-3.18325,-0.54348,0.60839
760.432,33.7961,-3.18317,-0.55077,0.60782
761.132,33.8196,-3.18316,-0.55266,0.60725
761.832,33.8429,-3.18316,-0.55789,0.60667
762.532,33.86611,-3.18318,-0.56388,0.6061
763.232,33.8895,-3.18219,-0.56808,0.60553
763.932,33.91301,-3.18217,-0.57538,0.60496
764.632,33.93635,-3.18217,-0.58231,0.60439
765.332,33.95984,-3.18217,-0.58618,0.60382
766.032,33.98319,-3.1822,-0.59234,0.60325
766.732,34.00651,-3.18102,-0.59657,0.60268
767.432,34.02998,-3.18086,-0.60212,0.6021
768.132,34.05337,-3.18237,-0.60493,0.60153
768.832,34.07675,-3.18296,-0.61035,0.60096
769.532,34.10009,-3.18481,-0.6149,0.60039
770.232,34.12337,-3.18575,-0.61817,0.59982
770.932,34.14673,-3.18612,-0.62679,0.59925
771.632,34.17006,-3.18613,-0.62904,0.59868
772.332,34.19342,-3.18613,-0.63167,0.59811
773.032,34.21683,-3.18614,-0.63671,0.59754
773.732,34.24025,-3.18647,-0.64492,0.59697
774.432,34.26365,-3.18587,-0.64634,0.5964
775.132,34.28709,-3.18549,-0.65197,0.59583
775.832,34.31051,-3.18548,-0.6541,0.59526
776.532,34.33385,-3.1855,-0.65903,0.59469
777.232,34.35729,-3.18623,-0.6609,0.59411
777.932,34.38073,-3.18646,-0.66615,0.59354
778.632,34.40416,-3.18646,-0.66435,0.59297
779.332,34.42754,-3.18646,-0.66609,0.5924
780.032,34.45093,-3.18646,-0.67291,0.59183
780.732,34.47426,-3.18638,-0.67617,0.59126
781.432,34.49749,-3.18776,-0.68276,0.59069
782.132,34.521,-3.18778,-0.6849,0.59012
782.832,34.5444,-3.18783,-0.69017,0.58955
783.532,34.56794,-3.18913,-0.68939,0.58898
784.232,34.59148,-3.1892,-0.69384,0.58841
784.932,34.61488,-3.19043,-0.69735,0.58784
785.632,34.63828,-3.19042,-0.69925,0.58727
786.332,34.6616,-3.19042,-0.70011,0.5867
787.032,34.6852,-3.19042,-0.70279,0.58614
787.732,34.70863,-3.19042,-0.70766,0.58557
788.432,34.73211,-3.19042,-0.71114,0.585
789.132,34.75557,-3.19039,-0.71035,0.58443
789.832,34.77901,-3.18952,-0.7123,0.58386
790.532,34.8025,-3.1891,-0.71779,0.58329
791.232,34.82591,-3.1891,-0.71996,0.58272
791.932,34.84935,-3.1891,-0.721,0.58215
792.632,34.87272,-3.18875,-0.7236,0.58158
793.332,34.89613,-3.18831,-0.72535,0.58101
794.032,34.91953,-3.18838,-0.72208,0.58044
794.732,34.94295,-3.18715,-0.72168,0.57987
795.432,34.9664,-3.18711,-0.72539,0.57931
796.132,34.9899,-3.18756,-0.7259,0.57874
796.432,34.99984,-3.18756,-0.7262,0.57849