File: 01_Data/Bean_Bag_Chair_Inner_Lining/STA/N2/30K_min/Bean_Bag_Liner_STA_N2_30KData_220517_R2.csv
##Temp./Â°C,Time/min,Mass loss(subtr.2)/mg,DSC(subtr.2)/(mW/mg),Sensit./(uV/mW)
48.675,10.01,0.01548,0.01598611,1.05398
49.375,10.56081,0.01674676,0.06525799,1.05384
50.075,10.68595,0.01703171,0.10575,1.0537
50.775,10.77551,0.01731114,0.13928,1.05355
51.475,10.84848,0.01714821,0.17293,1.05341
52.175,10.91217,0.018049,0.20284,1.05326
52.875,10.96899,0.01785389,0.2293,1.05312
53.575,11.0213,0.01822871,0.25412,1.05297
54.275,11.0694,0.01792234,0.28006,1.05282
54.975,11.11437,0.01719195,0.30144,1.05267
55.675,11.1572,0.01838761,0.32197,1.05252
56.375,11.19775,0.01894404,0.3458,1.05237
57.075,11.23695,0.0184461,0.36169,1.05222
57.775,11.2746,0.0181039,0.37897,1.05206
58.475,11.31061,0.01910442,0.39635,1.05191
59.175,11.34591,0.01864167,0.41516,1.05176
59.875,11.38012,0.01887903,0.43139,1.0516
60.575,11.4137,0.02021868,0.44509,1.05145
61.275,11.44621,0.01930012,0.46356,1.05129
61.975,11.4781,0.01871664,0.47704,1.05113
62.675,11.5094,0.0185609,0.49085,1.05097
63.375,11.54027,0.0190958,0.50354,1.05081
64.075,11.57043,0.01812239,0.51683,1.05065
64.775,11.60031,0.01888087,0.52888,1.05049
65.475,11.6297,0.01956095,0.5397,1.05033
66.175,11.65897,0.01886845,0.55214,1.05016
66.875,11.68763,0.01963556,0.56548,1.05
67.575,11.71595,0.02001239,0.57526,1.04983
68.275,11.7439,0.01959667,0.5838,1.04967
68.975,11.77167,0.02035764,0.59793,1.0495
69.675,11.79924,0.02094492,0.60733,1.04933
70.375,11.8264,0.02021619,0.61829,1.04916
71.075,11.8535,0.01869726,0.62911,1.04899
71.775,11.88031,0.01843856,0.63762,1.04882
72.475,11.9072,0.01869762,0.64751,1.04865
73.175,11.9337,0.01999979,0.66213,1.04848
73.875,11.95995,0.02041882,0.66745,1.04831
74.575,11.98621,0.020213,0.67873,1.04813
75.275,12.01227,0.01879788,0.68627,1.04796
75.975,12.03825,0.01848085,0.69499,1.04778
76.675,12.06407,0.01961941,0.70409,1.04761
77.375,12.08975,0.02017927,0.70848,1.04743
78.075,12.1153,0.02020102,0.71157,1.04725
78.775,12.14063,0.02029049,0.71812,1.04707
79.475,12.16585,0.02010114,0.72225,1.04689
80.175,12.19098,0.0184449,0.72314,1.04671
80.875,12.21602,0.01895135,0.72327,1.04653
81.575,12.24107,0.02037234,0.72319,1.04635
82.275,12.26614,0.02102417,0.72278,1.04616
82.975,12.29102,0.02042953,0.72275,1.04598
83.675,12.31587,0.02028747,0.71858,1.04579
84.375,12.34048,0.01982664,0.71856,1.04561
85.075,12.36505,0.02021374,0.71621,1.04542
85.775,12.3895,0.01880902,0.71786,1.04523
86.475,12.414,0.02018893,0.71522,1.04505
87.175,12.43827,0.02008457,0.715,1.04486
87.875,12.46257,0.02020997,0.71281,1.04467
88.575,12.48677,0.02170747,0.71402,1.04447
89.275,12.5109,0.02157673,0.71303,1.04428
89.975,12.53492,0.02171279,0.7119,1.04409
90.675,12.55897,0.02137626,0.71499,1.0439
91.375,12.583,0.02057738,0.71378,1.0437
92.075,12.6069,0.02160996,0.71301,1.04351
92.775,12.63081,0.02059084,0.71459,1.04331
93.475,12.65461,0.02172395,0.71488,1.04311
94.175,12.67838,0.02161461,0.71398,1.04291
94.875,12.70224,0.02046384,0.71477,1.04272
95.575,12.72601,0.02143521,0.71516,1.04252
96.275,12.74973,0.02162562,0.71632,1.04232
96.975,12.77352,0.02035739,0.71845,1.04211
97.675,12.79715,0.0216103,0.71979,1.04191
98.375,12.8208,0.02161304,0.72283,1.04171
99.075,12.84442,0.02144704,0.72638,1.0415
99.775,12.86793,0.02161535,0.72886,1.0413
100.475,12.89145,0.02164217,0.72878,1.04109
101.175,12.91491,0.02199321,0.73271,1.04089
101.875,12.93833,0.02163667,0.73687,1.04068
102.575,12.96181,0.02162979,0.73826,1.04047
103.275,12.9854,0.02163362,0.74198,1.04026
103.975,13.009,0.02165603,0.74412,1.04005
104.675,13.03255,0.0202637,0.74807,1.03984
105.375,13.05598,0.02033378,0.75252,1.03963
106.075,13.0794,0.02124627,0.75796,1.03942
106.775,13.1028,0.02139916,0.76152,1.03921
107.475,13.12626,0.02030142,0.76631,1.03899
108.175,13.14969,0.02162014,0.7682,1.03878
108.875,13.17305,0.02026406,0.7735,1.03856
109.575,13.1964,0.02025476,0.78001,1.03835
110.275,13.2198,0.02161307,0.78339,1.03813
110.975,13.2432,0.02162356,0.78922,1.03791
111.675,13.26653,0.02162018,0.79372,1.03769
112.375,13.2899,0.02162,0.79921,1.03747
113.075,13.3131,0.02160911,0.80311,1.03725
113.775,13.33646,0.02087069,0.80816,1.03703
114.475,13.3598,0.02162991,0.81344,1.03681
115.175,13.38313,0.02166283,0.81784,1.03658
115.875,13.4065,0.02047444,0.82228,1.03636
116.575,13.4299,0.02031032,0.82748,1.03613
117.275,13.45321,0.02030974,0.83183,1.03591
117.975,13.4765,0.02030999,0.8368,1.03568
118.675,13.49974,0.02031,0.83964,1.03546
119.375,13.5229,0.02031008,0.84639,1.03523
120.075,13.546,0.02031185,0.84974,1.035
120.775,13.56906,0.02032207,0.85618,1.03477
121.475,13.5921,0.02144803,0.85963,1.03454
122.175,13.61514,0.02074706,0.86512,1.03431
122.875,13.63827,0.02024769,0.87163,1.03408
123.575,13.66138,0.02163424,0.87536,1.03384
124.275,13.6845,0.02163048,0.87549,1.03361
124.975,13.7075,0.02163003,0.88222,1.03337
125.675,13.73054,0.02162996,0.88754,1.03314
126.375,13.7536,0.02162562,0.89169,1.0329
127.075,13.77646,0.02154497,0.89643,1.03267
127.775,13.7994,0.02168863,0.90194,1.03243
128.475,13.8223,0.02098102,0.90529,1.03219
129.175,13.8451,0.02097129,0.90954,1.03195
129.875,13.868,0.02097532,0.91322,1.03171
130.575,13.89091,0.02132805,0.91778,1.03147
131.275,13.91364,0.0216574,0.92222,1.03123
131.975,13.9365,0.02069762,0.92632,1.03098
132.675,13.9593,0.02064063,0.92782,1.03074
133.375,13.98196,0.02063701,0.93211,1.0305
134.075,14.0047,0.02054484,0.93881,1.03025
134.775,14.02733,0.02168618,0.94059,1.03001
135.475,14.05,0.02163002,0.94588,1.02976
136.175,14.07262,0.02126484,0.95166,1.02951
136.875,14.0952,0.02123922,0.95315,1.02926
137.575,14.11774,0.02087501,0.95792,1.02901
138.275,14.1402,0.02031016,0.96288,1.02876
138.975,14.16276,0.02031009,0.96586,1.02851
139.675,14.18535,0.02031013,0.97168,1.02826
140.375,14.2079,0.02031155,0.9764,1.02801
141.075,14.2304,0.02067564,0.97659,1.02776
141.775,14.253,0.02160478,0.98402,1.0275
142.475,14.2754,0.02162832,0.9859,1.02725
143.175,14.29778,0.02162994,0.99038,1.02699
143.875,14.3202,0.02163001,0.99315,1.02674
144.575,14.34254,0.02163188,0.996,1.02648
145.275,14.3649,0.02167784,0.99935,1.02622
145.975,14.3872,0.02043266,1.00379,1.02596
146.675,14.4095,0.02031112,1.00767,1.0257
147.375,14.4318,0.02031043,1.01259,1.02544
148.075,14.454,0.02033069,1.01413,1.02518
148.775,14.47635,0.02092519,1.01703,1.02492
149.475,14.4986,0.02163178,1.02146,1.02466
150.175,14.52087,0.02162994,1.0264,1.0244
150.875,14.5431,0.02162999,1.02883,1.02413
151.575,14.5653,0.02163,1.0337,1.02387
152.275,14.58736,0.02163,1.03599,1.0236
152.975,14.60949,0.02162999,1.03756,1.02334
153.675,14.6317,0.02163043,1.04513,1.02307
154.375,14.6538,0.02164419,1.04718,1.0228
155.075,14.6759,0.02202514,1.04944,1.02253
155.775,14.69806,0.02227281,1.05203,1.02226
156.475,14.72013,0.02228012,1.05535,1.02199
157.175,14.74216,0.02230651,1.05904,1.02172
157.875,14.7643,0.02141239,1.06277,1.02145
158.575,14.7863,0.02128372,1.06746,1.02118
159.275,14.8083,0.02100389,1.07086,1.0209
159.975,14.83045,0.02095899,1.07199,1.02063
160.675,14.8525,0.02092415,1.07467,1.02036
161.375,14.87444,0.02168981,1.07744,1.02008
162.075,14.89639,0.02162367,1.08006,1.0198
162.775,14.9183,0.02162012,1.08262,1.01953
163.475,14.94024,0.02162,1.08644,1.01925
164.175,14.9621,0.0216198,1.08942,1.01897
164.875,14.9839,0.02161467,1.09332,1.01869
165.575,15.0057,0.02255946,1.09621,1.01841
166.275,15.0275,0.02181605,1.1007,1.01813
166.975,15.0494,0.02163253,1.10433,1.01785
167.675,15.07145,0.0216298,1.10764,1.01757
168.375,15.09356,0.02163358,1.10921,1.01728
169.075,15.11555,0.02169962,1.11238,1.017
169.775,15.13744,0.02093297,1.11328,1.01671
170.475,15.1592,0.02096927,1.11452,1.01643
171.175,15.181,0.02097005,1.11863,1.01614
171.875,15.20285,0.02097001,1.12544,1.01586
172.575,15.2247,0.02097,1.12494,1.01557
173.275,15.2466,0.02096997,1.12804,1.01528
173.975,15.26835,0.02096974,1.13159,1.01499
174.675,15.29021,0.02097066,1.13681,1.0147
175.375,15.31205,0.02108254,1.13889,1.01441
176.075,15.33397,0.02161078,1.14034,1.01412
176.775,15.35571,0.02162884,1.14346,1.01383
177.475,15.3774,0.02162997,1.14801,1.01353
178.175,15.39909,0.02163012,1.14973,1.01324
178.875,15.4208,0.02162802,1.15438,1.01294
179.575,15.4424,0.02152754,1.15677,1.01265
180.275,15.464,0.02025847,1.16076,1.01235
180.975,15.48567,0.02030683,1.16274,1.01206
181.675,15.5072,0.02030984,1.1666,1.01176
182.375,15.52883,0.02030992,1.16625,1.01146
183.075,15.55045,0.02031053,1.17152,1.01116
183.775,15.57197,0.02034997,1.17555,1.01086
184.475,15.59361,0.02099592,1.17671,1.01056
185.175,15.6151,0.02096527,1.17969,1.01026
185.875,15.6366,0.02087448,1.18435,1.00996
186.575,15.65805,0.02229279,1.18413,1.00966
187.275,15.6795,0.02292742,1.19052,1.00935
187.975,15.70099,0.02295,1.19056,1.00905
188.675,15.72243,0.0228471,1.1955,1.00875
189.375,15.7438,0.02157818,1.19567,1.00844
190.075,15.76525,0.02162666,1.19768,1.00813
190.775,15.7867,0.02163032,1.20223,1.00783
191.475,15.80821,0.02163527,1.20503,1.00752
192.175,15.82973,0.02194886,1.21042,1.00721
192.875,15.8512,0.02228605,1.2115,1.0069
193.575,15.87263,0.02228852,1.21128,1.00659
194.275,15.894,0.02224817,1.21612,1.00628
194.975,15.9153,0.02088262,1.21836,1.00597
195.675,15.93661,0.02096526,1.22038,1.00566
196.375,15.95796,0.02096992,1.22358,1.00535
197.075,15.97935,0.0209707,1.2274,1.00503
197.775,16.00071,0.02095673,1.22885,1.00472
198.475,16.0221,0.02204799,1.23142,1.00441
199.175,16.04346,0.02196764,1.23568,1.00409
199.875,16.06475,0.02196053,1.23526,1.00377
200.575,16.08607,0.02196003,1.23851,1.00346
201.275,16.10735,0.02196002,1.24153,1.00314
201.975,16.12866,0.02196016,1.24291,1.00282
202.675,16.1499,0.02196015,1.24428,1.0025
203.375,16.17107,0.02192081,1.24593,1.00218
204.075,16.19236,0.02059417,1.24943,1.00186
204.775,16.2136,0.02063763,1.25128,1.00154
205.475,16.2349,0.02066405,1.25473,1.00122
206.175,16.25625,0.0212456,1.25822,1.0009
206.875,16.27757,0.02195267,1.26271,1.00057
207.575,16.29888,0.02195009,1.26456,1.00025
208.275,16.3201,0.02194998,1.26548,0.99992
208.975,16.34145,0.02194631,1.26907,0.9996
209.675,16.36269,0.0218351,1.27266,0.99927
210.375,16.3839,0.0205878,1.27465,0.99895
211.075,16.40515,0.02063656,1.27803,0.99862
211.775,16.42628,0.0206398,1.27869,0.99829
212.475,16.44753,0.02063999,1.28239,0.99796
213.175,16.4688,0.02064,1.28667,0.99763
213.875,16.49,0.02064,1.28797,0.9973
214.575,16.5112,0.02064,1.2902,0.99697
215.275,16.5324,0.02064,1.29639,0.99664
215.975,16.55358,0.02064,1.29785,0.99631
216.675,16.5748,0.02064,1.30212,0.99597
217.375,16.59606,0.02063996,1.3048,0.99564
218.075,16.61729,0.02063952,1.3093,0.99531
218.775,16.63857,0.02063532,1.3123,0.99497
219.475,16.65983,0.02194017,1.31573,0.99464
220.175,16.68092,0.02195161,1.32078,0.9943
220.875,16.70214,0.02189139,1.32497,0.99396
221.575,16.72331,0.02162947,1.32789,0.99362
222.275,16.74445,0.0216206,1.33189,0.99329
222.975,16.7656,0.02161889,1.33783,0.99295
223.675,16.7867,0.02160417,1.34034,0.99261
224.375,16.80791,0.02111189,1.34748,0.99227
225.075,16.82904,0.02063703,1.35088,0.99193
225.775,16.85015,0.02064006,1.35554,0.99158
226.475,16.87142,0.02064502,1.35993,0.99124
227.175,16.89252,0.02078091,1.36458,0.9909
227.875,16.9136,0.0212862,1.37223,0.99055
228.575,16.93471,0.0213629,1.37712,0.99021
229.275,16.95584,0.02058193,1.38291,0.98986
229.975,16.97697,0.02063657,1.38661,0.98952
230.675,16.99814,0.02063636,1.3946,0.98917
231.375,17.0193,0.02035189,1.40318,0.98882
232.075,17.0404,0.01966383,1.41027,0.98848
232.775,17.0615,0.01966079,1.41679,0.98813
233.475,17.08267,0.01966008,1.4242,0.98778
234.175,17.1038,0.01966001,1.43279,0.98743
234.875,17.12496,0.01966001,1.4396,0.98708
235.575,17.14609,0.01966007,1.44931,0.98673
236.275,17.1672,0.01966096,1.46193,0.98638
236.975,17.1883,0.01967025,1.47106,0.98602
237.675,17.2094,0.02027047,1.48123,0.98567
238.375,17.23045,0.02096664,1.49293,0.98532
239.075,17.25155,0.02096934,1.50611,0.98496
239.775,17.27267,0.02096994,1.52077,0.98461
240.475,17.29383,0.02097003,1.53879,0.98425
241.175,17.31496,0.02097061,1.55442,0.98389
241.875,17.33611,0.02097917,1.57494,0.98354
242.575,17.3572,0.02121079,1.59531,0.98318
243.275,17.37825,0.0212869,1.6208,0.98282
243.975,17.39931,0.02128992,1.65042,0.98246
244.675,17.4204,0.02129,1.68033,0.9821
245.375,17.44145,0.02129,1.72105,0.98174
246.075,17.4626,0.02129,1.77508,0.98138
246.775,17.4837,0.02129,1.84591,0.98102
247.475,17.5049,0.02129,1.92637,0.98066
248.175,17.52608,0.02129,2.00821,0.98029
248.875,17.54716,0.02129,2.09777,0.97993
249.575,17.56824,0.02129,2.18592,0.97957
250.275,17.5893,0.02129,2.27624,0.9792
250.975,17.61038,0.02129,2.36606,0.97884
251.675,17.63159,0.02129,2.46364,0.97847
252.375,17.6528,0.02129,2.56401,0.9781
253.075,17.67418,0.02129,2.66683,0.97774
253.775,17.69545,0.02129,2.76969,0.97737
254.475,17.71668,0.02129,2.87748,0.977
255.175,17.7379,0.02129,2.98654,0.97663
255.875,17.75913,0.02129,3.09554,0.97626
256.575,17.78041,0.02129,3.19577,0.97589
257.275,17.80167,0.02129,3.28155,0.97552
257.975,17.82303,0.02128998,3.34084,0.97515
258.675,17.84423,0.0212896,3.36142,0.97477
259.375,17.86551,0.02128347,3.33565,0.9744
260.075,17.88674,0.02110015,3.25781,0.97403
260.775,17.90791,0.02062927,3.13404,0.97365
261.475,17.92916,0.02063972,2.9912,0.97328
262.175,17.95037,0.02064001,2.83856,0.9729
262.875,17.97157,0.02064,2.69167,0.97253
263.575,17.99266,0.02064,2.5567,0.97215
264.275,18.01369,0.02064,2.43136,0.97177
264.975,18.0347,0.02064,2.32111,0.97139
265.675,18.05568,0.02064,2.22139,0.97102
266.375,18.07667,0.02064,2.1333,0.97064
267.075,18.09759,0.02064,2.05532,0.97026
267.775,18.1186,0.02064,1.98867,0.96988
268.475,18.13952,0.02064,1.92822,0.96949
269.175,18.1604,0.02064,1.87544,0.96911
269.875,18.1814,0.02064,1.83198,0.96873
270.575,18.2023,0.02064004,1.78931,0.96835
271.275,18.22316,0.02064074,1.75533,0.96796
271.975,18.24408,0.02065304,1.72431,0.96758
272.675,18.265,0.0209319,1.69759,0.9672
273.375,18.28595,0.02163343,1.67385,0.96681
274.075,18.3069,0.02162075,1.65711,0.96642
274.775,18.32781,0.02162004,1.6382,0.96604
275.475,18.34874,0.02162,1.62324,0.96565
276.175,18.3697,0.02162,1.61437,0.96526
276.875,18.39055,0.02162,1.60106,0.96487
277.575,18.41151,0.02162,1.58937,0.96448
278.275,18.4324,0.02162002,1.58107,0.9641
278.975,18.45338,0.02162034,1.57584,0.96371
279.675,18.47429,0.02162587,1.56913,0.96331
280.375,18.49504,0.0217112,1.56622,0.96292
281.075,18.51598,0.02035338,1.55962,0.96253
281.775,18.53689,0.02031126,1.55424,0.96214
282.475,18.55779,0.02031006,1.55182,0.96175
283.175,18.579,0.02031,1.5487,0.96135
283.875,18.60005,0.02031,1.54551,0.96096
284.575,18.62105,0.02031,1.5435,0.96056
285.275,18.64219,0.02031,1.54161,0.96017
285.975,18.66318,0.02031,1.54019,0.95977
286.675,18.68419,0.02031008,1.53827,0.95937
287.375,18.70521,0.02031131,1.53764,0.95898
288.075,18.72622,0.02032906,1.53675,0.95858
288.775,18.74727,0.02081166,1.53526,0.95818
289.475,18.7683,0.02096391,1.5368,0.95778
290.175,18.78934,0.02096984,1.53508,0.95738
290.875,18.8104,0.02097001,1.53478,0.95698
291.575,18.83141,0.02097001,1.53501,0.95658
292.275,18.85241,0.02097013,1.5344,0.95618
292.975,18.8735,0.02097263,1.53522,0.95578
293.675,18.89454,0.02101607,1.53456,0.95537
294.375,18.9156,0.01987847,1.53365,0.95497
295.075,18.93666,0.01966914,1.53353,0.95457
295.775,18.95767,0.01966045,1.5331,0.95416
296.475,18.9787,0.01965999,1.53273,0.95376
297.175,18.99973,0.0196599,1.53362,0.95335
297.875,19.02083,0.01966523,1.53346,0.95295
298.575,19.0419,0.019302,1.53503,0.95254
299.275,19.06306,0.0193287,1.53468,0.95213
299.975,19.08419,0.01937586,1.53487,0.95173
300.675,19.10526,0.02072645,1.53551,0.95132
301.375,19.1264,0.02064498,1.53595,0.95091
302.075,19.14746,0.02064025,1.53744,0.9505
302.775,19.1686,0.02064001,1.53605,0.95009
303.475,19.18969,0.02064,1.53697,0.94968
304.175,19.2107,0.02064008,1.53845,0.94927
304.875,19.2318,0.02064304,1.53835,0.94886
305.575,19.25287,0.02071017,1.53907,0.94844
306.275,19.27395,0.0197767,1.54027,0.94803
306.975,19.2951,0.02064727,1.54061,0.94762
307.675,19.31618,0.02064044,1.54228,0.9472
308.375,19.3373,0.02064016,1.54175,0.94679
309.075,19.35839,0.0206414,1.54055,0.94638
309.775,19.37952,0.02093196,1.54201,0.94596
310.475,19.40063,0.02193847,1.54231,0.94554
311.175,19.4218,0.02181038,1.54164,0.94513
311.875,19.44289,0.02102134,1.54304,0.94471
312.575,19.46408,0.01985677,1.54592,0.94429
313.275,19.48526,0.01935105,1.54316,0.94387
313.975,19.50641,0.01933121,1.5469,0.94346
314.675,19.52759,0.01933006,1.54609,0.94304
315.375,19.54854,0.01933,1.54656,0.94262
316.075,19.5697,0.01933,1.54577,0.9422
316.775,19.59083,0.01932996,1.54657,0.94177
317.475,19.61199,0.01932857,1.54609,0.94135
318.175,19.6333,0.01929669,1.54689,0.94093
318.875,19.65452,0.02034104,1.54772,0.94051
319.575,19.67568,0.0206285,1.54878,0.94009
320.275,19.69688,0.020643,1.54992,0.93966
320.975,19.71806,0.02068123,1.55104,0.93924
321.675,19.73919,0.01935778,1.55072,0.93881
322.375,19.76032,0.01932936,1.55143,0.93839
323.075,19.7815,0.01932982,1.551,0.93796
323.775,19.8026,0.01932998,1.55247,0.93754
324.475,19.82384,0.01933,1.55335,0.93711
325.175,19.8451,0.01932999,1.55444,0.93668
325.875,19.8663,0.01932992,1.55511,0.93625
326.575,19.8875,0.01932894,1.55333,0.93582
327.275,19.90876,0.01932039,1.55581,0.9354
327.975,19.93003,0.0186683,1.5569,0.93497
328.675,19.9513,0.0183427,1.55731,0.93454
329.375,19.97259,0.01834016,1.55873,0.93411
330.075,19.99387,0.01833719,1.55648,0.93367
330.775,20.0151,0.01829159,1.55647,0.93324
331.475,20.03624,0.01947958,1.55887,0.93281
332.175,20.0575,0.01965297,1.55809,0.93238
332.875,20.0787,0.01965976,1.55943,0.93194
333.575,20.09994,0.01966,1.55861,0.93151
334.275,20.1212,0.01966,1.55946,0.93108
334.975,20.14242,0.01966,1.56004,0.93064
335.675,20.16372,0.01966,1.56206,0.93021
336.375,20.185,0.01966,1.56116,0.92977
337.075,20.20636,0.01966002,1.55991,0.92933
337.775,20.22776,0.01966027,1.55968,0.9289
338.475,20.2491,0.01966199,1.5613,0.92846
339.175,20.2704,0.01964441,1.56158,0.92802
339.875,20.29169,0.01865809,1.56311,0.92758
340.575,20.31295,0.01866887,1.56175,0.92715
341.275,20.3342,0.01866992,1.56403,0.92671
341.975,20.35547,0.01867003,1.56412,0.92627
342.675,20.37679,0.01867054,1.56476,0.92583
343.375,20.3981,0.0186759,1.56537,0.92539
344.075,20.4195,0.0186988,1.56436,0.92494
344.775,20.44086,0.01769233,1.56606,0.9245
345.475,20.46221,0.01768093,1.5654,0.92406
346.175,20.48353,0.01766168,1.564,0.92362
346.875,20.50486,0.01820332,1.56693,0.92317
347.575,20.52615,0.01833465,1.56737,0.92273
348.275,20.54749,0.01833975,1.56867,0.92229
348.975,20.56885,0.01833999,1.56895,0.92184
349.675,20.5902,0.01834,1.56874,0.9214
350.375,20.6116,0.01834,1.56883,0.92095
351.075,20.63297,0.01834,1.56971,0.9205
351.775,20.65436,0.01834,1.56943,0.92006
352.475,20.67576,0.01834,1.5719,0.91961
353.175,20.6971,0.01834,1.57129,0.91916
353.875,20.71859,0.01834,1.57184,0.91871
354.575,20.73996,0.01834,1.57222,0.91826
355.275,20.76134,0.01834,1.57413,0.91782
355.975,20.7828,0.01834,1.57308,0.91737
356.675,20.80411,0.01834,1.5736,0.91692
357.375,20.82542,0.01834,1.57617,0.91646
358.075,20.8467,0.01834,1.57636,0.91601
358.775,20.86799,0.01834,1.57708,0.91556
359.475,20.88937,0.01834001,1.57893,0.91511
360.175,20.9108,0.01833985,1.57858,0.91466
360.875,20.93229,0.01833371,1.57985,0.9142
361.575,20.9537,0.01816292,1.58153,0.91375
362.275,20.9752,0.01697247,1.58243,0.9133
362.975,20.9966,0.01701747,1.58239,0.91284
363.675,21.01805,0.01702004,1.58178,0.91239
364.375,21.03952,0.01702067,1.5852,0.91193
365.075,21.061,0.01699613,1.58602,0.91148
365.775,21.08255,0.01669864,1.58733,0.91102
366.475,21.10412,0.01668965,1.58792,0.91056
367.175,21.12574,0.01667255,1.58975,0.91011
367.875,21.1474,0.01619805,1.58863,0.90965
368.575,21.1689,0.01663894,1.59114,0.90919
369.275,21.1904,0.01669101,1.59329,0.90873
369.975,21.21184,0.01669026,1.59324,0.90827
370.675,21.23327,0.01669002,1.59388,0.90781
371.375,21.25469,0.01668999,1.59552,0.90735
372.075,21.27616,0.01668987,1.59653,0.90689
372.775,21.29766,0.01668838,1.59675,0.90643
373.475,21.31916,0.01667905,1.59908,0.90597
374.175,21.3407,0.01564556,1.60127,0.90551
374.875,21.36218,0.0152816,1.60286,0.90504
375.575,21.3837,0.01399823,1.60285,0.90458
376.275,21.4052,0.01404662,1.60499,0.90412
376.975,21.42679,0.01404979,1.60564,0.90365
377.675,21.4484,0.01404964,1.6076,0.90319
378.375,21.46996,0.01404985,1.61019,0.90273
379.075,21.49146,0.01543445,1.61155,0.90226
379.775,21.513,0.01540794,1.61598,0.90179
380.475,21.53442,0.0143603,1.61684,0.90133
381.175,21.55585,0.01407109,1.61768,0.90086
381.875,21.57732,0.01405884,1.62206,0.90039
382.575,21.59881,0.01382021,1.6262,0.89993
383.275,21.62036,0.01274522,1.62829,0.89946
383.975,21.6419,0.01274166,1.6322,0.89899
384.675,21.6635,0.01274504,1.63629,0.89852
385.375,21.6851,0.01187029,1.64048,0.89805
386.075,21.70669,0.01143552,1.6485,0.89758
386.775,21.7283,0.01121459,1.65146,0.89711
387.475,21.7499,0.01009808,1.65697,0.89664
388.175,21.7713,0.0101003,1.66308,0.89617
388.875,21.79281,0.01007315,1.66957,0.8957
389.575,21.8143,0.01115233,1.67647,0.89523
390.275,21.8359,0.01029012,1.68194,0.89476
390.975,21.85755,0.01010446,1.69001,0.89428
391.675,21.8793,0.009826719,1.69868,0.89381
392.375,21.90089,0.008797345,1.70516,0.89334
393.075,21.92247,0.008598435,1.71111,0.89286
393.775,21.94412,0.007468755,1.71797,0.89239
394.475,21.96566,0.00756671,1.72653,0.89191
395.175,21.98728,0.006169549,1.73473,0.89144
395.875,22.00893,0.006143125,1.74117,0.89096
396.575,22.03051,0.00544709,1.74701,0.89049
397.275,22.05227,0.0048416,1.75709,0.89001
397.975,22.07391,0.004025043,1.7632,0.88953
398.675,22.09556,0.003273312,1.77177,0.88906
399.375,22.11732,0.001735693,1.77899,0.88858
400.075,22.13893,0.0002598842,1.78868,0.8881
400.775,22.16069,-0.0009366221,1.79895,0.88762
401.475,22.1824,-0.001975356,1.80856,0.88714
402.175,22.20407,-0.00348129,1.8211,0.88666
402.875,22.2258,-0.00548768,1.83323,0.88618
403.575,22.2475,-0.007942378,1.84198,0.8857
404.275,22.2692,-0.01101377,1.85033,0.88522
404.975,22.2908,-0.01301416,1.8581,0.88474
405.675,22.3124,-0.0149878,1.86669,0.88426
406.375,22.33417,-0.01695014,1.87096,0.88378
407.075,22.35594,-0.01943913,1.87675,0.8833
407.775,22.37779,-0.02225851,1.88305,0.88281
408.475,22.39953,-0.02390297,1.88554,0.88233
409.175,22.42126,-0.02699747,1.88967,0.88185
409.875,22.44306,-0.02959059,1.89546,0.88136
410.575,22.46484,-0.03206784,1.89844,0.88088
411.275,22.48674,-0.03522487,1.90053,0.88039
411.975,22.50853,-0.03896928,1.90494,0.87991
412.675,22.53031,-0.04274698,1.90823,0.87942
413.375,22.55207,-0.04527131,1.91367,0.87894
414.075,22.57387,-0.04883139,1.91671,0.87845
414.775,22.59563,-0.05267216,1.92264,0.87796
415.475,22.61733,-0.05651085,1.92683,0.87748
416.175,22.6391,-0.05996648,1.93151,0.87699
416.875,22.66081,-0.06343915,1.93947,0.8765
417.575,22.6826,-0.06670849,1.94038,0.87601
418.275,22.70433,-0.06974124,1.94481,0.87552
418.975,22.72612,-0.073812,1.92837,0.87503
419.675,22.74791,-0.07785516,1.90631,0.87454
420.375,22.76969,-0.07978061,1.88961,0.87405
421.075,22.7915,-0.07992306,1.87383,0.87356
421.775,22.81325,-0.08113775,1.84982,0.87307
422.475,22.83503,-0.08211934,1.83429,0.87258
423.175,22.85679,-0.08312883,1.82236,0.87209
423.875,22.87856,-0.08334832,1.81211,0.8716
424.575,22.90035,-0.08509832,1.79487,0.87111
425.275,22.92215,-0.08718299,1.78906,0.87061
425.975,22.9439,-0.08944976,1.77592,0.87012
426.675,22.96571,-0.09167322,1.76719,0.86963
427.375,22.98745,-0.09465559,1.7622,0.86913
428.075,23.0091,-0.09808757,1.76284,0.86864
428.775,23.0308,-0.10117,1.7586,0.86814
429.475,23.05255,-0.10503,1.7559,0.86765
430.175,23.0743,-0.10953,1.75566,0.86715
430.875,23.09607,-0.11632,1.75501,0.86666
431.575,23.11788,-0.1241,1.75884,0.86616
432.275,23.13964,-0.1321,1.76717,0.86567
432.975,23.16144,-0.13919,1.77669,0.86517
433.675,23.18323,-0.14788,1.79657,0.86467
434.375,23.20504,-0.15712,1.80953,0.86417
435.075,23.22689,-0.16591,1.81939,0.86368
435.775,23.24866,-0.17632,1.83795,0.86318
436.475,23.27044,-0.18575,1.85157,0.86268
437.175,23.29222,-0.19947,1.86782,0.86218
437.875,23.314,-0.21224,1.89062,0.86168
438.575,23.33584,-0.22858,1.90836,0.86118
439.275,23.3577,-0.24395,1.9303,0.86068
439.975,23.37954,-0.26281,1.94514,0.86018
440.675,23.40142,-0.28276,1.95452,0.85968
441.375,23.4233,-0.30354,1.96483,0.85918
442.075,23.44513,-0.32665,1.9936,0.85868
442.775,23.46695,-0.34787,2.01184,0.85817
443.475,23.48878,-0.37474,2.01992,0.85767
444.175,23.51067,-0.39765,2.03831,0.85717
444.875,23.5326,-0.4265,2.05024,0.85667
445.575,23.5545,-0.45051,2.04883,0.85616
446.275,23.57639,-0.47901,2.05678,0.85566
446.975,23.5982,-0.5045,2.06879,0.85515
447.675,23.62,-0.53373,2.08395,0.85465
448.375,23.64181,-0.56434,2.11576,0.85415
449.075,23.66362,-0.59577,2.14704,0.85364
449.775,23.68544,-0.63171,2.17527,0.85313
450.475,23.70738,-0.66446,2.21309,0.85263
451.175,23.72931,-0.70573,2.26281,0.85212
451.875,23.7511,-0.74113,2.30228,0.85162
452.575,23.77298,-0.78691,2.3472,0.85111
453.275,23.79484,-0.82568,2.38745,0.8506
453.975,23.8167,-0.87329,2.43031,0.85009
454.675,23.8387,-0.91753,2.47109,0.84959
455.375,23.8607,-0.96531,2.51575,0.84908
456.075,23.88267,-1.01395,2.54614,0.84857
456.775,23.9046,-1.0613,2.57751,0.84806
457.475,23.92661,-1.11526,2.60365,0.84755
458.175,23.94859,-1.16199,2.62955,0.84704
458.875,23.97055,-1.21992,2.65205,0.84653
459.575,23.99249,-1.2677,2.67791,0.84602
460.275,24.0144,-1.31926,2.70048,0.84551
460.975,24.0364,-1.3822,2.72018,0.845
461.675,24.05835,-1.45273,2.7314,0.84449
462.375,24.08035,-1.51077,2.74482,0.84398
463.075,24.1023,-1.56882,2.74725,0.84346
463.775,24.1243,-1.62646,2.75211,0.84295
464.475,24.14634,-1.68385,2.75271,0.84244
465.175,24.16837,-1.74147,2.74462,0.84193
465.875,24.1904,-1.79987,2.73455,0.84141
466.575,24.21245,-1.85848,2.71586,0.8409
467.275,24.23441,-1.91716,2.69706,0.84039
467.975,24.2564,-1.97576,2.67294,0.83987
468.675,24.2785,-2.03352,2.63946,0.83936
469.375,24.3005,-2.08977,2.60623,0.83884
470.075,24.3226,-2.14477,2.56681,0.83833
470.775,24.3446,-2.20056,2.51931,0.83781
471.475,24.36654,-2.25395,2.47283,0.8373
472.175,24.38862,-2.30575,2.42189,0.83678
472.875,24.41057,-2.35125,2.36481,0.83626
473.575,24.43255,-2.39719,2.30837,0.83575
474.275,24.45451,-2.43563,2.24646,0.83523
474.975,24.47626,-2.48145,2.18673,0.83471
475.675,24.49822,-2.52042,2.11909,0.83419
476.375,24.5202,-2.56078,2.05396,0.83367
477.075,24.54222,-2.59784,1.98782,0.83316
477.775,24.5643,-2.63129,1.92083,0.83264
478.475,24.5864,-2.66654,1.85473,0.83212
479.175,24.60838,-2.69355,1.78555,0.8316
479.875,24.6304,-2.7253,1.72104,0.83108
480.575,24.65241,-2.74834,1.66004,0.83056
481.275,24.67436,-2.7733,1.59688,0.83004
481.975,24.6964,-2.79359,1.53497,0.82952
482.675,24.7184,-2.81596,1.48003,0.829
483.375,24.74043,-2.83516,1.42291,0.82848
484.075,24.76245,-2.8537,1.37018,0.82796
484.775,24.78445,-2.87235,1.32222,0.82743
485.475,24.80639,-2.88752,1.27359,0.82691
486.175,24.8284,-2.9039,1.22927,0.82639
486.875,24.85025,-2.91554,1.18623,0.82587
487.575,24.8721,-2.92953,1.14739,0.82534
488.275,24.89395,-2.94004,1.10763,0.82482
488.975,24.9158,-2.95232,1.07109,0.8243
489.675,24.93778,-2.96252,1.0351,0.82377
490.375,24.9598,-2.97264,1.00065,0.82325
491.075,24.98179,-2.9821,0.96666,0.82272
491.775,25.0039,-2.99201,0.93412,0.8222
492.475,25.0259,-3.00267,0.90098,0.82167
493.175,25.04795,-3.00989,0.87183,0.82115
493.875,25.07009,-3.01709,0.84237,0.82062
494.575,25.09217,-3.02246,0.81634,0.8201
495.275,25.11422,-3.02941,0.78811,0.81957
495.975,25.1363,-3.03539,0.76472,0.81904
496.675,25.1584,-3.04236,0.73994,0.81852
497.375,25.18044,-3.04872,0.7138,0.81799
498.075,25.20257,-3.05454,0.69407,0.81746
498.775,25.2246,-3.06086,0.67398,0.81694
499.475,25.2467,-3.06609,0.65234,0.81641
500.175,25.2687,-3.07216,0.63344,0.81588
500.875,25.29082,-3.07696,0.61696,0.81535
501.575,25.31298,-3.08182,0.60071,0.81482
502.275,25.33515,-3.08616,0.58371,0.81429
502.975,25.35739,-3.09395,0.57015,0.81376
503.675,25.37952,-3.101,0.55316,0.81323
504.375,25.40168,-3.10533,0.54025,0.8127
505.075,25.42389,-3.10818,0.52799,0.81217
505.775,25.44608,-3.11094,0.51589,0.81164
506.475,25.46828,-3.11344,0.50487,0.81111
507.175,25.49044,-3.11702,0.49345,0.81058
507.875,25.51259,-3.11966,0.48207,0.81005
508.575,25.53472,-3.12206,0.47406,0.80952
509.275,25.55692,-3.12429,0.46662,0.80899
509.975,25.57914,-3.12624,0.45825,0.80846
510.675,25.60135,-3.12876,0.45044,0.80792
511.375,25.62358,-3.1318,0.4446,0.80739
512.075,25.64588,-3.13555,0.43782,0.80686
512.775,25.66808,-3.13804,0.43055,0.80633
513.475,25.69039,-3.1396,0.42732,0.80579
514.175,25.71268,-3.1412,0.42161,0.80526
514.875,25.7349,-3.14234,0.41764,0.80472
515.575,25.75732,-3.14306,0.41845,0.80419
516.275,25.77957,-3.14448,0.41893,0.80366
516.975,25.8019,-3.14601,0.41494,0.80312
517.675,25.82423,-3.14818,0.40826,0.80259
518.375,25.84647,-3.14965,0.40364,0.80205
519.075,25.86882,-3.15044,0.40321,0.80152
519.775,25.89111,-3.15109,0.39849,0.80098
520.475,25.9134,-3.1528,0.39677,0.80044
521.175,25.93579,-3.15426,0.39365,0.79991
521.875,25.95824,-3.15411,0.38947,0.79937
522.575,25.98075,-3.1555,0.3862,0.79884
523.275,26.00321,-3.15569,0.38422,0.7983
523.975,26.02571,-3.1582,0.38224,0.79776
524.675,26.04816,-3.15942,0.38037,0.79722
525.375,26.07056,-3.15956,0.37925,0.79669
526.075,26.09295,-3.1598,0.37544,0.79615
526.775,26.11532,-3.16091,0.372,0.79561
527.475,26.1377,-3.16172,0.36996,0.79507
528.175,26.16007,-3.16242,0.3686,0.79453
528.875,26.18244,-3.164,0.36786,0.79399
529.575,26.20476,-3.16315,0.36672,0.79346
530.275,26.22713,-3.16406,0.36193,0.79292
530.975,26.24953,-3.16558,0.36152,0.79238
531.675,26.27195,-3.16616,0.36173,0.79184
532.375,26.29447,-3.16712,0.36119,0.7913
533.075,26.3169,-3.16787,0.35974,0.79076
533.775,26.33938,-3.16864,0.35607,0.79022
534.475,26.36192,-3.17022,0.35569,0.78967
535.175,26.3844,-3.17109,0.3555,0.78913
535.875,26.40693,-3.17254,0.35331,0.78859
536.575,26.4293,-3.17252,0.35079,0.78805
537.275,26.4518,-3.17287,0.34911,0.78751
537.975,26.47418,-3.17282,0.34981,0.78697
538.675,26.4966,-3.17346,0.34709,0.78643
539.375,26.5192,-3.17316,0.34595,0.78588
540.075,26.5417,-3.17329,0.34553,0.78534
540.775,26.56424,-3.1745,0.34613,0.7848
541.475,26.5867,-3.17461,0.34348,0.78425
542.175,26.6091,-3.17594,0.34367,0.78371
542.875,26.63157,-3.17672,0.34306,0.78317
543.575,26.6541,-3.17737,0.34168,0.78262
544.275,26.67659,-3.17873,0.34073,0.78208
544.975,26.69926,-3.17867,0.34112,0.78154
545.675,26.7218,-3.17978,0.33819,0.78099
546.375,26.74428,-3.17998,0.33851,0.78045
547.075,26.7667,-3.17998,0.33771,0.7799
547.775,26.78926,-3.17996,0.33795,0.77936
548.475,26.8116,-3.18134,0.33662,0.77881
549.175,26.8343,-3.18135,0.33761,0.77827
549.875,26.85687,-3.18267,0.33742,0.77772
550.575,26.8794,-3.18259,0.33698,0.77717
551.275,26.9021,-3.18394,0.33542,0.77663
551.975,26.92458,-3.18466,0.33482,0.77608
552.675,26.9471,-3.18459,0.3343,0.77554
553.375,26.96961,-3.18589,0.33224,0.77499
554.075,26.99212,-3.18592,0.33311,0.77444
554.775,27.01469,-3.18591,0.33203,0.77389
555.475,27.03732,-3.18591,0.33211,0.77335
556.175,27.0599,-3.18591,0.33267,0.7728
556.875,27.08245,-3.18596,0.33342,0.77225
557.575,27.105,-3.1866,0.33142,0.7717
558.275,27.12755,-3.18658,0.33231,0.77116
558.975,27.1502,-3.18723,0.33214,0.77061
559.675,27.1727,-3.18787,0.33104,0.77006
560.375,27.1953,-3.18788,0.33001,0.76951
561.075,27.2179,-3.18789,0.32995,0.76896
561.775,27.2405,-3.18858,0.32783,0.76841
562.475,27.26308,-3.18919,0.32896,0.76786
563.175,27.28575,-3.18921,0.32835,0.76731
563.875,27.3084,-3.18973,0.32874,0.76676
564.575,27.3309,-3.19051,0.32749,0.76621
565.275,27.35353,-3.19052,0.32776,0.76566
565.975,27.37616,-3.19047,0.32749,0.76511
566.675,27.3989,-3.1918,0.32443,0.76456
567.375,27.4216,-3.19184,0.3256,0.76401
568.075,27.44417,-3.19185,0.32421,0.76346
568.775,27.4668,-3.19223,0.32558,0.76291
569.475,27.48947,-3.19315,0.32281,0.76236
570.175,27.5122,-3.19315,0.32343,0.76181
570.875,27.5349,-3.19315,0.32098,0.76125
571.575,27.5576,-3.19314,0.32131,0.7607
572.275,27.58023,-3.19316,0.32178,0.76015
572.975,27.60295,-3.1943,0.32104,0.7596
573.675,27.6257,-3.19384,0.32127,0.75904
574.375,27.6484,-3.19382,0.31939,0.75849
575.075,27.67103,-3.19382,0.32011,0.75794
575.775,27.69375,-3.194,0.31823,0.75739
576.475,27.7164,-3.19518,0.31703,0.75683
577.175,27.73909,-3.19514,0.31933,0.75628
577.875,27.76182,-3.19514,0.31891,0.75573
578.575,27.78453,-3.19514,0.31738,0.75517
579.275,27.80728,-3.19514,0.3166,0.75462
579.975,27.82998,-3.19514,0.31709,0.75406
580.675,27.85274,-3.19514,0.31715,0.75351
581.375,27.8755,-3.19505,0.31605,0.75296
582.075,27.89828,-3.19654,0.31463,0.7524
582.775,27.92103,-3.19654,0.31483,0.75185
583.475,27.9438,-3.19777,0.31323,0.75129
584.175,27.96647,-3.19788,0.31349,0.75074
584.875,27.9891,-3.19788,0.3137,0.75018
585.575,28.01189,-3.19928,0.31354,0.74963
586.275,28.0346,-3.1992,0.31276,0.74907
586.975,28.0573,-3.19911,0.31431,0.74851
587.675,28.08012,-3.20052,0.31359,0.74796
588.375,28.10285,-3.20116,0.31374,0.7474
589.075,28.1256,-3.20191,0.31383,0.74685
589.775,28.14838,-3.20314,0.3132,0.74629
590.475,28.17104,-3.20326,0.31349,0.74573
591.175,28.1938,-3.20326,0.31345,0.74518
591.875,28.21653,-3.20326,0.31247,0.74462
592.575,28.2393,-3.20353,0.31172,0.74406
593.275,28.26217,-3.20468,0.31132,0.7435
593.975,28.28503,-3.20515,0.31263,0.74295
594.675,28.3078,-3.20601,0.31225,0.74239
595.375,28.3307,-3.206,0.3124,0.74183
596.075,28.35357,-3.20695,0.31239,0.74127
596.775,28.37639,-3.2073,0.31306,0.74072
597.475,28.3992,-3.20728,0.31292,0.74016
598.175,28.42202,-3.20866,0.31138,0.7396
598.875,28.4448,-3.20909,0.30969,0.73904
599.575,28.46772,-3.20999,0.30923,0.73848
600.275,28.49055,-3.21099,0.31092,0.73792
600.975,28.51343,-3.21128,0.30937,0.73736
601.675,28.5362,-3.21128,0.30993,0.73681
602.375,28.559,-3.21153,0.30938,0.73625
603.075,28.58186,-3.21257,0.3093,0.73569
603.775,28.6047,-3.21254,0.30952,0.73513
604.475,28.6276,-3.21382,0.30729,0.73457
605.175,28.65052,-3.21462,0.30772,0.73401
605.875,28.67335,-3.21546,0.30859,0.73345
606.575,28.6961,-3.21684,0.30964,0.73289
607.275,28.71903,-3.21678,0.30745,0.73233
607.975,28.7418,-3.21726,0.3069,0.73177
608.675,28.76453,-3.21736,0.30908,0.73121
609.375,28.7875,-3.21707,0.30815,0.73065
610.075,28.81048,-3.21841,0.30628,0.73009
610.775,28.8336,-3.21842,0.30803,0.72952
611.475,28.85662,-3.21879,0.30771,0.72896
612.175,28.87952,-3.21973,0.30978,0.7284
612.875,28.9024,-3.21973,0.31069,0.72784
613.575,28.92527,-3.21968,0.31129,0.72728
614.275,28.9481,-3.22097,0.30974,0.72672
614.975,28.97093,-3.22104,0.31148,0.72616
615.675,28.99372,-3.22175,0.31304,0.72559
616.375,29.0165,-3.22234,0.31448,0.72503
617.075,29.03949,-3.22236,0.31572,0.72447
617.775,29.0624,-3.22386,0.31538,0.72391
618.475,29.08537,-3.22506,0.31537,0.72334
619.175,29.1084,-3.22581,0.31513,0.72278
619.875,29.13138,-3.2257,0.31675,0.72222
620.575,29.1544,-3.22661,0.31664,0.72166
621.275,29.17742,-3.22669,0.31862,0.72109
621.975,29.20032,-3.22785,0.31764,0.72053
622.675,29.2233,-3.22785,0.31713,0.71997
623.375,29.2462,-3.22788,0.31844,0.7194
624.075,29.2692,-3.22877,0.31769,0.71884
624.775,29.2923,-3.22917,0.32088,0.71828
625.475,29.3153,-3.22946,0.32113,0.71771
626.175,29.33835,-3.23051,0.32139,0.71715
626.875,29.36137,-3.23048,0.31895,0.71659
627.575,29.38435,-3.23149,0.32099,0.71602
628.275,29.4074,-3.23179,0.32242,0.71546
628.975,29.43044,-3.2318,0.32493,0.71489
629.675,29.45348,-3.23209,0.3242,0.71433
630.375,29.4765,-3.23312,0.32417,0.71377
631.075,29.4996,-3.23311,0.32339,0.7132
631.775,29.52259,-3.23445,0.32242,0.71264
632.475,29.5457,-3.23339,0.32469,0.71207
633.175,29.5687,-3.23339,0.3205,0.71151
633.875,29.59168,-3.23478,0.32166,0.71094
634.575,29.61461,-3.23477,0.32112,0.71038
635.275,29.6376,-3.23476,0.32325,0.70981
635.975,29.6607,-3.23481,0.32045,0.70925
636.675,29.6837,-3.23608,0.32102,0.70868
637.375,29.70685,-3.23603,0.3232,0.70811
638.075,29.7299,-3.2374,0.32616,0.70755
638.775,29.753,-3.23741,0.32634,0.70698
639.475,29.77597,-3.23753,0.32556,0.70642
640.175,29.79901,-3.2384,0.32894,0.70585
640.875,29.82195,-3.23891,0.32574,0.70529
641.575,29.8449,-3.23969,0.32773,0.70472
642.275,29.868,-3.2397,0.3293,0.70415
642.975,29.891,-3.23977,0.32742,0.70359
643.675,29.91408,-3.24103,0.32694,0.70302
644.375,29.9371,-3.24102,0.32646,0.70245
645.075,29.9602,-3.24102,0.32662,0.70189
645.775,29.9833,-3.24102,0.32742,0.70132
646.475,30.00625,-3.24092,0.32507,0.70075
647.175,30.02927,-3.24234,0.32611,0.70019
647.875,30.05227,-3.24232,0.32321,0.69962
648.575,30.07532,-3.24342,0.32689,0.69905
649.275,30.0984,-3.24369,0.32682,0.69849
649.975,30.12148,-3.24231,0.32719,0.69792
650.675,30.14453,-3.24234,0.32433,0.69735
651.375,30.1676,-3.24234,0.32395,0.69678
652.075,30.19067,-3.24234,0.32495,0.69622
652.775,30.21381,-3.24306,0.32541,0.69565
653.475,30.23695,-3.24363,0.32479,0.69508
654.175,30.26005,-3.24365,0.32329,0.69451
654.875,30.2831,-3.24506,0.32352,0.69394
655.575,30.30615,-3.24498,0.32249,0.69338
656.275,30.3292,-3.24497,0.3205,0.69281
656.975,30.3523,-3.24499,0.32305,0.69224
657.675,30.37538,-3.24638,0.31909,0.69167
658.375,30.39852,-3.24629,0.32087,0.6911
659.075,30.4216,-3.2463,0.31781,0.69054
659.775,30.4447,-3.24672,0.31831,0.68997
660.475,30.46772,-3.24762,0.31797,0.6894
661.175,30.4907,-3.24941,0.31623,0.68883
661.875,30.51381,-3.2506,0.31539,0.68826
662.575,30.53683,-3.25176,0.3136,0.68769
663.275,30.55994,-3.25255,0.31271,0.68712
663.975,30.583,-3.25395,0.31284,0.68656
664.675,30.606,-3.25387,0.31353,0.68599
665.375,30.629,-3.25386,0.31286,0.68542
666.075,30.652,-3.25386,0.33458,0.68485
666.775,30.67506,-3.25386,0.33836,0.68428
667.475,30.6982,-3.25385,0.33135,0.68371
668.175,30.72127,-3.25489,0.32366,0.68314
668.875,30.7443,-3.25485,0.31778,0.68257
669.575,30.7674,-3.25486,0.31559,0.682
670.275,30.7905,-3.25351,0.30907,0.68143
670.975,30.8136,-3.25353,0.30929,0.68086
671.675,30.8367,-3.25354,0.30905,0.68029
672.375,30.85975,-3.25354,0.30834,0.67972
673.075,30.8828,-3.25354,0.30813,0.67915
673.775,30.90584,-3.25355,0.306,0.67858
674.475,30.92887,-3.25384,0.30216,0.67801
675.175,30.952,-3.25387,0.30183,0.67744
675.875,30.975,-3.25387,0.30166,0.67687
676.575,30.9981,-3.25387,0.30091,0.6763
677.275,31.02116,-3.25387,0.29753,0.67573
677.975,31.04425,-3.25386,0.29953,0.67516
678.675,31.06734,-3.25378,0.29861,0.67459
679.375,31.09048,-3.25519,0.29774,0.67402
680.075,31.1135,-3.25519,0.29764,0.67345
680.775,31.1366,-3.25519,0.29198,0.67288
681.475,31.15965,-3.25549,0.29372,0.67231
682.175,31.18272,-3.25649,0.29494,0.67174
682.875,31.2058,-3.25651,0.29485,0.67117
683.575,31.22883,-3.25651,0.29158,0.6706
684.275,31.25188,-3.25651,0.29145,0.67003
684.975,31.27494,-3.25651,0.29182,0.66946
685.675,31.29798,-3.25651,0.29,0.66889
686.375,31.32108,-3.25655,0.28574,0.66832
687.075,31.3441,-3.25787,0.2863,0.66775
687.775,31.3673,-3.25782,0.28673,0.66717
688.475,31.39041,-3.25782,0.28502,0.6666
689.175,31.4135,-3.25782,0.28324,0.66603
689.875,31.43664,-3.25782,0.28408,0.66546
690.575,31.45975,-3.25782,0.27967,0.66489
691.275,31.48268,-3.25782,0.27748,0.66432
691.975,31.5057,-3.25785,0.27514,0.66375
692.675,31.5288,-3.2587,0.28085,0.66318
693.375,31.5519,-3.25914,0.2826,0.66261
694.075,31.5751,-3.25907,0.28195,0.66203
694.775,31.5982,-3.25779,0.28213,0.66146
695.475,31.6213,-3.25782,0.2769,0.66089
696.175,31.64433,-3.25782,0.27714,0.66032
696.875,31.6673,-3.25782,0.27629,0.65975
697.575,31.69035,-3.25783,0.27571,0.65918
698.275,31.7134,-3.25919,0.27069,0.65861
698.975,31.73653,-3.25907,0.269,0.65803
699.675,31.7596,-3.2598,0.26608,0.65746
700.375,31.7827,-3.25977,0.26767,0.65689
701.075,31.80586,-3.26091,0.26494,0.65632
701.775,31.8288,-3.26112,0.26198,0.65575
702.475,31.85189,-3.26116,0.26041,0.65518
703.175,31.875,-3.25986,0.25805,0.6546
703.875,31.89808,-3.2598,0.25704,0.65403
704.575,31.9213,-3.2598,0.25481,0.65346
705.275,31.9444,-3.2598,0.25319,0.65289
705.975,31.9675,-3.2598,0.25071,0.65232
706.675,31.9906,-3.2598,0.24947,0.65175
707.375,32.01365,-3.26051,0.24567,0.65117
708.075,32.03675,-3.26149,0.24547,0.6506
708.775,32.05986,-3.26243,0.24087,0.65003
709.475,32.08294,-3.26243,0.23738,0.64946
710.175,32.10606,-3.26243,0.23588,0.64889
710.875,32.1292,-3.26243,0.23642,0.64831
711.575,32.15229,-3.26243,0.23527,0.64774
712.275,32.17542,-3.26243,0.22842,0.64717
712.975,32.19832,-3.26242,0.22523,0.6466
713.675,32.2213,-3.26252,0.22713,0.64603
714.375,32.24447,-3.26376,0.22601,0.64545
715.075,32.26757,-3.26373,0.22441,0.64488
715.775,32.29085,-3.26269,0.21997,0.64431
716.475,32.31397,-3.26243,0.21743,0.64374
717.175,32.33701,-3.26243,0.21498,0.64316
717.875,32.36014,-3.26243,0.21152,0.64259
718.575,32.38329,-3.26258,0.21047,0.64202
719.275,32.4064,-3.26379,0.20406,0.64145
719.975,32.42949,-3.26375,0.2033,0.64088
720.675,32.45254,-3.26375,0.20015,0.6403
721.375,32.4756,-3.26373,0.19931,0.63973
722.075,32.49866,-3.26316,0.19691,0.63916
722.775,32.5218,-3.26309,0.19102,0.63859
723.475,32.54487,-3.26309,0.187,0.63802
724.175,32.56796,-3.26309,0.18745,0.63744
724.875,32.59109,-3.26309,0.183,0.63687
725.575,32.61425,-3.26309,0.18297,0.6363
726.275,32.6374,-3.26325,0.17881,0.63573
726.975,32.66053,-3.26439,0.17673,0.63515
727.675,32.68363,-3.2644,0.17531,0.63458
728.375,32.70677,-3.2644,0.17126,0.63401
729.075,32.72997,-3.2644,0.17064,0.63344
729.775,32.7531,-3.26438,0.17798,0.63287
730.475,32.77626,-3.26497,0.1729,0.63229
731.175,32.79935,-3.26506,0.16976,0.63172
731.875,32.82245,-3.26506,0.1654,0.63115
732.575,32.8456,-3.26507,0.16032,0.63058
733.275,32.86871,-3.26534,0.15736,0.63
733.975,32.89188,-3.26571,0.1556,0.62943
734.675,32.91496,-3.26565,0.15034,0.62886
735.375,32.9381,-3.26641,0.14739,0.62829
736.075,32.9613,-3.26638,0.14439,0.62772
736.775,32.98442,-3.26638,0.13837,0.62714
737.475,33.0075,-3.26639,0.13424,0.62657
738.175,33.0306,-3.26709,0.12974,0.626
738.875,33.0538,-3.26769,0.12826,0.62543
739.575,33.07693,-3.2677,0.12283,0.62485
740.275,33.10025,-3.2677,0.12245,0.62428
740.975,33.12343,-3.26798,0.11845,0.62371
741.675,33.1466,-3.26864,0.11385,0.62314
742.375,33.16982,-3.2677,0.10497,0.62257
743.075,33.19299,-3.26764,0.10189,0.62199
743.775,33.21618,-3.26905,0.09696705,0.62142
744.475,33.2393,-3.26913,0.09078388,0.62085
745.175,33.26251,-3.26913,0.08731014,0.62028
745.875,33.2857,-3.26913,0.08382427,0.61971
746.575,33.30888,-3.26913,0.07951881,0.61913
747.275,33.33207,-3.26913,0.07858056,0.61856
747.975,33.35524,-3.26913,0.0738392,0.61799
748.675,33.3784,-3.26913,0.06800326,0.61742
749.375,33.40159,-3.26913,0.06741891,0.61685
750.075,33.42475,-3.26913,0.05944986,0.61627
750.775,33.44798,-3.26911,0.05606859,0.6157
751.475,33.47121,-3.2698,0.04917332,0.61513
752.175,33.49439,-3.26978,0.04660521,0.61456
752.875,33.51761,-3.26926,0.04415478,0.61399
753.575,33.54088,-3.26913,0.03908731,0.61342
754.275,33.5641,-3.26913,0.03506873,0.61284
754.975,33.58736,-3.26914,0.02897154,0.61227
755.675,33.6106,-3.26984,0.02336327,0.6117
756.375,33.63378,-3.27043,0.0186695,0.61113
757.075,33.657,-3.27044,0.01446449,0.61056
757.775,33.68025,-3.27044,0.01026168,0.60999
758.475,33.7035,-3.27045,0.00326957,0.60941
759.175,33.7267,-3.27055,-0.0004897061,0.60884
759.875,33.75,-3.26945,0.0003104182,0.60827
760.575,33.77325,-3.2696,-0.003312382,0.6077
761.275,33.7965,-3.27081,-0.009304485,0.60713
761.975,33.81973,-3.27077,-0.01527859,0.60656
762.675,33.84292,-3.27077,-0.02041415,0.60599
763.375,33.86618,-3.27077,-0.02798331,0.60541
764.075,33.88937,-3.27077,-0.03387718,0.60484
764.775,33.91265,-3.27098,-0.03542354,0.60427
765.475,33.93594,-3.2721,-0.03718239,0.6037
766.175,33.9592,-3.27209,-0.04133039,0.60313
766.875,33.98252,-3.27209,-0.04719909,0.60256
767.575,34.0058,-3.27209,-0.05288465,0.60199
768.275,34.02908,-3.27209,-0.06078982,0.60142
768.975,34.05238,-3.27209,-0.06665999,0.60085
769.675,34.0757,-3.2719,-0.06766191,0.60028
770.375,34.09902,-3.27176,-0.07057638,0.5997
771.075,34.12234,-3.27176,-0.07136448,0.59913
771.775,34.14565,-3.27177,-0.07299866,0.59856
772.475,34.16892,-3.27051,-0.07925591,0.59799
773.175,34.1922,-3.27051,-0.08242127,0.59742
773.875,34.21539,-3.272,-0.08629183,0.59685
774.575,34.23868,-3.27344,-0.09041333,0.59628
775.275,34.26194,-3.27408,-0.09591223,0.59571
775.975,34.28526,-3.27361,-0.09781899,0.59514
776.675,34.3086,-3.2749,-0.10248,0.59457
777.375,34.33189,-3.27496,-0.10738,0.594
778.075,34.35521,-3.2752,-0.11641,0.59343
778.775,34.37855,-3.27669,-0.12097,0.59286
779.475,34.4019,-3.27836,-0.12926,0.59229
780.175,34.4253,-3.27979,-0.13284,0.59172
780.875,34.4487,-3.27978,-0.13865,0.59115
781.575,34.47203,-3.27978,-0.14288,0.59058
782.275,34.49535,-3.27978,-0.14975,0.59001
782.975,34.51872,-3.27978,-0.15081,0.58944
783.675,34.54204,-3.27974,-0.15539,0.58887
784.375,34.56541,-3.28105,-0.15991,0.5883
785.075,34.58879,-3.2811,-0.16359,0.58773
785.775,34.6121,-3.2811,-0.17199,0.58716
786.475,34.63552,-3.2811,-0.17374,0.58659
787.175,34.65891,-3.2811,-0.17806,0.58602
787.875,34.68226,-3.2811,-0.18477,0.58545
788.575,34.70565,-3.2811,-0.18921,0.58488
789.275,34.7291,-3.28239,-0.19165,0.58431
789.975,34.75242,-3.28109,-0.19462,0.58374
790.675,34.7758,-3.28109,-0.1996,0.58317
791.375,34.7991,-3.28109,-0.20268,0.5826
792.075,34.82248,-3.28109,-0.2064,0.58203
792.775,34.84582,-3.28109,-0.21141,0.58146
793.475,34.86918,-3.28109,-0.21744,0.5809
794.175,34.89261,-3.28109,-0.22024,0.58033
794.875,34.916,-3.28109,-0.22745,0.57976
795.575,34.93945,-3.28109,-0.22843,0.57919
796.275,34.9629,-3.28109,-0.23002,0.57862
796.975,34.98636,-3.28109,-0.23278,0.57805
797.375,34.9997,-3.28109,-0.23494,0.57773