File: 01_Data/Triexta_Carpet_High_Pile/MCC/Triexta_Carpet_High_Pile_MCC_30K_min_211117_R3.txt
Sample ID:	C:\MCC\MCC Cal\Test\Triexta_Carpet_High_Pile_MCC_30K_min_211117_R3.txt
Sample Weight (mg):	4.38
Heating Rate (C/s):	0.5
Combustor Temp (C):	900
N2 Flow Rate (cc/min):	80
O2 Flow Rate (cc/min):	20
Calibration File:	C:\MCC\MCC Cal\Coeff1 JN10440_30_210304.txt.txt
T Correction Coefficients:	0	1.024463	0
Time Shift (s):	14
*
Time (s)	Temperature (C)	N2 flow rate (cc/min)	O2 flow rate (cc/min)	Flow Rate (cc/min)	Oxygen (%)	HRR (W/g)	Heating rate (C/s)
0.000	107.133	80.002	19.996	102.986	20.054	-0.190	0.006
2.000	107.152	80.002	19.997	103.005	20.054	-0.174	-0.009
4.000	107.136	80.001	19.996	102.996	20.053	-0.145	-0.011
6.000	107.167	79.999	19.996	103.008	20.052	-0.036	0.029
8.000	107.173	80.003	19.995	103.004	20.055	-0.260	-0.005
10.000	107.154	80.003	19.995	103.012	20.057	-0.408	0.022
12.000	107.171	80.003	19.995	103.017	20.058	-0.466	0.014
14.000	107.144	80.001	19.995	103.057	20.053	-0.113	-0.026
16.000	107.177	79.998	19.995	103.069	20.046	0.394	-0.011
18.000	107.205	80.000	19.996	103.095	20.041	0.807	0.025
20.000	107.313	80.004	19.996	103.104	20.039	0.887	0.029
22.000	107.383	80.002	19.996	103.103	20.039	0.906	0.049
24.000	107.431	80.000	19.995	103.105	20.034	1.269	0.032
26.001	107.575	80.001	19.995	103.126	20.030	1.606	0.064
28.000	107.733	80.007	19.994	103.101	20.027	1.822	0.069
30.000	107.852	80.002	19.996	103.211	20.024	2.013	0.069
32.001	108.097	80.003	19.996	103.216	20.020	2.291	0.097
34.000	108.260	80.004	19.995	103.184	20.019	2.365	0.110
36.000	108.516	80.001	19.995	103.189	20.023	2.079	0.121
38.000	108.781	80.001	19.997	103.186	20.025	1.974	0.129
40.000	109.078	80.000	19.995	103.182	20.021	2.259	0.145
42.000	109.420	80.005	19.994	103.193	20.020	2.297	0.166
44.000	109.731	80.014	19.993	103.215	20.022	2.180	0.157
46.000	110.080	79.998	19.996	103.225	20.019	2.407	0.173
48.000	110.424	80.007	19.997	103.220	20.013	2.795	0.183
50.000	110.868	80.005	19.995	103.222	20.008	3.202	0.211
52.000	111.274	80.004	19.995	103.224	20.014	2.724	0.217
54.001	111.759	80.003	19.996	103.226	20.012	2.894	0.250
56.000	112.189	80.001	19.995	103.236	20.010	3.087	0.243
58.000	112.641	80.000	19.995	103.225	20.011	3.006	0.214
60.000	113.197	80.010	19.995	103.229	20.011	3.010	0.287
62.000	113.666	79.996	19.997	103.241	20.014	2.746	0.243
64.000	114.163	80.003	19.994	103.223	20.006	3.373	0.252
66.000	114.754	80.003	19.995	103.230	20.009	3.104	0.295
68.001	115.291	80.002	19.994	103.238	20.007	3.278	0.262
70.000	115.859	80.002	19.995	103.236	20.007	3.241	0.266
72.000	116.410	80.002	19.995	103.242	20.012	2.921	0.259
74.000	117.015	80.007	19.993	103.230	20.011	2.951	0.303
76.001	117.632	80.003	19.997	103.263	20.012	2.931	0.334
78.001	118.216	80.001	19.997	103.263	20.007	3.273	0.301
80.000	118.879	80.001	19.995	103.260	20.009	3.120	0.330
82.000	119.523	80.001	19.996	103.264	20.007	3.261	0.331
84.000	120.168	80.002	19.996	103.262	20.005	3.392	0.325
86.001	120.888	80.007	19.996	103.258	20.004	3.491	0.358
88.000	121.600	80.002	19.996	103.263	20.003	3.537	0.360
90.000	122.327	80.001	19.996	103.268	20.001	3.746	0.402
92.000	123.035	79.999	19.994	103.272	20.000	3.813	0.370
94.000	123.835	80.003	19.995	103.264	20.000	3.769	0.408
96.000	124.555	80.001	19.995	103.283	20.007	3.301	0.378
98.000	125.323	80.003	19.995	103.273	20.002	3.606	0.371
100.000	126.082	80.004	19.995	103.276	20.004	3.501	0.390
102.000	126.921	80.004	19.996	103.280	20.001	3.741	0.438
104.000	127.725	80.005	19.995	103.274	19.999	3.864	0.400
106.000	128.537	79.999	19.996	103.267	20.003	3.543	0.413
108.000	129.341	80.003	19.995	103.271	20.002	3.648	0.401
110.000	130.147	80.007	19.994	103.263	19.998	3.963	0.414
112.000	131.003	80.002	19.994	103.260	20.002	3.618	0.440
114.000	131.855	80.000	19.995	103.266	20.004	3.519	0.433
116.000	132.698	80.000	19.994	103.269	20.000	3.806	0.419
118.000	133.569	79.999	19.995	103.271	20.003	3.582	0.436
120.000	134.452	80.002	19.995	103.268	19.999	3.884	0.427
122.000	135.288	80.001	19.994	103.261	20.001	3.725	0.434
124.000	136.170	80.002	19.996	103.263	19.997	4.015	0.453
126.001	137.063	80.003	19.994	103.264	20.000	3.763	0.482
128.000	137.936	80.002	19.995	103.264	19.998	3.904	0.443
130.000	138.847	80.003	19.996	103.263	19.997	3.985	0.462
132.000	139.723	80.004	19.994	103.262	19.997	4.043	0.461
134.000	140.592	80.002	19.994	103.266	19.999	3.859	0.452
136.000	141.484	80.003	19.995	103.262	19.997	4.037	0.409
138.000	142.399	80.003	19.995	103.267	19.995	4.190	0.417
140.001	143.355	80.001	19.994	103.268	19.996	4.076	0.478
142.000	144.264	80.001	19.996	103.295	19.998	3.957	0.486
144.000	145.194	80.003	19.996	103.410	20.001	3.707	0.465
146.000	146.137	80.003	19.995	103.334	20.004	3.495	0.501
148.000	147.008	80.005	19.995	103.272	20.000	3.800	0.490
150.000	147.995	80.001	19.997	103.271	19.997	4.002	0.451
152.000	148.895	80.002	19.994	103.258	19.999	3.842	0.461
154.000	149.838	80.006	19.994	103.256	20.001	3.723	0.479
156.000	150.806	80.005	19.994	103.258	19.998	3.939	0.478
158.000	151.723	80.005	19.996	103.254	19.995	4.138	0.481
160.000	152.690	80.004	19.995	103.257	19.994	4.211	0.463
162.000	153.624	80.005	19.995	103.255	20.000	3.794	0.468
164.000	154.565	80.001	19.997	103.258	20.000	3.798	0.437
166.000	155.516	79.999	19.996	103.257	19.998	3.899	0.491
168.000	156.441	80.002	19.997	103.258	19.999	3.843	0.449
170.000	157.412	80.004	19.995	103.267	19.994	4.229	0.500
172.000	158.356	79.997	19.997	103.260	19.991	4.469	0.480
174.000	159.313	80.002	19.997	103.259	19.995	4.175	0.521
176.000	160.282	79.999	19.997	103.224	19.994	4.251	0.490
178.000	161.255	80.000	19.996	103.210	19.996	4.096	0.459
180.000	162.232	80.000	19.996	103.248	19.996	4.108	0.484
182.001	163.236	79.999	19.996	103.259	19.994	4.209	0.504
184.000	164.231	80.001	19.995	103.261	19.994	4.215	0.487
186.000	165.208	80.001	19.996	103.264	19.994	4.237	0.499
188.000	166.200	80.002	19.996	103.261	19.991	4.449	0.506
190.000	167.204	80.003	19.997	103.260	19.995	4.120	0.493
192.000	168.192	80.000	19.996	103.261	19.993	4.301	0.516
194.000	169.198	80.002	19.994	103.261	19.997	4.031	0.489
196.000	170.200	79.999	19.997	103.262	19.993	4.299	0.491
198.000	171.221	80.000	19.994	103.262	19.993	4.310	0.511
200.000	172.202	79.999	19.995	103.262	19.996	4.094	0.453
202.000	173.214	80.002	19.995	103.264	19.997	4.030	0.500
204.000	174.220	80.002	19.995	103.264	19.997	4.018	0.493
206.000	175.266	80.001	19.994	103.264	19.995	4.191	0.520
208.000	176.272	80.002	19.995	103.262	19.997	4.032	0.536
210.000	177.299	80.004	19.995	103.261	19.995	4.191	0.494
212.000	178.302	80.002	19.995	103.256	19.995	4.167	0.508
214.000	179.339	80.002	19.996	103.255	19.997	3.986	0.534
216.000	180.305	80.002	19.995	103.255	20.001	3.684	0.491
218.000	181.326	80.003	19.995	103.257	20.000	3.756	0.504
220.000	182.349	80.004	19.995	103.253	19.997	4.027	0.520
222.000	183.336	80.003	19.997	103.255	19.997	4.015	0.489
224.000	184.312	80.003	19.997	103.250	19.999	3.826	0.473
226.000	185.343	80.003	19.996	103.231	19.999	3.886	0.483
228.000	186.418	80.004	19.994	103.238	19.996	4.046	0.529
230.000	187.415	80.003	19.995	103.223	19.999	3.825	0.508
232.000	188.396	80.003	19.994	103.209	19.996	4.065	0.473
234.000	189.430	80.004	19.994	103.217	20.001	3.749	0.519
236.000	190.414	80.004	19.995	103.218	19.994	4.249	0.525
238.000	191.392	80.005	19.995	103.208	20.002	3.627	0.482
240.000	192.374	80.002	19.995	103.217	20.001	3.682	0.492
242.000	193.385	80.003	19.994	103.218	20.000	3.768	0.507
244.000	194.338	80.002	19.995	103.220	20.002	3.643	0.479
246.000	195.333	80.002	19.994	103.218	20.002	3.657	0.454
248.000	196.299	80.000	19.995	103.214	20.000	3.789	0.491
250.000	197.290	80.000	19.995	103.185	20.002	3.662	0.488
252.000	198.246	80.001	19.995	103.183	19.999	3.845	0.518
254.000	199.237	80.004	19.995	103.181	20.000	3.781	0.470
256.000	200.229	80.001	19.997	103.182	19.998	3.922	0.492
258.000	201.205	80.002	19.997	103.213	19.999	3.878	0.514
260.000	202.190	80.001	19.995	103.223	19.999	3.837	0.478
262.000	203.140	80.002	19.996	103.221	19.998	3.938	0.464
264.000	204.119	80.000	19.996	103.221	20.001	3.700	0.475
266.000	205.076	80.000	19.995	103.223	20.002	3.618	0.448
268.000	206.047	80.001	19.996	103.224	20.003	3.575	0.445
270.000	207.044	80.001	19.996	103.223	20.003	3.589	0.477
272.000	208.012	79.999	19.996	103.222	20.001	3.690	0.492
274.000	209.004	80.000	19.995	103.220	20.001	3.713	0.508
276.000	209.980	80.001	19.996	103.220	20.004	3.519	0.487
278.000	210.964	80.002	19.995	103.220	20.003	3.602	0.461
280.000	211.936	80.001	19.996	103.221	20.002	3.632	0.482
282.000	212.955	80.000	19.994	103.220	20.001	3.703	0.498
284.000	213.871	80.001	19.995	103.218	20.000	3.771	0.469
286.000	214.901	80.003	19.995	103.219	20.003	3.537	0.492
288.000	215.884	80.002	19.996	103.218	20.005	3.440	0.502
290.000	216.853	80.002	19.995	103.219	19.998	3.940	0.511
292.000	217.842	80.002	19.995	103.218	20.003	3.537	0.509
294.000	218.783	80.005	19.995	103.217	20.005	3.434	0.496
296.000	219.789	80.004	19.995	103.218	20.001	3.696	0.485
298.000	220.785	80.001	19.996	103.218	20.002	3.670	0.500
300.000	221.745	80.005	19.995	103.217	20.008	3.218	0.491
302.000	222.710	80.000	19.994	103.217	20.004	3.509	0.493
304.001	223.681	80.003	19.996	103.218	20.005	3.406	0.502
306.000	224.676	80.001	19.994	103.219	20.004	3.505	0.478
308.000	225.658	80.004	19.994	103.218	20.004	3.517	0.503
310.000	226.614	80.003	19.994	103.222	20.000	3.819	0.494
312.000	227.599	80.002	19.996	103.222	20.002	3.664	0.500
314.000	228.620	80.004	19.994	103.221	20.004	3.481	0.521
316.000	229.586	80.003	19.995	103.222	19.998	3.914	0.491
318.000	230.556	80.004	19.995	103.221	20.003	3.543	0.479
320.000	231.515	80.002	19.994	103.222	20.000	3.767	0.481
322.000	232.469	80.000	19.994	103.221	20.001	3.680	0.486
324.000	233.433	80.001	19.995	103.221	20.002	3.622	0.494
326.000	234.414	80.001	19.996	103.223	20.005	3.436	0.489
328.000	235.428	80.001	19.995	103.221	19.998	3.953	0.494
330.000	236.371	80.001	19.996	103.221	20.001	3.682	0.481
332.000	237.355	80.002	19.995	103.219	20.003	3.535	0.487
334.000	238.310	80.002	19.994	103.217	20.000	3.805	0.474
336.000	239.292	80.001	19.995	103.219	20.000	3.805	0.481
338.000	240.299	80.000	19.995	103.220	19.999	3.834	0.502
340.000	241.241	80.001	19.995	103.218	20.000	3.803	0.496
342.000	242.228	80.001	19.995	103.218	19.997	3.977	0.486
344.000	243.232	80.002	19.996	103.217	19.998	3.916	0.504
346.000	244.221	80.001	19.995	103.217	19.997	4.000	0.485
348.000	245.231	80.002	19.995	103.217	19.996	4.064	0.508
350.000	246.233	80.001	19.996	103.209	19.999	3.845	0.488
352.000	247.195	80.001	19.996	103.216	19.995	4.150	0.528
354.000	248.204	79.999	19.996	103.212	19.994	4.246	0.499
356.000	249.194	79.999	19.997	103.209	19.999	3.893	0.494
358.000	250.247	80.000	19.996	103.195	19.996	4.063	0.516
360.000	251.259	80.001	19.997	103.194	19.997	4.033	0.489
362.000	252.281	80.000	19.996	103.181	19.997	4.017	0.516
364.000	253.281	80.002	19.996	103.182	19.997	4.018	0.502
366.000	254.325	80.002	19.996	103.183	19.997	4.025	0.486
368.000	255.291	80.002	19.996	103.181	19.995	4.145	0.520
370.000	256.354	80.001	19.994	103.180	19.996	4.093	0.532
372.000	257.339	80.003	19.995	103.179	19.992	4.392	0.502
374.000	258.391	80.002	19.995	103.182	19.989	4.581	0.506
376.000	259.442	80.003	19.996	103.183	19.993	4.273	0.519
378.000	260.434	79.999	19.995	103.184	19.993	4.323	0.507
380.000	261.458	80.001	19.996	103.184	19.992	4.398	0.512
382.000	262.445	80.003	19.995	103.183	19.992	4.380	0.469
384.000	263.477	80.000	19.994	103.181	19.993	4.273	0.517
386.000	264.454	80.001	19.994	103.181	19.995	4.188	0.502
388.000	265.491	80.002	19.994	103.180	19.992	4.364	0.505
390.000	266.513	80.003	19.995	103.177	19.994	4.204	0.493
392.000	267.551	80.004	19.994	103.178	19.994	4.218	0.535
394.000	268.563	80.002	19.994	103.180	19.995	4.140	0.492
396.000	269.599	80.005	19.993	103.181	19.991	4.441	0.512
398.000	270.671	80.003	19.994	103.176	19.989	4.598	0.512
400.000	271.675	80.004	19.993	103.177	19.992	4.388	0.509
402.000	272.726	80.003	19.995	103.174	19.994	4.225	0.502
404.000	273.726	80.001	19.994	103.176	19.994	4.193	0.522
406.000	274.752	80.001	19.995	103.173	19.989	4.570	0.524
408.000	275.742	80.002	19.996	103.172	19.992	4.346	0.498
410.000	276.745	80.002	19.996	103.170	19.989	4.610	0.494
412.000	277.774	80.001	19.995	103.172	19.992	4.372	0.496
414.000	278.780	80.002	19.994	103.165	19.992	4.400	0.504
416.000	279.813	80.002	19.996	103.170	19.988	4.661	0.544
418.000	280.799	80.000	19.995	103.163	19.983	5.025	0.499
420.000	281.798	80.001	19.996	103.174	19.987	4.715	0.493
422.000	282.787	80.000	19.996	103.171	19.987	4.739	0.537
424.000	283.774	80.001	19.995	103.168	19.989	4.588	0.480
426.000	284.799	80.000	19.996	103.170	19.990	4.551	0.511
428.000	285.741	80.001	19.996	103.174	19.988	4.650	0.455
430.000	286.789	80.000	19.995	103.170	19.990	4.529	0.492
432.000	287.754	80.000	19.995	103.170	19.989	4.620	0.511
434.000	288.762	80.001	19.995	103.175	19.987	4.777	0.536
436.000	289.766	80.000	19.995	103.180	19.985	4.876	0.490
438.001	290.763	79.999	19.994	103.181	19.981	5.147	0.520
440.000	291.722	80.001	19.996	103.183	19.984	4.927	0.473
442.000	292.752	80.000	19.995	103.183	19.984	4.927	0.484
444.000	293.724	80.000	19.996	103.177	19.984	4.977	0.484
446.000	294.733	80.002	19.996	103.178	19.984	4.955	0.493
448.000	295.666	80.001	19.995	103.167	19.980	5.249	0.485
450.000	296.649	80.004	19.995	103.163	19.982	5.098	0.468
452.000	297.579	80.002	19.996	103.174	19.985	4.916	0.480
454.000	298.573	80.002	19.996	103.162	19.984	4.957	0.498
456.000	299.547	80.000	19.996	103.177	19.981	5.162	0.511
458.000	300.471	80.001	19.995	103.179	19.982	5.134	0.469
460.000	301.485	80.002	19.995	103.177	19.981	5.163	0.495
462.000	302.394	80.001	19.995	103.181	19.982	5.106	0.504
464.000	303.376	80.001	19.994	103.179	19.979	5.348	0.473
466.000	304.364	80.004	19.995	103.181	19.974	5.675	0.512
468.000	305.345	80.003	19.995	103.181	19.976	5.556	0.480
470.000	306.340	80.004	19.994	103.178	19.973	5.786	0.509
472.000	307.301	80.003	19.994	103.174	19.974	5.691	0.496
474.000	308.275	80.006	19.995	103.179	19.970	5.994	0.481
476.000	309.310	80.003	19.995	103.179	19.969	6.030	0.521
478.000	310.287	80.005	19.994	103.179	19.970	5.957	0.506
480.000	311.271	80.004	19.995	103.179	19.969	6.038	0.476
482.000	312.285	80.002	19.996	103.174	19.969	6.067	0.495
484.000	313.307	80.001	19.995	103.177	19.969	6.042	0.524
486.000	314.291	80.001	19.996	103.170	19.966	6.263	0.497
488.000	315.296	80.001	19.994	103.177	19.966	6.315	0.474
490.000	316.312	80.004	19.995	103.177	19.965	6.335	0.497
492.000	317.266	80.002	19.995	103.175	19.966	6.295	0.477
494.000	318.313	80.002	19.995	103.162	19.961	6.655	0.489
496.000	319.290	80.002	19.995	103.157	19.960	6.696	0.499
498.000	320.292	80.002	19.995	103.173	19.963	6.522	0.511
500.000	321.268	80.003	19.996	103.176	19.962	6.581	0.498
502.000	322.271	80.002	19.995	103.174	19.959	6.817	0.480
504.000	323.250	80.000	19.994	103.174	19.962	6.588	0.486
506.000	324.268	80.003	19.996	103.181	19.963	6.492	0.522
508.000	325.216	80.002	19.996	103.177	19.958	6.873	0.493
510.000	326.183	80.001	19.995	103.172	19.957	6.962	0.507
512.000	327.221	80.001	19.996	103.175	19.954	7.180	0.481
514.000	328.186	80.002	19.995	103.179	19.954	7.160	0.500
516.000	329.161	80.000	19.997	103.184	19.953	7.234	0.497
518.000	330.164	80.000	19.995	103.181	19.949	7.569	0.528
520.000	331.117	80.001	19.997	103.183	19.950	7.486	0.487
522.000	332.099	80.001	19.997	103.183	19.949	7.551	0.503
524.000	333.083	80.001	19.995	103.177	19.947	7.691	0.485
526.000	334.084	80.003	19.996	103.183	19.949	7.545	0.536
528.000	335.085	80.003	19.995	103.182	19.941	8.090	0.526
530.000	336.063	80.004	19.995	103.177	19.941	8.157	0.507
532.000	337.075	80.004	19.996	103.175	19.940	8.229	0.486
534.000	338.040	80.004	19.995	103.177	19.936	8.489	0.494
536.000	339.034	80.003	19.995	103.172	19.934	8.606	0.484
538.000	340.016	80.002	19.996	103.179	19.932	8.784	0.466
540.000	341.020	80.002	19.996	103.171	19.927	9.117	0.507
542.000	341.957	80.001	19.996	103.179	19.931	8.870	0.465
544.000	342.932	80.001	19.996	103.179	19.924	9.380	0.465
546.000	343.958	80.003	19.996	103.175	19.919	9.753	0.482
548.000	344.926	80.003	19.995	103.177	19.918	9.836	0.464
550.000	345.953	80.003	19.995	103.178	19.911	10.351	0.504
552.000	346.983	80.005	19.996	103.180	19.908	10.565	0.493
554.000	347.964	80.006	19.996	103.183	19.903	10.904	0.491
556.000	349.005	80.005	19.995	103.185	19.899	11.238	0.506
558.000	350.034	80.004	19.995	103.186	19.895	11.489	0.539
560.000	351.043	80.004	19.995	103.182	19.889	11.977	0.492
562.000	352.101	80.002	19.994	103.182	19.887	12.103	0.535
564.000	353.167	80.002	19.994	103.193	19.881	12.548	0.537
566.000	354.232	80.003	19.994	103.195	19.874	13.051	0.542
568.000	355.270	80.001	19.995	103.190	19.869	13.437	0.535
570.000	356.338	80.001	19.995	103.190	19.861	13.979	0.560
572.000	357.402	80.001	19.994	103.202	19.855	14.453	0.555
574.000	358.482	80.000	19.994	103.213	19.850	14.813	0.555
576.000	359.545	80.003	19.995	103.208	19.843	15.325	0.537
578.000	360.586	80.001	19.994	103.213	19.835	15.884	0.529
580.000	361.678	80.001	19.995	103.221	19.822	16.866	0.553
582.000	362.753	80.002	19.994	103.220	19.815	17.360	0.551
584.000	363.790	80.001	19.994	103.222	19.807	17.961	0.541
586.000	364.890	80.004	19.994	103.225	19.792	19.102	0.531
588.000	365.968	80.000	19.994	103.227	19.777	20.216	0.519
590.000	367.014	80.000	19.994	103.223	19.766	21.008	0.514
592.000	368.088	80.000	19.995	103.223	19.754	21.897	0.544
594.000	369.189	79.997	19.996	103.223	19.731	23.572	0.543
596.000	370.252	80.004	19.995	103.223	19.716	24.640	0.522
598.000	371.286	80.002	19.994	103.225	19.698	26.014	0.518
600.000	372.337	80.002	19.996	103.236	19.675	27.706	0.518
602.000	373.432	80.002	19.995	103.237	19.660	28.792	0.543
604.000	374.515	80.002	19.995	103.240	19.638	30.458	0.548
606.000	375.506	80.001	19.995	103.253	19.613	32.251	0.513
608.000	376.602	80.001	19.996	103.255	19.587	34.165	0.525
610.000	377.648	80.004	19.996	103.259	19.565	35.787	0.516
612.000	378.735	80.003	19.996	103.263	19.538	37.815	0.522
614.000	379.739	80.003	19.996	103.269	19.509	39.918	0.512
616.000	380.800	80.003	19.995	103.288	19.477	42.315	0.530
618.000	381.858	80.002	19.996	103.297	19.446	44.562	0.519
620.000	382.860	80.002	19.995	103.297	19.412	47.058	0.500
622.000	383.909	80.001	19.994	103.298	19.376	49.706	0.502
624.000	385.004	80.002	19.996	103.304	19.340	52.350	0.534
626.000	386.016	80.004	19.996	103.327	19.300	55.302	0.499
628.000	387.063	80.001	19.995	103.332	19.262	58.137	0.501
630.000	388.066	80.004	19.996	103.338	19.221	61.147	0.501
632.000	389.102	80.002	19.995	103.340	19.178	64.348	0.509
634.000	390.146	80.002	19.996	103.356	19.135	67.513	0.542
636.000	391.122	80.004	19.995	103.366	19.091	70.766	0.499
638.000	392.168	80.004	19.995	103.373	19.045	74.160	0.535
640.000	393.203	80.003	19.995	103.374	18.994	77.928	0.542
642.000	394.215	80.001	19.995	103.381	18.951	81.098	0.521
644.000	395.238	80.001	19.995	103.396	18.908	84.277	0.495
646.000	396.233	80.000	19.994	103.404	18.861	87.741	0.493
648.000	397.241	80.002	19.994	103.418	18.816	91.011	0.508
650.000	398.264	80.002	19.995	103.424	18.771	94.357	0.494
652.000	399.252	80.000	19.994	103.427	18.733	97.145	0.466
654.000	400.232	80.001	19.994	103.434	18.692	100.206	0.468
656.000	401.249	79.999	19.995	103.449	18.653	103.075	0.491
658.000	402.211	80.002	19.994	103.451	18.620	105.539	0.493
660.000	403.217	80.001	19.994	103.452	18.588	107.885	0.526
662.000	404.146	80.002	19.995	103.453	18.555	110.281	0.476
664.000	405.158	80.000	19.996	103.453	18.526	112.462	0.513
666.000	406.126	80.000	19.995	103.452	18.502	114.211	0.476
668.000	407.145	80.001	19.994	103.464	18.483	115.647	0.500
670.000	408.150	80.002	19.995	103.473	18.467	116.807	0.509
672.000	409.083	80.001	19.995	103.470	18.453	117.826	0.452
674.000	410.090	80.001	19.995	103.477	18.441	118.697	0.501
676.000	411.045	80.002	19.996	103.488	18.435	119.169	0.464
678.000	412.035	80.002	19.995	103.490	18.430	119.480	0.500
680.000	412.998	80.002	19.996	103.476	18.433	119.286	0.478
682.000	413.995	80.004	19.995	103.475	18.437	118.958	0.511
684.000	414.942	80.002	19.995	103.485	18.445	118.405	0.477
686.000	415.934	80.002	19.996	103.478	18.456	117.572	0.517
688.000	416.898	80.003	19.994	103.466	18.472	116.420	0.492
690.000	417.820	80.004	19.995	103.459	18.492	114.888	0.422
692.000	418.852	80.005	19.994	103.457	18.517	113.052	0.495
694.000	419.831	80.007	19.994	103.455	18.542	111.201	0.469
696.000	420.826	80.002	19.995	103.456	18.568	109.251	0.492
698.000	421.742	80.003	19.995	103.454	18.606	106.473	0.471
700.000	422.725	80.002	19.995	103.447	18.637	104.154	0.515
702.000	423.703	80.002	19.996	103.428	18.674	101.412	0.492
704.000	424.692	80.001	19.995	103.422	18.715	98.394	0.493
706.000	425.658	80.002	19.995	103.417	18.754	95.512	0.488
708.000	426.633	80.003	19.995	103.411	18.799	92.237	0.492
710.000	427.604	80.002	19.995	103.403	18.836	89.498	0.494
712.000	428.652	80.003	19.994	103.383	18.881	86.145	0.513
714.000	429.631	80.004	19.994	103.378	18.918	83.402	0.483
716.000	430.643	80.003	19.994	103.369	18.958	80.460	0.507
718.000	431.651	80.005	19.994	103.359	19.000	77.375	0.518
720.000	432.637	80.004	19.995	103.342	19.041	74.325	0.503
722.000	433.643	80.002	19.995	103.336	19.085	71.120	0.490
724.000	434.655	80.002	19.996	103.321	19.119	68.605	0.491
726.000	435.689	80.004	19.995	103.302	19.157	65.820	0.517
728.000	436.645	80.001	19.996	103.298	19.193	63.169	0.506
730.000	437.668	80.000	19.996	103.292	19.228	60.576	0.479
732.000	438.646	80.000	19.995	103.287	19.264	57.898	0.485
734.000	439.653	80.001	19.996	103.271	19.300	55.231	0.488
736.000	440.642	80.001	19.996	103.259	19.340	52.298	0.480
738.000	441.661	80.002	19.996	103.257	19.380	49.403	0.514
740.000	442.642	80.002	19.996	103.248	19.415	46.809	0.524
742.000	443.609	80.002	19.995	103.248	19.451	44.163	0.441
744.000	444.632	80.002	19.995	103.230	19.481	41.944	0.492
746.000	445.611	80.003	19.995	103.224	19.505	40.139	0.488
748.000	446.635	80.001	19.995	103.217	19.526	38.609	0.508
750.000	447.609	80.001	19.995	103.219	19.548	37.010	0.479
752.000	448.575	80.006	19.993	103.207	19.561	36.045	0.476
754.000	449.550	79.997	19.997	103.207	19.571	35.292	0.466
756.000	450.584	80.008	19.993	103.195	19.581	34.597	0.502
758.000	451.638	79.999	19.994	103.186	19.589	34.024	0.549
760.000	452.619	80.010	19.993	103.185	19.585	34.250	0.493
762.000	453.615	80.003	19.995	103.186	19.595	33.559	0.513
764.000	454.622	80.007	19.995	103.179	19.597	33.431	0.516
766.000	455.628	80.004	19.995	103.164	19.595	33.518	0.523
768.000	456.606	80.002	19.994	103.165	19.591	33.837	0.480
770.000	457.589	80.005	19.995	103.166	19.588	34.034	0.483
772.000	458.592	80.004	19.994	103.166	19.584	34.374	0.509
774.000	459.595	79.986	19.994	103.173	19.584	34.344	0.492
776.000	460.653	79.998	19.993	103.161	19.581	34.553	0.504
778.000	461.702	80.002	19.995	103.154	19.584	34.316	0.537
780.000	462.754	80.002	19.994	103.145	19.584	34.366	0.525
782.000	463.792	80.004	19.993	103.143	19.590	33.914	0.530
784.000	464.844	80.003	19.995	103.145	19.593	33.678	0.522
786.000	465.925	80.003	19.995	103.138	19.603	32.937	0.523
788.000	467.001	80.001	19.995	103.131	19.618	31.854	0.577
790.000	468.130	80.006	19.995	103.132	19.631	30.881	0.543
792.000	469.212	80.005	19.994	103.125	19.651	29.400	0.548
794.000	470.274	80.001	19.996	103.122	19.669	28.137	0.541
796.000	471.400	80.004	19.996	103.121	19.684	26.973	0.532
798.000	472.534	80.005	19.995	103.134	19.703	25.622	0.557
800.000	473.642	80.004	19.995	103.137	19.722	24.216	0.585
802.000	474.779	80.003	19.995	103.135	19.741	22.817	0.582
804.000	475.871	80.002	19.994	103.136	19.760	21.451	0.517
806.000	477.012	80.000	19.994	103.139	19.772	20.544	0.567
808.000	478.119	80.004	19.995	103.139	19.788	19.382	0.559
810.000	479.225	80.004	19.995	103.139	19.808	17.875	0.571
812.001	480.325	79.998	19.996	103.138	19.823	16.803	0.589
814.000	481.442	80.002	19.996	103.139	19.837	15.773	0.555
816.000	482.570	80.000	19.996	103.141	19.851	14.707	0.578
818.001	483.662	80.000	19.997	103.142	19.864	13.810	0.564
820.000	484.751	80.001	19.996	103.139	19.879	12.710	0.528
822.000	485.858	80.000	19.995	103.142	19.886	12.143	0.551
824.000	487.006	79.998	19.995	103.142	19.896	11.414	0.570
826.000	488.039	80.003	19.995	103.144	19.902	10.964	0.540
828.000	489.146	79.999	19.994	103.146	19.908	10.512	0.527
830.000	490.267	80.003	19.995	103.144	19.911	10.337	0.577
832.000	491.367	80.004	19.995	103.143	19.915	10.006	0.549
834.000	492.476	79.999	19.994	103.143	19.922	9.497	0.582
836.000	493.539	79.999	19.996	103.143	19.922	9.497	0.533
838.000	494.634	80.001	19.995	103.148	19.927	9.130	0.525
840.000	495.744	79.997	19.995	103.145	19.927	9.170	0.532
842.000	496.830	79.998	19.994	103.146	19.930	8.924	0.539
844.000	497.906	80.001	19.994	103.143	19.932	8.765	0.539
846.000	498.955	79.999	19.995	103.147	19.932	8.755	0.549
848.000	500.027	80.001	19.995	103.144	19.934	8.609	0.550
850.000	501.095	80.003	19.995	103.143	19.934	8.635	0.526
852.000	502.197	80.005	19.994	103.140	19.932	8.795	0.550
854.000	503.254	79.980	19.995	103.141	19.933	8.688	0.529
856.000	504.318	80.007	19.995	103.136	19.936	8.476	0.558
858.000	505.346	80.002	19.996	103.148	19.931	8.825	0.532
860.000	506.450	80.009	19.994	103.145	19.933	8.740	0.532
862.000	507.510	80.004	19.994	103.143	19.932	8.779	0.548
864.000	508.557	80.002	19.995	103.143	19.931	8.847	0.501
866.000	509.609	80.004	19.993	103.142	19.933	8.690	0.563
868.000	510.643	79.999	19.995	103.142	19.926	9.214	0.523
870.001	511.681	80.002	19.994	103.142	19.931	8.872	0.525
872.000	512.684	80.008	19.993	103.141	19.932	8.791	0.538
874.000	513.754	80.001	19.994	103.142	19.932	8.747	0.552
876.000	514.803	80.000	19.994	103.142	19.930	8.932	0.505
878.000	515.838	80.002	19.993	103.143	19.930	8.926	0.510
880.000	516.895	80.009	19.995	103.140	19.930	8.942	0.531
882.000	517.878	80.001	19.996	103.140	19.932	8.809	0.510
884.000	518.933	80.004	19.996	103.141	19.928	9.091	0.538
886.000	519.973	80.000	19.995	103.141	19.934	8.665	0.527
888.000	521.035	80.003	19.995	103.142	19.930	8.914	0.538
890.000	522.026	80.001	19.995	103.143	19.931	8.880	0.502
892.000	523.084	80.002	19.996	103.141	19.929	8.999	0.556
894.000	524.104	80.001	19.994	103.140	19.927	9.150	0.509
896.000	525.106	80.002	19.995	103.144	19.929	9.011	0.529
898.000	526.170	80.001	19.995	103.146	19.930	8.948	0.504
900.000	527.171	79.999	19.995	103.143	19.929	9.017	0.501
902.000	528.213	80.002	19.995	103.142	19.928	9.073	0.512
904.001	529.219	80.004	19.995	103.144	19.928	9.088	0.523
906.000	530.264	79.998	19.995	103.145	19.923	9.473	0.478
908.000	531.263	80.002	19.995	103.144	19.924	9.340	0.490
910.000	532.314	80.001	19.996	103.145	19.922	9.479	0.506
912.000	533.357	80.000	19.996	103.144	19.925	9.281	0.508
914.000	534.345	80.001	19.996	103.141	19.921	9.604	0.512
916.000	535.352	79.998	19.997	103.144	19.920	9.655	0.498
918.000	536.425	80.001	19.995	103.141	19.919	9.705	0.533
920.000	537.421	80.001	19.995	103.141	19.917	9.889	0.517
922.000	538.409	80.000	19.996	103.141	19.917	9.885	0.514
924.000	539.463	80.003	19.995	103.141	19.912	10.250	0.529
926.000	540.477	80.003	19.995	103.141	19.913	10.193	0.533
928.000	541.499	80.001	19.995	103.139	19.915	9.994	0.496
930.000	542.492	80.004	19.994	103.142	19.915	10.040	0.525
932.000	543.486	80.004	19.994	103.140	19.913	10.157	0.537
934.000	544.460	80.001	19.997	103.141	19.911	10.357	0.516
936.000	545.473	80.004	19.996	103.141	19.911	10.294	0.506
938.000	546.456	80.003	19.995	103.139	19.912	10.232	0.477
940.000	547.483	80.001	19.996	103.141	19.910	10.367	0.473
942.000	548.532	80.001	19.994	103.142	19.910	10.393	0.520
944.000	549.509	80.005	19.995	103.143	19.909	10.447	0.478
946.000	550.551	80.001	19.994	103.142	19.907	10.635	0.519
948.000	551.569	80.004	19.994	103.142	19.911	10.355	0.509
950.000	552.597	80.005	19.994	103.143	19.914	10.133	0.529
952.000	553.629	80.000	19.995	103.144	19.910	10.433	0.525
954.001	554.674	80.003	19.994	103.148	19.913	10.197	0.529
956.000	555.704	80.004	19.994	103.145	19.908	10.553	0.506
958.000	556.699	80.002	19.994	103.144	19.909	10.470	0.462
960.000	557.727	80.006	19.993	103.143	19.910	10.409	0.474
962.000	558.749	80.006	19.993	103.144	19.911	10.332	0.507
964.000	559.797	80.003	19.993	103.144	19.907	10.651	0.507
966.000	560.783	80.002	19.994	103.143	19.907	10.605	0.484
968.000	561.847	80.002	19.996	103.145	19.905	10.774	0.518
970.000	562.854	80.004	19.995	103.144	19.906	10.662	0.521
972.000	563.859	79.998	19.996	103.150	19.905	10.788	0.504
974.000	564.873	80.003	19.994	103.145	19.904	10.819	0.504
976.000	565.909	79.999	19.996	103.144	19.904	10.867	0.519
978.000	566.865	80.001	19.996	103.145	19.902	10.990	0.474
980.000	567.892	79.999	19.996	103.141	19.903	10.908	0.511
982.000	568.937	80.001	19.995	103.141	19.903	10.880	0.484
984.000	569.994	80.003	19.995	103.146	19.902	10.999	0.522
986.000	570.972	80.002	19.995	103.143	19.901	11.073	0.475
988.000	572.030	79.999	19.996	103.144	19.899	11.182	0.522
990.000	573.061	80.002	19.995	103.143	19.894	11.590	0.545
992.000	574.105	80.001	19.994	103.142	19.897	11.351	0.511
994.000	575.169	80.003	19.995	103.142	19.891	11.781	0.515
996.000	576.230	79.999	19.995	103.143	19.886	12.163	0.548
998.000	577.247	80.000	19.996	103.142	19.888	11.988	0.521
1000.000	578.246	79.999	19.996	103.144	19.888	12.001	0.510
1002.000	579.289	79.999	19.997	103.146	19.883	12.393	0.542
1004.000	580.316	80.002	19.996	103.149	19.881	12.526	0.514
1006.000	581.357	80.001	19.995	103.142	19.875	13.000	0.493
1008.000	582.368	80.002	19.997	103.144	19.877	12.828	0.484
1010.000	583.395	80.002	19.996	103.143	19.876	12.924	0.478
1012.000	584.431	80.003	19.994	103.146	19.872	13.173	0.540
1014.000	585.444	80.002	19.995	103.143	19.871	13.294	0.562
1016.000	586.481	80.002	19.995	103.144	19.871	13.270	0.509
1018.000	587.437	80.004	19.995	103.144	19.868	13.496	0.524
1020.000	588.474	80.003	19.994	103.157	19.858	14.232	0.521
1022.000	589.484	80.003	19.994	103.164	19.857	14.299	0.485
1024.000	590.520	80.003	19.994	103.148	19.857	14.326	0.476
1026.001	591.584	80.004	19.994	103.159	19.853	14.585	0.507
1028.001	592.624	80.004	19.996	103.159	19.850	14.807	0.509
1030.000	593.580	80.001	19.994	103.180	19.838	15.728	0.559
1032.000	594.700	80.011	19.993	103.177	19.835	15.917	0.527
1034.000	595.688	80.004	19.992	103.175	19.822	16.888	0.461
1036.000	596.774	80.001	19.997	103.179	19.804	18.209	0.566
1038.000	597.708	80.001	19.995	103.182	19.810	17.728	0.578
1040.000	598.763	80.002	19.994	103.179	19.793	19.007	0.556
1042.001	599.961	80.003	19.994	103.176	19.794	18.912	0.629
1044.000	600.825	79.999	19.994	103.179	19.775	20.350	0.496
1046.001	601.994	79.999	19.996	103.178	19.769	20.750	0.489
1048.000	603.027	80.001	19.993	103.185	19.759	21.486	0.331
1050.000	603.811	79.998	19.994	103.182	19.750	22.144	0.132
1052.000	605.582	80.000	19.995	103.185	19.746	22.490	1.084
1054.000	606.188	80.003	19.995	103.182	19.734	23.363	0.605
1056.001	607.134	80.000	19.994	103.185	19.731	23.548	0.801
1058.000	607.923	80.004	19.995	103.181	19.727	23.823	0.629
1060.000	608.936	80.000	19.996	103.184	19.719	24.409	0.498
1062.000	609.974	79.999	19.997	103.185	19.717	24.577	0.590
1064.001	610.940	80.000	19.995	103.184	19.715	24.733	0.550
1066.000	611.921	79.999	19.995	103.182	19.718	24.535	0.476
1068.001	612.966	80.002	19.995	103.180	19.719	24.414	0.514
1070.001	613.977	79.999	19.995	103.186	19.720	24.330	0.461
1072.000	614.975	80.003	19.995	103.182	19.728	23.745	0.512
1074.000	615.977	80.001	19.995	103.180	19.734	23.345	0.503
1076.000	617.014	79.998	19.995	103.179	19.748	22.267	0.485
1078.000	618.024	80.001	19.995	103.182	19.760	21.412	0.542
1080.000	618.990	79.999	19.995	103.177	19.772	20.545	0.476
1082.000	620.008	79.998	19.996	103.168	19.796	18.797	0.525
1084.000	621.005	79.999	19.995	103.154	19.813	17.557	0.491
1086.000	622.013	79.998	19.997	103.154	19.832	16.147	0.506
1088.000	623.004	80.004	19.996	103.159	19.850	14.795	0.508
1090.001	624.004	80.017	19.996	103.159	19.863	13.826	0.484
1092.000	624.962	80.001	19.996	103.150	19.877	12.819	0.461
1094.000	625.919	80.003	19.996	103.149	19.885	12.260	0.501
1096.000	626.913	80.005	19.995	103.140	19.894	11.585	0.490
1098.001	627.832	80.002	19.995	103.140	19.897	11.324	0.467
1100.001	628.798	80.003	19.995	103.144	19.901	11.032	0.483
1102.000	629.796	80.010	19.994	103.132	19.906	10.675	0.485
1104.000	630.696	80.002	19.994	103.131	19.907	10.628	0.466
1106.001	631.689	80.002	19.995	103.140	19.912	10.231	0.481
1108.000	632.595	80.008	19.993	103.121	19.917	9.876	0.458
1110.000	633.599	80.003	19.994	103.130	19.916	9.971	0.483
1112.000	634.543	80.003	19.994	103.133	19.919	9.727	0.457
1114.000	635.581	80.002	19.995	103.115	19.918	9.837	0.524
1116.000	636.501	79.997	19.994	103.126	19.916	9.955	0.472
1118.000	637.459	79.994	19.994	103.116	19.917	9.861	0.466
1120.001	638.443	80.003	19.995	103.110	19.918	9.794	0.525
1122.000	639.430	79.997	19.997	103.118	19.917	9.871	0.474
1124.000	640.332	79.993	19.996	103.131	19.915	10.061	0.424
1126.000	641.330	79.994	19.996	103.122	19.920	9.658	0.479
1128.000	642.306	79.998	19.995	103.130	19.920	9.665	0.481
1130.000	643.245	80.001	19.996	103.137	19.922	9.546	0.460
1132.000	644.227	80.000	19.995	103.134	19.923	9.411	0.496
1134.000	645.245	80.001	19.995	103.139	19.920	9.644	0.459
1136.000	646.229	80.003	19.994	103.133	19.920	9.654	0.486
1138.000	646.973	80.000	19.994	103.138	19.919	9.719	0.431
1140.000	648.067	80.002	19.995	103.142	19.920	9.645	-0.073
1142.000	649.169	80.000	19.995	103.139	19.918	9.802	0.413
1144.000	650.175	80.004	19.995	103.141	19.919	9.701	0.489
1146.000	651.203	80.001	19.994	103.143	19.922	9.515	0.497
1148.000	652.153	80.001	19.995	103.142	19.919	9.739	0.493
1150.000	653.171	80.003	19.996	103.137	19.921	9.618	0.517
1152.000	654.177	80.000	19.995	103.140	19.918	9.779	0.510
1154.000	655.197	80.002	19.995	103.143	19.918	9.842	0.531
1156.000	656.220	80.001	19.997	103.144	19.915	10.056	0.518
1158.001	657.218	80.001	19.996	103.143	19.915	10.016	0.513
1160.001	658.245	80.001	19.996	103.143	19.917	9.907	0.501
1162.000	659.271	80.001	19.995	103.143	19.918	9.826	0.485
1164.000	660.252	80.001	19.995	103.144	19.915	10.018	0.501
1166.000	661.305	80.002	19.996	103.144	19.915	10.030	0.532
1168.000	662.355	80.001	19.996	103.144	19.920	9.697	0.555
1170.000	663.374	80.000	19.995	103.144	19.918	9.834	0.518
1172.001	664.338	80.002	19.995	103.142	19.917	9.875	0.492
1174.000	665.369	80.003	19.996	103.142	19.920	9.628	0.524
1176.000	666.407	80.004	19.994	103.140	19.918	9.816	0.524
1178.000	667.364	80.001	19.995	103.141	19.917	9.846	0.479
1180.001	668.420	80.002	19.996	103.141	19.917	9.846	0.504
1182.001	669.476	80.001	19.996	103.142	19.916	9.958	0.519
1184.000	670.479	80.002	19.996	103.143	19.914	10.123	0.532
1186.000	671.541	80.000	19.996	103.142	19.919	9.770	0.538
1188.000	672.628	80.004	19.996	103.142	19.915	10.032	0.494
1190.000	673.430	79.999	19.996	103.149	19.914	10.127	0.584
1192.000	674.549	80.001	19.995	103.144	19.917	9.890	0.528
1194.000	675.571	80.003	19.995	103.141	19.915	10.048	0.514
1196.000	676.599	80.004	19.995	103.140	19.917	9.890	0.491
1198.001	677.579	80.003	19.995	103.143	19.915	10.007	0.506
1200.001	678.612	80.005	19.994	103.142	19.915	10.021	0.516
1202.001	679.598	80.003	19.994	103.148	19.916	9.987	0.498
1204.000	680.579	80.005	19.995	103.145	19.916	9.972	0.506
1206.000	681.576	80.002	19.995	103.149	19.913	10.184	0.477
1208.000	682.590	80.003	19.995	103.145	19.915	10.033	0.468
1210.000	683.569	79.997	19.996	103.152	19.911	10.355	0.488
1212.001	684.577	79.997	19.995	103.147	19.912	10.236	0.488
1214.000	685.566	80.008	19.995	103.148	19.913	10.214	0.460
1216.000	686.571	79.999	19.996	103.168	19.909	10.452	0.513
1218.000	687.610	80.002	19.995	103.170	19.911	10.305	0.498
1220.001	688.615	80.001	19.995	103.162	19.911	10.298	0.491
1222.000	689.659	80.000	19.995	103.173	19.914	10.122	0.516
1224.000	690.727	80.001	19.993	103.177	19.911	10.352	0.544
1226.000	691.734	80.004	19.994	103.180	19.909	10.484	0.525
1228.001	692.836	80.003	19.993	103.176	19.910	10.366	0.562
1230.000	693.880	79.993	19.994	103.186	19.912	10.244	0.535
1232.000	694.948	80.001	19.995	103.177	19.912	10.240	0.518
1234.000	696.037	80.002	19.995	103.170	19.914	10.087	0.578
1236.000	697.144	79.998	19.996	103.172	19.912	10.267	0.524
1238.001	698.191	80.000	19.996	103.180	19.910	10.429	0.552
1240.000	699.279	80.002	19.994	103.162	19.909	10.492	0.530
1242.000	700.354	80.001	19.995	103.162	19.907	10.628	0.536
1244.000	701.469	80.003	19.995	103.160	19.911	10.357	0.573
1246.000	702.534	80.002	19.996	103.157	19.907	10.628	0.564
1248.000	703.623	80.009	19.995	103.150	19.909	10.499	0.498
1250.001	704.730	80.001	19.996	103.144	19.911	10.319	0.566
1252.000	705.773	79.992	19.997	103.144	19.914	10.079	0.537
1254.000	706.894	80.002	19.995	103.139	19.910	10.369	0.566
1256.000	707.962	80.003	19.995	103.141	19.913	10.209	0.550
1258.000	709.089	80.002	19.996	103.134	19.914	10.133	0.539
1260.000	710.133	80.003	19.995	103.134	19.915	10.032	0.545
1262.000	711.226	80.004	19.994	103.133	19.915	10.044	0.548
1264.000	712.295	80.001	19.995	103.110	19.916	9.921	0.505
1266.001	713.394	80.004	19.996	103.109	19.917	9.890	0.547
1268.000	714.495	79.997	19.995	103.109	19.915	10.007	0.563
1270.000	715.526	80.001	19.996	103.114	19.914	10.068	0.541
1272.000	716.617	80.004	19.996	103.116	19.919	9.698	0.540
1274.000	717.700	80.002	19.995	103.104	19.920	9.674	0.550
1276.000	718.728	80.002	19.996	103.109	19.919	9.757	0.519
1278.000	719.779	80.004	19.996	103.107	19.918	9.790	0.522
1280.000	720.826	80.003	19.996	103.105	19.921	9.557	0.522
1282.001	721.887	80.003	19.995	103.106	19.919	9.729	0.521
1284.001	722.887	80.003	19.995	103.106	19.920	9.685	0.500
1286.000	723.949	80.004	19.994	103.107	19.921	9.600	0.531
1288.000	724.982	79.997	19.995	103.104	19.917	9.848	0.558
1290.000	726.006	80.000	19.995	103.104	19.921	9.576	0.522
1292.000	726.999	79.993	19.995	103.107	19.921	9.614	0.514
1294.000	728.044	79.999	19.994	103.103	19.929	9.028	0.512
1296.000	729.057	80.001	19.994	103.103	19.917	9.855	0.531
1298.000	730.083	80.004	19.995	103.105	19.931	8.859	0.524
1300.000	731.126	79.999	19.995	103.103	19.925	9.261	0.517
1302.000	732.112	79.998	19.995	103.101	19.933	8.738	0.500
1304.000	733.083	80.002	19.994	103.100	19.914	10.089	0.499
1306.000	734.066	80.010	19.994	103.101	19.912	10.210	0.503
1308.000	735.056	80.002	19.995	103.100	19.916	9.947	0.455
1310.000	736.069	80.005	19.995	103.102	19.917	9.864	0.488
1312.000	737.043	80.004	19.996	103.103	19.914	10.078	0.477
1314.000	738.046	80.003	19.996	103.101	19.913	10.157	0.503
1316.001	739.092	80.005	19.995	103.103	19.916	9.961	0.519
1318.000	740.121	80.003	19.995	103.099	19.919	9.751	0.552
1320.000	741.068	80.002	19.995	103.103	19.916	9.957	0.552
1322.000	742.078	80.005	19.994	103.103	19.917	9.875	0.447
1324.000	743.076	80.001	19.995	103.105	19.917	9.850	0.490
1325.000	743.562	80.002	19.994	103.104	19.916	9.937	0.485