File: 01_Data/LW_GypBoard_Unpainted_Paper/STA/N2/10K_min/Lw_Gypsum_Paper_STA_N2_10KData_220103_R3.csv
##Temp./Â°C,Time/min,DSC(subtr.2)/(mW/mg),Mass loss(subtr.2)/mg,Sensit./(uV/mW)
49.6,10.00917,0.03015711,-0.07371,1.07521
50.2,10.72262,0.05989657,-0.07796306,1.07489
50.8,10.91187,0.07985193,-0.07977607,1.07458
51.4,11.05408,0.09653595,-0.07741601,1.07427
52.0,11.17366,0.10998,-0.07840826,1.07396
52.6,11.27966,0.12496,-0.08042265,1.07364
53.2,11.37655,0.13474,-0.08089774,1.07333
53.8,11.46691,0.14731,-0.08088671,1.07302
54.4,11.5519,0.15512,-0.08058391,1.07271
55.0,11.63381,0.16465,-0.08134771,1.07239
55.6,11.7126,0.17195,-0.08394877,1.07208
56.2,11.78915,0.17885,-0.08358187,1.07177
56.8,11.86427,0.18852,-0.08327649,1.07146
57.4,11.93788,0.19041,-0.08334673,1.07115
58.0,12.0109,0.19565,-0.08255173,1.07083
58.6,12.08235,0.2013,-0.08286653,1.07052
59.2,12.15294,0.20569,-0.08382359,1.07021
59.8,12.22229,0.21353,-0.08425281,1.0699
60.4,12.2911,0.21541,-0.08412559,1.06959
61.0,12.35918,0.22101,-0.0841205,1.06927
61.6,12.42682,0.22306,-0.08541154,1.06896
62.2,12.494,0.22866,-0.08538747,1.06865
62.8,12.56068,0.23232,-0.08544659,1.06834
63.4,12.62703,0.23643,-0.08683362,1.06803
64.0,12.69324,0.24071,-0.08668154,1.06772
64.6,12.75912,0.24194,-0.08676038,1.0674
65.2,12.8248,0.2459,-0.08806832,1.06709
65.8,12.8902,0.24768,-0.08807422,1.06678
66.4,12.95547,0.25111,-0.08952574,1.06647
67.0,13.02058,0.25235,-0.08945069,1.06616
67.6,13.08562,0.25694,-0.08940394,1.06585
68.2,13.15042,0.25971,-0.09071617,1.06554
68.8,13.21476,0.2627,-0.09071866,1.06523
69.4,13.27886,0.26618,-0.09070425,1.06492
70.0,13.34278,0.27164,-0.09071572,1.0646
70.6,13.40657,0.2724,-0.0907385,1.06429
71.2,13.47013,0.27725,-0.0906936,1.06398
71.8,13.5337,0.27934,-0.09201945,1.06367
72.4,13.5973,0.28283,-0.09333026,1.06336
73.0,13.6607,0.28863,-0.09381104,1.06305
73.6,13.72384,0.28842,-0.09464987,1.06274
74.2,13.78625,0.29255,-0.09465029,1.06243
74.8,13.8491,0.2956,-0.09465963,1.06212
75.4,13.9119,0.299,-0.09592868,1.06181
76.0,13.9749,0.30162,-0.09728989,1.0615
76.6,14.0382,0.30577,-0.09728675,1.06119
77.2,14.10082,0.30832,-0.09861095,1.06088
77.8,14.16285,0.31125,-0.09993752,1.06057
78.4,14.2249,0.31308,-0.09993001,1.06026
79.0,14.2872,0.31607,-0.09993022,1.05995
79.6,14.35,0.3187,-0.10032,1.05964
80.2,14.412,0.32038,-0.10023,1.05933
80.8,14.474,0.32452,-0.10157,1.05902
81.4,14.53558,0.32837,-0.10249,1.05871
82.0,14.5972,0.33037,-0.10419,1.0584
82.6,14.65889,0.33531,-0.10551,1.05809
83.2,14.72064,0.33823,-0.10551,1.05778
83.8,14.78229,0.34194,-0.10534,1.05747
84.4,14.8439,0.34258,-0.10543,1.05716
85.0,14.9051,0.34815,-0.10683,1.05685
85.6,14.9662,0.35457,-0.10746,1.05654
86.2,15.0273,0.35721,-0.10876,1.05623
86.8,15.08823,0.35878,-0.10946,1.05592
87.4,15.1492,0.36137,-0.11078,1.05561
88.0,15.2099,0.36486,-0.1121,1.0553
88.6,15.2704,0.36809,-0.11344,1.055
89.2,15.33085,0.37015,-0.11272,1.05469
89.8,15.391,0.37077,-0.11275,1.05438
90.4,15.45116,0.37382,-0.11405,1.05407
91.0,15.51126,0.37231,-0.11421,1.05376
91.6,15.57126,0.37373,-0.1167,1.05345
92.2,15.6314,0.37565,-0.11668,1.05314
92.8,15.6913,0.37776,-0.11802,1.05283
93.4,15.75104,0.37905,-0.11816,1.05252
94.0,15.81073,0.37751,-0.11934,1.05222
94.6,15.87021,0.37681,-0.12066,1.05191
95.2,15.92963,0.37487,-0.12066,1.0516
95.8,15.98903,0.37213,-0.12066,1.05129
96.4,16.04866,0.3737,-0.12328,1.05098
97.0,16.10819,0.37294,-0.12328,1.05067
97.6,16.16763,0.37094,-0.12328,1.05037
98.2,16.227,0.36954,-0.12346,1.05006
98.8,16.2862,0.36701,-0.12461,1.04975
99.4,16.34551,0.3631,-0.12592,1.04944
100.0,16.40475,0.36432,-0.12725,1.04913
100.6,16.46409,0.3606,-0.12724,1.04883
101.2,16.52303,0.35965,-0.12742,1.04852
101.8,16.58219,0.3568,-0.12809,1.04821
102.4,16.6412,0.35552,-0.12921,1.0479
103.0,16.70022,0.35425,-0.12921,1.04759
103.6,16.7594,0.35134,-0.1312,1.04729
104.2,16.8184,0.34814,-0.13184,1.04698
104.8,16.87735,0.34706,-0.13184,1.04667
105.4,16.9363,0.34424,-0.13267,1.04636
106.0,16.99474,0.34302,-0.1325,1.04606
106.6,17.0539,0.3403,-0.13333,1.04575
107.2,17.11295,0.33765,-0.13487,1.04544
107.8,17.17223,0.3347,-0.13481,1.04513
108.4,17.2315,0.33375,-0.13483,1.04483
109.0,17.29029,0.33225,-0.13615,1.04452
109.6,17.3492,0.33006,-0.13644,1.04421
110.2,17.40815,0.32663,-0.13644,1.0439
110.8,17.46714,0.32427,-0.13775,1.0436
111.4,17.5262,0.32255,-0.13906,1.04329
112.0,17.58522,0.32341,-0.13908,1.04298
112.6,17.64409,0.32008,-0.14039,1.04268
113.2,17.7027,0.31981,-0.13976,1.04237
113.8,17.76163,0.31893,-0.14104,1.04206
114.4,17.82037,0.31824,-0.14105,1.04176
115.0,17.87904,0.31664,-0.14105,1.04145
115.6,17.9378,0.3178,-0.14105,1.04114
116.2,17.9962,0.31522,-0.14105,1.04084
116.8,18.05487,0.31439,-0.14136,1.04053
117.4,18.11337,0.31616,-0.14237,1.04022
118.0,18.17181,0.31378,-0.1431,1.03992
118.6,18.23029,0.31746,-0.14302,1.03961
119.2,18.28878,0.31501,-0.145,1.0393
119.8,18.34749,0.31603,-0.14418,1.039
120.4,18.40606,0.31476,-0.14502,1.03869
121.0,18.46462,0.31334,-0.14566,1.03839
121.6,18.52329,0.31208,-0.14579,1.03808
122.2,18.58165,0.30805,-0.14599,1.03777
122.8,18.64003,0.30773,-0.14632,1.03747
123.4,18.6983,0.3048,-0.14632,1.03716
124.0,18.75647,0.30164,-0.14751,1.03686
124.6,18.81467,0.30047,-0.14763,1.03655
125.2,18.8733,0.29841,-0.14763,1.03624
125.8,18.93168,0.29831,-0.14763,1.03594
126.4,18.99019,0.29369,-0.14763,1.03563
127.0,19.04866,0.29323,-0.14733,1.03533
127.6,19.10675,0.28845,-0.14763,1.03502
128.2,19.16505,0.28768,-0.14764,1.03472
128.8,19.2233,0.28617,-0.14897,1.03441
129.4,19.2816,0.28611,-0.14896,1.03411
130.0,19.33981,0.28341,-0.14896,1.0338
130.6,19.39796,0.28317,-0.15023,1.03349
131.2,19.45608,0.2821,-0.15027,1.03319
131.8,19.51396,0.28001,-0.15027,1.03288
132.4,19.57187,0.27884,-0.15027,1.03258
133.0,19.62986,0.27852,-0.15027,1.03227
133.6,19.6877,0.27524,-0.15159,1.03197
134.2,19.7457,0.27657,-0.15159,1.03166
134.8,19.80366,0.27638,-0.1503,1.03136
135.4,19.86155,0.27888,-0.15027,1.03105
136.0,19.9195,0.27514,-0.15259,1.03075
136.6,19.97757,0.27673,-0.15257,1.03044
137.2,20.03552,0.27508,-0.15257,1.03014
137.8,20.0935,0.27408,-0.15257,1.02983
138.4,20.15152,0.27391,-0.1512,1.02953
139.0,20.20946,0.27373,-0.15125,1.02922
139.6,20.26747,0.27104,-0.15177,1.02892
140.2,20.32546,0.27284,-0.15157,1.02861
140.8,20.3834,0.2716,-0.1513,1.02831
141.4,20.44126,0.27098,-0.15257,1.02801
142.0,20.49908,0.268,-0.15257,1.0277
142.6,20.55707,0.27068,-0.15257,1.0274
143.2,20.61502,0.26935,-0.15352,1.02709
143.8,20.67295,0.26928,-0.15409,1.02679
144.4,20.73102,0.26821,-0.15487,1.02648
145.0,20.789,0.26933,-0.15487,1.02618
145.6,20.84679,0.2702,-0.15487,1.02587
146.2,20.90466,0.27183,-0.15399,1.02557
146.8,20.96242,0.27397,-0.15488,1.02527
147.4,21.02026,0.27015,-0.15488,1.02496
148.0,21.07801,0.26995,-0.15488,1.02466
148.6,21.13575,0.2718,-0.15488,1.02435
149.2,21.19363,0.27008,-0.15488,1.02405
149.8,21.25155,0.27127,-0.15533,1.02375
150.4,21.30925,0.27414,-0.15488,1.02344
151.0,21.3671,0.27233,-0.15488,1.02314
151.6,21.4245,0.27188,-0.15486,1.02283
152.2,21.4822,0.27385,-0.15422,1.02253
152.8,21.54009,0.27596,-0.15553,1.02223
153.4,21.59807,0.27262,-0.15553,1.02192
154.0,21.65615,0.27307,-0.15485,1.02162
154.6,21.7138,0.27515,-0.15619,1.02131
155.2,21.7715,0.27504,-0.15489,1.02101
155.8,21.8291,0.27337,-0.15619,1.02071
156.4,21.8868,0.27573,-0.1561,1.0204
157.0,21.94432,0.27548,-0.15717,1.0201
157.6,22.00186,0.27816,-0.15585,1.0198
158.2,22.05944,0.27797,-0.15586,1.01949
158.8,22.1172,0.27832,-0.15709,1.01919
159.4,22.17466,0.27653,-0.15719,1.01889
160.0,22.23238,0.27799,-0.15619,1.01858
160.6,22.28997,0.27712,-0.15751,1.01828
161.2,22.3476,0.27818,-0.15751,1.01798
161.8,22.40522,0.27808,-0.15751,1.01767
162.4,22.46264,0.27962,-0.15751,1.01737
163.0,22.52032,0.27872,-0.15759,1.01707
163.6,22.5778,0.2782,-0.15823,1.01676
164.2,22.6354,0.27922,-0.15783,1.01646
164.8,22.69298,0.28073,-0.15751,1.01616
165.4,22.75045,0.28437,-0.1588,1.01585
166.0,22.80825,0.28339,-0.15882,1.01555
166.6,22.86605,0.28313,-0.15882,1.01525
167.2,22.92374,0.28187,-0.15882,1.01494
167.8,22.98151,0.28148,-0.15884,1.01464
168.4,23.03916,0.28055,-0.1575,1.01434
169.0,23.0968,0.28271,-0.15881,1.01403
169.6,23.15444,0.28363,-0.1599,1.01373
170.2,23.21203,0.2822,-0.15883,1.01343
170.8,23.2697,0.28334,-0.15882,1.01313
171.4,23.3273,0.28296,-0.15874,1.01282
172.0,23.3846,0.28378,-0.15981,1.01252
172.6,23.44211,0.28383,-0.1599,1.01222
173.2,23.49941,0.28387,-0.16014,1.01191
173.8,23.55715,0.28551,-0.15946,1.01161
174.4,23.61488,0.28697,-0.15948,1.01131
175.0,23.67255,0.28749,-0.15916,1.01101
175.6,23.73029,0.28584,-0.15916,1.0107
176.2,23.78795,0.28645,-0.15916,1.0104
176.8,23.84565,0.28839,-0.16038,1.0101
177.4,23.9033,0.28776,-0.16014,1.0098
178.0,23.9607,0.28887,-0.16124,1.00949
178.6,24.018,0.28978,-0.16151,1.00919
179.2,24.07545,0.28933,-0.16015,1.00889
179.8,24.13276,0.29082,-0.16146,1.00858
180.4,24.1902,0.28998,-0.16277,1.00828
181.0,24.2473,0.2921,-0.16216,1.00798
181.6,24.30451,0.29298,-0.16212,1.00768
182.2,24.3618,0.29505,-0.16217,1.00737
182.8,24.4194,0.29412,-0.1608,1.00707
183.4,24.47685,0.29485,-0.16346,1.00677
184.0,24.53418,0.29539,-0.16343,1.00647
184.6,24.5915,0.29601,-0.16343,1.00616
185.2,24.6489,0.29692,-0.16211,1.00586
185.8,24.70618,0.29588,-0.16342,1.00556
186.4,24.7634,0.2978,-0.16343,1.00526
187.0,24.8205,0.29788,-0.16213,1.00495
187.6,24.87765,0.30008,-0.16211,1.00465
188.2,24.9348,0.29865,-0.16212,1.00435
188.8,24.99225,0.29905,-0.16343,1.00405
189.4,25.04937,0.29966,-0.16343,1.00375
190.0,25.10662,0.30173,-0.16343,1.00344
190.6,25.16358,0.30108,-0.16338,1.00314
191.2,25.22099,0.30053,-0.16474,1.00284
191.8,25.27828,0.30181,-0.16606,1.00254
192.4,25.3356,0.30139,-0.16606,1.00223
193.0,25.39265,0.30583,-0.1654,1.00193
193.6,25.4496,0.30491,-0.16543,1.00163
194.2,25.5065,0.30574,-0.16606,1.00133
194.8,25.56363,0.30613,-0.16606,1.00102
195.4,25.62067,0.30686,-0.16606,1.00072
196.0,25.67762,0.30944,-0.16606,1.00042
196.6,25.7345,0.30806,-0.16738,1.00012
197.2,25.79135,0.30952,-0.16738,0.99982
197.8,25.84814,0.31051,-0.16738,0.99951
198.4,25.90502,0.3106,-0.16599,0.99921
199.0,25.96216,0.31119,-0.16607,0.99891
199.6,26.01919,0.31037,-0.16607,0.99861
200.2,26.07634,0.31165,-0.16705,0.9983
200.8,26.13331,0.31338,-0.16742,0.998
201.4,26.19055,0.31311,-0.16748,0.9977
202.0,26.24748,0.31404,-0.16865,0.9974
202.6,26.30455,0.31289,-0.16869,0.99709
203.2,26.3616,0.31441,-0.16869,0.99679
203.8,26.41853,0.31273,-0.16869,0.99649
204.4,26.4754,0.31361,-0.16858,0.99619
205.0,26.5323,0.31703,-0.16968,0.99589
205.6,26.58932,0.31823,-0.17068,0.99558
206.2,26.6465,0.31565,-0.17067,0.99528
206.8,26.70369,0.31704,-0.17067,0.99498
207.4,26.76095,0.31418,-0.17099,0.99468
208.0,26.81802,0.31613,-0.171,0.99437
208.6,26.8752,0.31809,-0.17113,0.99407
209.2,26.93233,0.31758,-0.17199,0.99377
209.8,26.98933,0.31602,-0.17199,0.99347
210.4,27.0464,0.31912,-0.17231,0.99316
211.0,27.1035,0.31742,-0.17297,0.99286
211.6,27.1606,0.31668,-0.17298,0.99256
212.2,27.218,0.31846,-0.17356,0.99226
212.8,27.27533,0.31918,-0.17396,0.99196
213.4,27.3327,0.31843,-0.17396,0.99165
214.0,27.39012,0.32022,-0.17396,0.99135
214.6,27.44738,0.31903,-0.17396,0.99105
215.2,27.5048,0.31948,-0.17562,0.99075
215.8,27.56216,0.31879,-0.17626,0.99044
216.4,27.61941,0.31972,-0.17626,0.99014
217.0,27.6766,0.32114,-0.17652,0.98984
217.6,27.7337,0.32308,-0.17659,0.98954
218.2,27.7908,0.32145,-0.17804,0.98923
218.8,27.84781,0.32626,-0.17923,0.98893
219.4,27.9051,0.32489,-0.17923,0.98863
220.0,27.9623,0.32415,-0.17923,0.98833
220.6,28.0193,0.32566,-0.18054,0.98802
221.2,28.0765,0.32688,-0.17957,0.98772
221.8,28.13365,0.32647,-0.17955,0.98742
222.4,28.1906,0.32615,-0.18087,0.98712
223.0,28.24803,0.32793,-0.18087,0.98681
223.6,28.30528,0.32702,-0.18186,0.98651
224.2,28.36269,0.32628,-0.18184,0.98621
224.8,28.42003,0.32921,-0.18219,0.98591
225.4,28.4772,0.32813,-0.18473,0.9856
226.0,28.53459,0.32893,-0.18482,0.9853
226.6,28.59185,0.32803,-0.18482,0.985
227.2,28.6491,0.33103,-0.18613,0.98469
227.8,28.70648,0.32953,-0.18613,0.98439
228.4,28.7637,0.3315,-0.18755,0.98409
229.0,28.82098,0.33379,-0.18795,0.98379
229.6,28.87831,0.33156,-0.19005,0.98348
230.2,28.93572,0.33123,-0.18908,0.98318
230.8,28.99322,0.33362,-0.18905,0.98288
231.4,29.0508,0.33164,-0.19041,0.98257
232.0,29.10802,0.33443,-0.19173,0.98227
232.6,29.16548,0.33289,-0.19173,0.98197
233.2,29.22274,0.33124,-0.19169,0.98167
233.8,29.28005,0.33455,-0.19305,0.98136
234.4,29.3375,0.33544,-0.19338,0.98106
235.0,29.395,0.33568,-0.19434,0.98076
235.6,29.45247,0.33594,-0.19436,0.98045
236.2,29.5099,0.33569,-0.19571,0.98015
236.8,29.5673,0.33658,-0.19685,0.97985
237.4,29.6246,0.33793,-0.19766,0.97954
238.0,29.68165,0.34048,-0.19761,0.97924
238.6,29.73907,0.33882,-0.19962,0.97894
239.2,29.7966,0.3401,-0.20169,0.97863
239.8,29.85432,0.34157,-0.20171,0.97833
240.4,29.9117,0.34485,-0.20171,0.97803
241.0,29.96919,0.34334,-0.20236,0.97772
241.6,30.02665,0.34476,-0.20348,0.97742
242.2,30.08425,0.34451,-0.20415,0.97712
242.8,30.1417,0.34252,-0.20502,0.97681
243.4,30.1992,0.34143,-0.20631,0.97651
244.0,30.2567,0.34086,-0.20763,0.97621
244.6,30.314,0.34161,-0.21075,0.9759
245.2,30.37149,0.33782,-0.21243,0.9756
245.8,30.4289,0.33757,-0.2129,0.9753
246.4,30.48658,0.33799,-0.21422,0.97499
247.0,30.5441,0.33808,-0.21553,0.97469
247.6,30.60169,0.33571,-0.21685,0.97438
248.2,30.6593,0.33499,-0.21817,0.97408
248.8,30.71657,0.33677,-0.21953,0.97378
249.4,30.774,0.33869,-0.22227,0.97347
250.0,30.8312,0.33492,-0.22344,0.97317
250.6,30.88829,0.33596,-0.22473,0.97286
251.2,30.94567,0.33677,-0.22715,0.97256
251.8,31.003,0.33735,-0.22887,0.97225
252.4,31.0601,0.33551,-0.23075,0.97195
253.0,31.11735,0.33687,-0.2329,0.97165
253.6,31.17437,0.33719,-0.2356,0.97134
254.2,31.2315,0.33699,-0.23699,0.97104
254.8,31.28871,0.33883,-0.23798,0.97073
255.4,31.346,0.33733,-0.2397,0.97043
256.0,31.4033,0.33825,-0.24229,0.97012
256.6,31.4606,0.34028,-0.24509,0.96982
257.2,31.51776,0.33974,-0.24644,0.96951
257.8,31.57491,0.34236,-0.24947,0.96921
258.4,31.63205,0.34348,-0.25075,0.96891
259.0,31.68931,0.34285,-0.25206,0.9686
259.6,31.7466,0.34431,-0.25493,0.9683
260.2,31.80402,0.34123,-0.25769,0.96799
260.8,31.86133,0.34293,-0.26122,0.96769
261.4,31.9186,0.34436,-0.26358,0.96738
262.0,31.9758,0.34345,-0.26575,0.96708
262.6,32.03309,0.34561,-0.26794,0.96677
263.2,32.09025,0.34627,-0.27094,0.96646
263.8,32.14748,0.34755,-0.2742,0.96616
264.4,32.20494,0.3475,-0.27711,0.96585
265.0,32.26251,0.34808,-0.28126,0.96555
265.6,32.32,0.34994,-0.2833,0.96524
266.2,32.37744,0.34912,-0.28603,0.96494
266.8,32.43482,0.35056,-0.2886,0.96463
267.4,32.4923,0.35066,-0.29179,0.96433
268.0,32.5499,0.35356,-0.29459,0.96402
268.6,32.60742,0.35436,-0.30029,0.96371
269.2,32.66492,0.35548,-0.30377,0.96341
269.8,32.72242,0.3566,-0.30711,0.9631
270.4,32.77987,0.35868,-0.31093,0.9628
271.0,32.83745,0.36057,-0.31987,0.96249
271.6,32.8951,0.36269,-0.32925,0.96218
272.2,32.95261,0.36564,-0.3306,0.96188
272.8,33.0098,0.36804,-0.33329,0.96157
273.4,33.06725,0.3717,-0.33516,0.96127
274.0,33.12426,0.37144,-0.33827,0.96096
274.6,33.18176,0.37496,-0.34259,0.96065
275.2,33.23957,0.37797,-0.34597,0.96035
275.8,33.2969,0.38198,-0.35009,0.96004
276.4,33.35456,0.38343,-0.35418,0.95973
277.0,33.41205,0.385,-0.35626,0.95943
277.6,33.46952,0.38844,-0.35706,0.95912
278.2,33.527,0.3911,-0.36201,0.95881
278.8,33.58504,0.39225,-0.36918,0.9585
279.4,33.64247,0.39654,-0.37514,0.9582
280.0,33.6997,0.39811,-0.38123,0.95789
280.6,33.75719,0.40278,-0.3876,0.95758
281.2,33.81458,0.40608,-0.39409,0.95728
281.8,33.87207,0.40761,-0.40066,0.95697
282.4,33.92972,0.41091,-0.40598,0.95666
283.0,33.98701,0.41385,-0.41309,0.95635
283.6,34.04436,0.41809,-0.41934,0.95605
284.2,34.1017,0.42069,-0.42717,0.95574
284.8,34.159,0.42303,-0.43401,0.95543
285.4,34.21638,0.42298,-0.44141,0.95512
286.0,34.27401,0.42922,-0.44739,0.95481
286.6,34.33184,0.43154,-0.45615,0.95451
287.2,34.3897,0.434,-0.46446,0.9542
287.8,34.4475,0.43782,-0.47207,0.95389
288.4,34.50506,0.44291,-0.48086,0.95358
289.0,34.56266,0.44527,-0.4897,0.95327
289.6,34.62023,0.44917,-0.49718,0.95296
290.2,34.678,0.45428,-0.50503,0.95265
290.8,34.73587,0.4569,-0.51247,0.95235
291.4,34.79337,0.46202,-0.51814,0.95204
292.0,34.85086,0.46409,-0.52384,0.95173
292.6,34.90822,0.46823,-0.53056,0.95142
293.2,34.9657,0.472,-0.5391,0.95111
293.8,35.02325,0.47542,-0.54947,0.9508
294.4,35.0807,0.47951,-0.55854,0.95049
295.0,35.138,0.48142,-0.56529,0.95018
295.6,35.1953,0.48528,-0.57136,0.94987
296.2,35.25268,0.48986,-0.57951,0.94956
296.8,35.3101,0.49152,-0.58982,0.94925
297.4,35.36752,0.49384,-0.60283,0.94894
298.0,35.4251,0.5013,-0.61519,0.94863
298.6,35.48259,0.50371,-0.62656,0.94832
299.2,35.54017,0.50894,-0.63731,0.94801
299.8,35.5978,0.51186,-0.6493,0.9477
300.4,35.6552,0.51323,-0.65795,0.94739
301.0,35.7127,0.51723,-0.6706,0.94708
301.6,35.77022,0.51976,-0.6826,0.94677
302.2,35.82776,0.52488,-0.69407,0.94646
302.8,35.88539,0.52759,-0.70502,0.94615
303.4,35.94283,0.53359,-0.71822,0.94584
304.0,36.0004,0.53622,-0.73107,0.94553
304.6,36.05792,0.53958,-0.74288,0.94522
305.2,36.11555,0.54227,-0.75213,0.94491
305.8,36.17305,0.54617,-0.76513,0.94459
306.4,36.23049,0.54844,-0.77719,0.94428
307.0,36.2881,0.55126,-0.78939,0.94397
307.6,36.3459,0.55561,-0.80316,0.94366
308.2,36.4035,0.55729,-0.81583,0.94335
308.8,36.46113,0.5604,-0.82795,0.94304
309.4,36.51862,0.56567,-0.84142,0.94272
310.0,36.57607,0.56855,-0.85391,0.94241
310.6,36.63366,0.57064,-0.86798,0.9421
311.2,36.6909,0.57173,-0.88153,0.94179
311.8,36.74853,0.57618,-0.89512,0.94147
312.4,36.80642,0.57996,-0.90711,0.94116
313.0,36.86459,0.57959,-0.92349,0.94085
313.6,36.92269,0.58376,-0.9371,0.94054
314.2,36.98048,0.58919,-0.95005,0.94022
314.8,37.03828,0.5886,-0.96458,0.93991
315.4,37.09615,0.5923,-0.98039,0.9396
316.0,37.15405,0.59698,-0.99454,0.93928
316.6,37.2119,0.60094,-1.01018,0.93897
317.2,37.2699,0.60061,-1.02543,0.93866
317.8,37.32793,0.60383,-1.04029,0.93834
318.4,37.3859,0.6086,-1.05618,0.93803
319.0,37.44402,0.60937,-1.07007,0.93772
319.6,37.50206,0.61226,-1.08652,0.9374
320.2,37.56029,0.61572,-1.10256,0.93709
320.8,37.6184,0.61983,-1.11711,0.93677
321.4,37.67654,0.62303,-1.13475,0.93646
322.0,37.73457,0.6262,-1.14947,0.93614
322.6,37.79226,0.63103,-1.16541,0.93583
323.2,37.85014,0.63413,-1.18225,0.93551
323.8,37.90789,0.63763,-1.19915,0.9352
324.4,37.96539,0.64087,-1.21514,0.93488
325.0,38.0232,0.64794,-1.23371,0.93457
325.6,38.0809,0.65273,-1.25087,0.93425
326.2,38.1387,0.65427,-1.26792,0.93394
326.8,38.19685,0.65873,-1.2867,0.93362
327.4,38.25468,0.66465,-1.30355,0.93331
328.0,38.31266,0.67227,-1.32354,0.93299
328.6,38.3705,0.67268,-1.33998,0.93268
329.2,38.42872,0.68243,-1.35799,0.93236
329.8,38.48687,0.6841,-1.37553,0.93204
330.4,38.5449,0.68996,-1.39612,0.93173
331.0,38.60289,0.69745,-1.41653,0.93141
331.6,38.66064,0.69957,-1.43599,0.93109
332.2,38.71846,0.7088,-1.45613,0.93078
332.8,38.77632,0.71495,-1.47512,0.93046
333.4,38.83429,0.71849,-1.49512,0.93014
334.0,38.8921,0.72601,-1.51488,0.92983
334.6,38.94989,0.73116,-1.53617,0.92951
335.2,39.00758,0.7401,-1.55619,0.92919
335.8,39.0658,0.74679,-1.57873,0.92887
336.4,39.12373,0.75306,-1.59943,0.92855
337.0,39.18164,0.7617,-1.62112,0.92824
337.6,39.23969,0.76942,-1.64273,0.92792
338.2,39.29772,0.77474,-1.66527,0.9276
338.8,39.35567,0.78079,-1.68857,0.92728
339.4,39.41389,0.78737,-1.70945,0.92696
340.0,39.47202,0.79441,-1.73402,0.92664
340.6,39.53017,0.79772,-1.75746,0.92633
341.2,39.5884,0.80609,-1.78133,0.92601
341.8,39.64671,0.81189,-1.80442,0.92569
342.4,39.7048,0.8163,-1.82848,0.92537
343.0,39.763,0.82086,-1.85427,0.92505
343.6,39.82115,0.82584,-1.88108,0.92473
344.2,39.87923,0.82906,-1.9045,0.92441
344.8,39.9373,0.83472,-1.92726,0.92409
345.4,39.99548,0.83769,-1.95325,0.92377
346.0,40.0537,0.83994,-1.9775,0.92345
346.6,40.1119,0.84156,-2.00401,0.92313
347.2,40.1698,0.84319,-2.02779,0.92281
347.8,40.22781,0.84385,-2.05552,0.92249
348.4,40.2855,0.84103,-2.07922,0.92217
349.0,40.34339,0.84186,-2.10637,0.92184
349.6,40.4016,0.83698,-2.13231,0.92152
350.2,40.4595,0.83547,-2.15607,0.9212
350.8,40.51783,0.83027,-2.18237,0.92088
351.4,40.57589,0.82215,-2.20648,0.92056
352.0,40.63384,0.81343,-2.23136,0.92024
352.6,40.69181,0.80322,-2.2563,0.91991
353.2,40.74972,0.79575,-2.28225,0.91959
353.8,40.8077,0.78266,-2.30621,0.91927
354.4,40.86554,0.76508,-2.32911,0.91895
355.0,40.92351,0.75097,-2.35118,0.91862
355.6,40.98134,0.73567,-2.37426,0.9183
356.2,41.03925,0.71535,-2.39579,0.91798
356.8,41.09717,0.69676,-2.41815,0.91766
357.4,41.15509,0.67785,-2.43914,0.91733
358.0,41.21315,0.65467,-2.4589,0.91701
358.6,41.27112,0.63394,-2.47855,0.91668
359.2,41.32904,0.61135,-2.49707,0.91636
359.8,41.38695,0.5879,-2.51519,0.91604
360.4,41.44475,0.56466,-2.5337,0.91571
361.0,41.50277,0.53981,-2.55097,0.91539
361.6,41.56065,0.51363,-2.56555,0.91506
362.2,41.61844,0.49257,-2.58078,0.91474
362.8,41.67642,0.46644,-2.5962,0.91441
363.4,41.73449,0.44469,-2.60907,0.91409
364.0,41.79238,0.41956,-2.62162,0.91376
364.6,41.85031,0.39624,-2.63313,0.91344
365.2,41.90808,0.37251,-2.6472,0.91311
365.8,41.96582,0.34886,-2.65686,0.91279
366.4,42.0238,0.32678,-2.66688,0.91246
367.0,42.08168,0.30594,-2.67678,0.91213
367.6,42.1396,0.28313,-2.6857,0.91181
368.2,42.1976,0.26404,-2.69308,0.91148
368.8,42.25545,0.24415,-2.70031,0.91115
369.4,42.31343,0.22496,-2.70487,0.91083
370.0,42.37138,0.20951,-2.71276,0.9105
370.6,42.4294,0.19128,-2.71782,0.91017
371.2,42.48737,0.18173,-2.72187,0.90985
371.8,42.54537,0.16384,-2.72792,0.90952
372.4,42.60331,0.15235,-2.7318,0.90919
373.0,42.6611,0.14007,-2.73579,0.90886
373.6,42.71915,0.13227,-2.73973,0.90853
374.2,42.77711,0.12203,-2.74358,0.9082
374.8,42.83529,0.11334,-2.74652,0.90788
375.4,42.89363,0.10722,-2.74917,0.90755
376.0,42.95197,0.09964516,-2.7515,0.90722
376.6,43.0103,0.09434953,-2.75358,0.90689
377.2,43.06862,0.08894712,-2.75664,0.90656
377.8,43.12706,0.08337143,-2.75696,0.90623
378.4,43.18528,0.08038771,-2.75885,0.9059
379.0,43.24367,0.07601127,-2.76114,0.90557
379.6,43.30186,0.07399974,-2.76245,0.90524
380.2,43.36026,0.07230856,-2.76551,0.90491
380.8,43.4187,0.070106,-2.76651,0.90458
381.4,43.47719,0.06562036,-2.76998,0.90425
382.0,43.53589,0.06527194,-2.77188,0.90392
382.6,43.5944,0.06420744,-2.77386,0.90359
383.2,43.653,0.06108877,-2.77457,0.90325
383.8,43.71141,0.06046583,-2.77602,0.90292
384.4,43.76988,0.05788184,-2.7772,0.90259
385.0,43.82837,0.057759,-2.7792,0.90226
385.6,43.88675,0.05442333,-2.78054,0.90193
386.2,43.94528,0.05281914,-2.78187,0.90159
386.8,44.00375,0.05248097,-2.78315,0.90126
387.4,44.0625,0.0535052,-2.7861,0.90093
388.0,44.1212,0.05081828,-2.78876,0.9006
388.6,44.17986,0.0528795,-2.79166,0.90026
389.2,44.23853,0.05223534,-2.79295,0.89993
389.8,44.29698,0.04835844,-2.7924,0.8996
390.4,44.3554,0.04855765,-2.79553,0.89926
391.0,44.41383,0.04791212,-2.79689,0.89893
391.6,44.4724,0.04606276,-2.79897,0.89859
392.2,44.53102,0.04412076,-2.79883,0.89826
392.8,44.58935,0.04544476,-2.80095,0.89792
393.4,44.64793,0.04528861,-2.80226,0.89759
394.0,44.70643,0.0443471,-2.8036,0.89725
394.6,44.76488,0.04349739,-2.80497,0.89692
395.2,44.82326,0.04142607,-2.80829,0.89658
395.8,44.88158,0.04275607,-2.8103,0.89625
396.4,44.94003,0.03871538,-2.81157,0.89591
397.0,44.9986,0.03889055,-2.8129,0.89558
397.6,45.05733,0.03870676,-2.81413,0.89524
398.2,45.1158,0.03994461,-2.81681,0.8949
398.8,45.1744,0.03795867,-2.81815,0.89457
399.4,45.23307,0.03650755,-2.81912,0.89423
400.0,45.29168,0.03615439,-2.81982,0.89389
400.6,45.35026,0.03721207,-2.82169,0.89355
401.2,45.4087,0.03434488,-2.82503,0.89322
401.8,45.46723,0.03464481,-2.82671,0.89288
402.4,45.52579,0.03312727,-2.82675,0.89254
403.0,45.58436,0.03404409,-2.8283,0.8922
403.6,45.64304,0.03270685,-2.83174,0.89186
404.2,45.70166,0.03475258,-2.83045,0.89152
404.8,45.76019,0.03266766,-2.83302,0.89118
405.4,45.8189,0.03230977,-2.83429,0.89085
406.0,45.87746,0.02979342,-2.83564,0.89051
406.6,45.93623,0.03125129,-2.83808,0.89017
407.2,45.99475,0.03199403,-2.83963,0.88983
407.8,46.0534,0.02920346,-2.84111,0.88949
408.4,46.11223,0.02847509,-2.84238,0.88915
409.0,46.17096,0.02788979,-2.84504,0.88881
409.6,46.22975,0.02615939,-2.84637,0.88846
410.2,46.2884,0.02671529,-2.84908,0.88812
410.8,46.34697,0.02633704,-2.84911,0.88778
411.4,46.40551,0.02530896,-2.85039,0.88744
412.0,46.4642,0.0229706,-2.85134,0.8871
412.6,46.52274,0.02265176,-2.85374,0.88676
413.2,46.58149,0.02510091,-2.85585,0.88641
413.8,46.6402,0.0246963,-2.85653,0.88607
414.4,46.6988,0.0237365,-2.85786,0.88573
415.0,46.7574,0.02510079,-2.85939,0.88539
415.6,46.81599,0.0239829,-2.86187,0.88504
416.2,46.87454,0.02412552,-2.86312,0.8847
416.8,46.93316,0.02286232,-2.86442,0.88436
417.4,46.9916,0.02257259,-2.86578,0.88401
418.0,47.05016,0.02291254,-2.86775,0.88367
418.6,47.10865,0.02378366,-2.86676,0.88332
419.2,47.16727,0.02342565,-2.86806,0.88298
419.8,47.2259,0.02346862,-2.86938,0.88263
420.4,47.28433,0.02419713,-2.87066,0.88229
421.0,47.3428,0.02200652,-2.87333,0.88194
421.6,47.40106,0.02421998,-2.87604,0.8816
422.2,47.4596,0.02333927,-2.87731,0.88125
422.8,47.51827,0.0274602,-2.87985,0.88091
423.4,47.57683,0.02488697,-2.88125,0.88056
424.0,47.63539,0.02762393,-2.88237,0.88021
424.6,47.6938,0.02504819,-2.88378,0.87987
425.2,47.7521,0.02621111,-2.88516,0.87952
425.8,47.8108,0.02516127,-2.88518,0.87917
426.4,47.86943,0.02732063,-2.8875,0.87882
427.0,47.9282,0.02544614,-2.88913,0.87848
427.6,47.987,0.02733432,-2.8899,0.87813
428.2,48.0456,0.0266616,-2.89182,0.87778
428.8,48.10434,0.02723195,-2.89206,0.87743
429.4,48.16319,0.02871028,-2.89365,0.87708
430.0,48.22188,0.02846819,-2.89474,0.87673
430.6,48.28051,0.03045646,-2.89833,0.87638
431.2,48.33943,0.02767568,-2.89988,0.87604
431.8,48.39824,0.02889269,-2.90046,0.87569
432.4,48.45689,0.02925164,-2.90053,0.87534
433.0,48.51567,0.0315565,-2.90328,0.87499
433.6,48.57436,0.031287,-2.90236,0.87463
434.2,48.63324,0.03121031,-2.90362,0.87428
434.8,48.69249,0.03062143,-2.90517,0.87393
435.4,48.7516,0.03040014,-2.90603,0.87358
436.0,48.8106,0.03203726,-2.90895,0.87323
436.6,48.86952,0.03058095,-2.91019,0.87288
437.2,48.92845,0.03084248,-2.91019,0.87253
437.8,48.9873,0.03338719,-2.91151,0.87217
438.4,49.04622,0.03276447,-2.91269,0.87182
439.0,49.10516,0.03448458,-2.91422,0.87147
439.6,49.1642,0.03370115,-2.91421,0.87112
440.2,49.22325,0.03363615,-2.91566,0.87076
440.8,49.28222,0.03583939,-2.91702,0.87041
441.4,49.34114,0.03866221,-2.91945,0.87005
442.0,49.40012,0.03607204,-2.92073,0.8697
442.6,49.45912,0.03686848,-2.92203,0.86935
443.2,49.51805,0.03820557,-2.92204,0.86899
443.8,49.57703,0.03667712,-2.92334,0.86864
444.4,49.6361,0.0385651,-2.92329,0.86828
445.0,49.69505,0.03748484,-2.92533,0.86793
445.6,49.7543,0.03905388,-2.92666,0.86757
446.2,49.81328,0.03815448,-2.92698,0.86721
446.8,49.87235,0.03809299,-2.92729,0.86686
447.4,49.9316,0.03951769,-2.92937,0.8665
448.0,49.99071,0.03918311,-2.93037,0.86614
448.6,50.04984,0.03944037,-2.9306,0.86579
449.2,50.10902,0.0361729,-2.93322,0.86543
449.8,50.1683,0.0375406,-2.93454,0.86507
450.4,50.22743,0.0417673,-2.93579,0.86472
451.0,50.28647,0.04180086,-2.93587,0.86436
451.6,50.34558,0.03952772,-2.9373,0.864
452.2,50.4046,0.03671638,-2.93849,0.86364
452.8,50.46349,0.03891121,-2.93951,0.86328
453.4,50.52244,0.04180051,-2.93876,0.86292
454.0,50.58141,0.04157865,-2.94119,0.86256
454.6,50.64036,0.04207181,-2.94252,0.8622
455.2,50.6992,0.04293383,-2.94244,0.86184
455.8,50.75829,0.04137389,-2.94376,0.86148
456.4,50.8172,0.04316909,-2.94507,0.86112
457.0,50.87603,0.04065429,-2.94645,0.86076
457.6,50.93496,0.04207154,-2.94629,0.8604
458.2,50.994,0.0406556,-2.94772,0.86004
458.8,51.05285,0.04344762,-2.9497,0.85968
459.4,51.1118,0.04326978,-2.951,0.85932
460.0,51.17086,0.04440542,-2.95165,0.85895
460.6,51.22972,0.04507669,-2.95203,0.85859
461.2,51.2889,0.04216904,-2.95296,0.85823
461.8,51.348,0.04300647,-2.95353,0.85786
462.4,51.40684,0.04562859,-2.95428,0.8575
463.0,51.46591,0.04558328,-2.95431,0.85714
463.6,51.52487,0.04484262,-2.9556,0.85677
464.2,51.5839,0.0471358,-2.95701,0.85641
464.8,51.64291,0.04648525,-2.95763,0.85605
465.4,51.7021,0.04841985,-2.95823,0.85568
466.0,51.76123,0.04741274,-2.95691,0.85532
466.6,51.82043,0.04848893,-2.95823,0.85495
467.2,51.87958,0.04715696,-2.95955,0.85458
467.8,51.93888,0.04872386,-2.96021,0.85422
468.4,51.99815,0.04860945,-2.96152,0.85385
469.0,52.05734,0.04756711,-2.96172,0.85349
469.6,52.1166,0.04924923,-2.96198,0.85312
470.2,52.17584,0.04672801,-2.96347,0.85275
470.8,52.23503,0.04887337,-2.9649,0.85239
471.4,52.2943,0.04628652,-2.96613,0.85202
472.0,52.35347,0.04873518,-2.96778,0.85165
472.6,52.4127,0.04647415,-2.9681,0.85128
473.2,52.47181,0.04873793,-2.9694,0.85091
473.8,52.53106,0.0468431,-2.96942,0.85055
474.4,52.5906,0.04789368,-2.96943,0.85018
475.0,52.65,0.0499491,-2.97074,0.84981
475.6,52.7093,0.04831443,-2.97239,0.84944
476.2,52.76846,0.04698569,-2.9734,0.84907
476.8,52.8278,0.05154739,-2.97271,0.8487
477.4,52.8872,0.04946048,-2.97402,0.84833
478.0,52.9467,0.05177254,-2.97402,0.84796
478.6,53.00615,0.05165132,-2.97533,0.84759
479.2,53.0656,0.05140553,-2.97666,0.84721
479.8,53.12469,0.04961821,-2.97665,0.84684
480.4,53.184,0.04853953,-2.97797,0.84647
481.0,53.2433,0.04925861,-2.97926,0.8461
481.6,53.3026,0.05193366,-2.97966,0.84573
482.2,53.36185,0.05262724,-2.98066,0.84535
482.8,53.4211,0.05170643,-2.9806,0.84498
483.4,53.4805,0.05081621,-2.98192,0.84461
484.0,53.5394,0.04946747,-2.98191,0.84423
484.6,53.59875,0.05044537,-2.98259,0.84386
485.2,53.6579,0.04999401,-2.98259,0.84348
485.8,53.71695,0.0502322,-2.98381,0.84311
486.4,53.77658,0.05299195,-2.9839,0.84274
487.0,53.83569,0.05263162,-2.98522,0.84236
487.6,53.89473,0.05275614,-2.98516,0.84198
488.2,53.95385,0.05398249,-2.98636,0.84161
488.8,54.0129,0.05245914,-2.9865,0.84123
489.4,54.072,0.05508423,-2.98784,0.84086
490.0,54.1312,0.05759708,-2.98884,0.84048
490.6,54.19024,0.05799967,-2.98884,0.8401
491.2,54.2493,0.06700522,-2.98884,0.83973
491.8,54.30836,0.07312865,-2.99016,0.83935
492.4,54.36745,0.07293547,-2.99147,0.83897
493.0,54.4268,0.07497361,-2.99138,0.83859
493.6,54.486,0.0751469,-2.99279,0.83821
494.2,54.5454,0.0774324,-2.99279,0.83784
494.8,54.60439,0.080788,-2.99306,0.83746
495.4,54.6636,0.07927838,-2.99313,0.83708
496.0,54.72302,0.08267712,-2.99443,0.8367
496.6,54.7822,0.08544319,-2.99445,0.83632
497.2,54.8418,0.08671864,-2.99575,0.83594
497.8,54.9011,0.09113124,-2.99707,0.83556
498.4,54.96054,0.09135221,-2.99844,0.83518
499.0,55.02,0.09415134,-2.99838,0.83479
499.6,55.07957,0.09287887,-2.99838,0.83441
500.2,55.139,0.09443576,-2.99838,0.83403
500.8,55.19849,0.0936484,-2.9987,0.83365
501.4,55.258,0.09622973,-2.9987,0.83327
502.0,55.3172,0.09378232,-3.00001,0.83288
502.6,55.3766,0.09383661,-3.00114,0.8325
503.2,55.43597,0.09387205,-3.00134,0.83212
503.8,55.4955,0.09667956,-3.00129,0.83173
504.4,55.55483,0.0951159,-3.00265,0.83135
505.0,55.61419,0.09695156,-3.00323,0.83097
505.6,55.67354,0.09607858,-3.0053,0.83058
506.2,55.73305,0.09671729,-3.00647,0.8302
506.8,55.7927,0.09605994,-3.00792,0.82981
507.4,55.85216,0.09758234,-3.00854,0.82943
508.0,55.91174,0.0981803,-3.00923,0.82904
508.6,55.9712,0.09978481,-3.00921,0.82865
509.2,56.03075,0.09979243,-3.00924,0.82827
509.8,56.09046,0.09325047,-3.01058,0.82788
510.4,56.1501,0.08851517,-3.00949,0.82749
511.0,56.20955,0.07980258,-3.00992,0.82711
511.6,56.269,0.07588245,-3.01055,0.82672
512.2,56.32841,0.07070113,-3.01055,0.82633
512.8,56.388,0.06919113,-3.01198,0.82594
513.4,56.4476,0.0646266,-3.01328,0.82555
514.0,56.50663,0.0626052,-3.01329,0.82517
514.6,56.56605,0.06443669,-3.01199,0.82478
515.2,56.62535,0.06112502,-3.0133,0.82439
515.8,56.68493,0.05952395,-3.0133,0.824
516.4,56.74479,0.05897926,-3.01345,0.82361
517.0,56.80451,0.05810563,-3.01432,0.82322
517.6,56.8642,0.05591231,-3.01508,0.82283
518.2,56.92369,0.05740105,-3.01616,0.82243
518.8,56.98325,0.05669227,-3.01725,0.82204
519.4,57.0426,0.05822834,-3.01725,0.82165
520.0,57.10229,0.05609652,-3.01726,0.82126
520.6,57.16182,0.05712712,-3.01856,0.82087
521.2,57.22135,0.05692111,-3.01988,0.82047
521.8,57.28083,0.05564277,-3.02119,0.82008
522.4,57.3404,0.05688566,-3.01988,0.81969
523.0,57.40011,0.05339386,-3.01856,0.81929
523.6,57.4595,0.05537234,-3.01988,0.8189
524.2,57.5192,0.05523124,-3.01988,0.81851
524.8,57.57878,0.05321631,-3.02119,0.81811
525.4,57.6386,0.05315287,-3.02119,0.81772
526.0,57.69839,0.05165157,-3.0238,0.81732
526.6,57.75818,0.05059979,-3.02383,0.81692
527.2,57.8178,0.04872019,-3.026,0.81653
527.8,57.8776,0.05020163,-3.02493,0.81613
528.4,57.9371,0.05037574,-3.0249,0.81574
529.0,57.9967,0.0490534,-3.02492,0.81534
529.6,58.0563,0.04935323,-3.02492,0.81494
530.2,58.11595,0.04868614,-3.02622,0.81454
530.8,58.17567,0.04832799,-3.02755,0.81415
531.4,58.2355,0.04863644,-3.02616,0.81375
532.0,58.2953,0.0450448,-3.02623,0.81335
532.6,58.3552,0.043573,-3.02623,0.81295
533.2,58.41494,0.04182586,-3.02618,0.81255
533.8,58.47485,0.03955639,-3.02753,0.81215
534.4,58.53468,0.03843525,-3.02987,0.81175
535.0,58.5945,0.03492452,-3.03018,0.81135
535.6,58.65424,0.03250098,-3.03159,0.81095
536.2,58.71388,0.03544911,-3.03287,0.81055
536.8,58.7738,0.02887706,-3.03282,0.81015
537.4,58.83359,0.03107338,-3.0329,0.80975
538.0,58.89335,0.02817231,-3.03287,0.80935
538.6,58.9527,0.02548561,-3.03282,0.80895
539.2,59.0123,0.02514898,-3.03378,0.80854
539.8,59.07198,0.02349874,-3.03393,0.80814
540.4,59.132,0.02213426,-3.03512,0.80774
541.0,59.1918,0.01984414,-3.03378,0.80733
541.6,59.2514,0.02019808,-3.03512,0.80693
542.2,59.311,0.01633799,-3.03512,0.80653
542.8,59.3705,0.01429095,-3.03642,0.80612
543.4,59.4301,0.01285495,-3.03508,0.80572
544.0,59.48973,0.01289615,-3.03512,0.80531
544.6,59.5495,0.01013696,-3.03482,0.80491
545.2,59.60932,0.006650952,-3.03512,0.8045
545.8,59.6691,0.007604063,-3.03512,0.8041
546.4,59.72875,0.004570478,-3.03643,0.80369
547.0,59.7883,0.00688152,-3.03775,0.80328
547.6,59.84779,0.001100983,-3.038,0.80288
548.2,59.90759,0.00161484,-3.03809,0.80247
548.8,59.9674,-0.002163965,-3.0394,0.80206
549.4,60.02711,-0.003027739,-3.03943,0.80165
550.0,60.08668,-0.00532537,-3.03908,0.80125
550.6,60.14626,-0.007380289,-3.04263,0.80084
551.2,60.2061,-0.007178058,-3.04103,0.80043
551.8,60.2661,-0.00945424,-3.04027,0.80002
552.4,60.32577,-0.009585348,-3.04143,0.79961
553.0,60.3854,-0.009880743,-3.04061,0.7992
553.6,60.445,-0.01635694,-3.04061,0.79879
554.2,60.50484,-0.01494556,-3.04051,0.79838
554.8,60.56476,-0.01356172,-3.04195,0.79797
555.4,60.62463,-0.01367333,-3.04291,0.79756
556.0,60.6846,-0.01642632,-3.04291,0.79714
556.6,60.74445,-0.01703046,-3.04292,0.79673
557.2,60.8045,-0.0197132,-3.04314,0.79632
557.8,60.86455,-0.02115292,-3.04423,0.79591
558.4,60.9244,-0.02302875,-3.04431,0.79549
559.0,60.98431,-0.0213622,-3.04454,0.79508
559.6,61.0441,-0.01948204,-3.04454,0.79467
560.2,61.1041,-0.02099546,-3.04587,0.79425
560.8,61.1639,-0.0233065,-3.04623,0.79384
561.4,61.22379,-0.02251842,-3.04761,0.79343
562.0,61.2837,-0.02363386,-3.04752,0.79301
562.6,61.3433,-0.02390561,-3.04751,0.7926
563.2,61.40348,-0.02536308,-3.04883,0.79218
563.8,61.46335,-0.02514625,-3.04983,0.79176
564.4,61.5233,-0.02672826,-3.05014,0.79135
565.0,61.5832,-0.0244154,-3.05146,0.79093
565.6,61.6432,-0.02492591,-3.05144,0.79051
566.2,61.70304,-0.02197553,-3.0508,0.7901
566.8,61.76288,-0.02557068,-3.05144,0.78968
567.4,61.8226,-0.02707514,-3.0521,0.78926
568.0,61.88244,-0.02864381,-3.05354,0.78884
568.6,61.9421,-0.02593472,-3.05345,0.78843
569.2,62.00193,-0.02737221,-3.05487,0.78801
569.8,62.0616,-0.0278416,-3.05586,0.78759
570.4,62.1215,-0.02754116,-3.05591,0.78717
571.0,62.18127,-0.02564751,-3.05571,0.78675
571.6,62.24125,-0.02841009,-3.05651,0.78633
572.2,62.3013,-0.02853776,-3.05618,0.78591
572.8,62.36121,-0.02525107,-3.05734,0.78549
573.4,62.4208,-0.02719761,-3.05619,0.78506
574.0,62.48085,-0.0265814,-3.05619,0.78464
574.6,62.5408,-0.02828111,-3.05748,0.78422
575.2,62.60096,-0.0274828,-3.0575,0.7838
575.8,62.6611,-0.0284892,-3.05879,0.78338
576.4,62.7213,-0.02628507,-3.05816,0.78295
577.0,62.7811,-0.02943353,-3.05816,0.78253
577.6,62.84114,-0.03019235,-3.05868,0.78211
578.2,62.90132,-0.02923076,-3.05947,0.78168
578.8,62.96153,-0.02691352,-3.05947,0.78126
579.4,63.0221,-0.02861746,-3.05911,0.78083
580.0,63.08209,-0.02901695,-3.06044,0.78041
580.6,63.14213,-0.02997797,-3.06046,0.77998
581.2,63.2023,-0.02872398,-3.06046,0.77956
581.8,63.2623,-0.02770801,-3.06178,0.77913
582.4,63.32218,-0.02690308,-3.06148,0.77871
583.0,63.3822,-0.02703032,-3.06014,0.77828
583.6,63.44214,-0.0256906,-3.06144,0.77785
584.2,63.5021,-0.02523976,-3.06144,0.77743
584.8,63.56214,-0.02581277,-3.06273,0.777
585.4,63.6222,-0.02394802,-3.06394,0.77657
586.0,63.68209,-0.02227975,-3.06409,0.77614
586.6,63.74196,-0.02188353,-3.0654,0.77571
587.2,63.8018,-0.02358658,-3.0654,0.77529
587.8,63.86156,-0.02165748,-3.06625,0.77486
588.4,63.9212,-0.01915981,-3.06618,0.77443
589.0,63.981,-0.01963243,-3.06671,0.774
589.6,64.04064,-0.01871007,-3.06572,0.77357
590.2,64.10039,-0.01780893,-3.06704,0.77314
590.8,64.1601,-0.01653246,-3.06704,0.7727
591.4,64.21986,-0.01511289,-3.06835,0.77227
592.0,64.2796,-0.01447237,-3.06703,0.77184
592.6,64.3395,-0.01339759,-3.0687,0.77141
593.2,64.3992,-0.01385775,-3.06901,0.77098
593.8,64.45876,-0.01126067,-3.06901,0.77054
594.4,64.51831,-0.00784315,-3.06998,0.77011
595.0,64.5779,-0.007601719,-3.06902,0.76968
595.6,64.6378,-0.009839949,-3.06904,0.76925
596.2,64.69718,-0.006031737,-3.07164,0.76881
596.8,64.75695,-0.00370298,-3.07132,0.76838
597.4,64.81679,-0.003699495,-3.07264,0.76794
598.0,64.87697,-0.000511825,-3.07266,0.76751
598.6,64.93685,-0.0006833948,-3.07203,0.76707
599.2,64.9967,0.0003516552,-3.07297,0.76664
599.8,65.05667,-1.86754e-05,-3.07297,0.7662
600.4,65.11672,0.000951042,-3.07427,0.76576
601.0,65.1768,0.00581393,-3.07558,0.76533
601.6,65.23699,0.00666754,-3.0769,0.76489
602.2,65.29715,0.006482012,-3.07558,0.76445
602.8,65.35729,0.00760019,-3.07641,0.76402
603.4,65.4173,0.007890537,-3.07691,0.76358
604.0,65.4774,0.01016572,-3.07691,0.76314
604.6,65.5376,0.01192847,-3.07691,0.7627
605.2,65.59799,0.01215236,-3.07824,0.76226
605.8,65.6584,0.01520621,-3.07722,0.76182
606.4,65.71885,0.01403789,-3.07856,0.76138
607.0,65.7792,0.01855341,-3.07856,0.76094
607.6,65.83963,0.01880072,-3.07958,0.7605
608.2,65.90001,0.02080419,-3.07987,0.76006
608.8,65.96048,0.0225287,-3.08196,0.75962
609.4,66.02093,0.02458555,-3.08251,0.75918
610.0,66.08159,0.02634487,-3.08251,0.75874
610.6,66.14206,0.02236356,-3.08254,0.7583
611.2,66.20262,0.02555465,-3.08256,0.75785
611.8,66.26308,0.0234176,-3.08251,0.75741
612.4,66.32355,0.02754186,-3.08251,0.75697
613.0,66.384,0.0285421,-3.08375,0.75652
613.6,66.44431,0.03022799,-3.08384,0.75608
614.2,66.5046,0.03200071,-3.08514,0.75564
614.8,66.5649,0.03541123,-3.08608,0.75519
615.4,66.62523,0.03571528,-3.08645,0.75475
616.0,66.68564,0.03463236,-3.08682,0.7543
616.6,66.746,0.03722501,-3.08778,0.75386
617.2,66.80626,0.03584759,-3.0881,0.75341
617.8,66.8665,0.03694989,-3.08679,0.75297
618.4,66.92659,0.035238,-3.08752,0.75252
619.0,66.9868,0.03709519,-3.0881,0.75207
619.6,67.04715,0.04116748,-3.08941,0.75163
620.2,67.10732,0.03904603,-3.09066,0.75118
620.8,67.16747,0.04153165,-3.09073,0.75073
621.4,67.22751,0.04486309,-3.09073,0.75028
622.0,67.28769,0.0418795,-3.09073,0.74984
622.6,67.34796,0.04464064,-3.092,0.74939
623.2,67.4084,0.04974619,-3.09113,0.74894
623.8,67.46879,0.05175611,-3.09039,0.74849
624.4,67.52903,0.05281077,-3.09172,0.74804
625.0,67.58938,0.05359757,-3.09304,0.74759
625.6,67.64939,0.05414821,-3.09373,0.74714
626.2,67.7097,0.05695454,-3.09534,0.74669
626.8,67.7699,0.05927529,-3.09403,0.74624
627.4,67.83,0.05986068,-3.09509,0.74579
628.0,67.89,0.06327201,-3.09569,0.74533
628.6,67.94986,0.0626114,-3.09694,0.74488
629.2,68.0098,0.06321889,-3.09699,0.74443
629.8,68.0698,0.06199477,-3.09802,0.74398
630.4,68.1303,0.06553082,-3.0983,0.74352
631.0,68.1905,0.06835057,-3.09966,0.74307
631.6,68.25076,0.06902645,-3.10093,0.74262
632.2,68.3109,0.0724601,-3.10225,0.74216
632.8,68.37097,0.07774482,-3.10226,0.74171
633.4,68.43115,0.07644013,-3.10356,0.74125
634.0,68.49133,0.07833366,-3.10411,0.7408
634.6,68.5516,0.07994858,-3.10357,0.74034
635.2,68.61165,0.08311272,-3.1041,0.73989
635.8,68.67194,0.08581418,-3.10356,0.73943
636.4,68.73221,0.0887699,-3.10514,0.73898
637.0,68.79275,0.09269904,-3.1072,0.73852
637.6,68.85322,0.09517144,-3.10738,0.73806
638.2,68.9136,0.09967356,-3.1085,0.73761
638.8,68.9739,0.09948906,-3.1085,0.73715
639.4,69.03415,0.10051,-3.1098,0.73669
640.0,69.09464,0.10409,-3.11054,0.73623
640.6,69.155,0.10726,-3.11056,0.73577
641.2,69.21557,0.11063,-3.11113,0.73531
641.8,69.27583,0.10935,-3.11245,0.73486
642.4,69.3361,0.11468,-3.11245,0.7344
643.0,69.3964,0.1167,-3.11376,0.73394
643.6,69.4568,0.12038,-3.11376,0.73348
644.2,69.51716,0.12356,-3.115,0.73301
644.8,69.57759,0.12542,-3.11505,0.73255
645.4,69.6378,0.12957,-3.11574,0.73209
646.0,69.69805,0.13279,-3.11701,0.73163
646.6,69.75834,0.13631,-3.11732,0.73117
647.2,69.81877,0.13789,-3.11837,0.73071
647.8,69.87918,0.13974,-3.11837,0.73024
648.4,69.93949,0.1454,-3.12015,0.72978
649.0,69.99972,0.14582,-3.12111,0.72932
649.6,70.06,0.149,-3.12243,0.72886
650.2,70.12029,0.15367,-3.12349,0.72839
650.8,70.18095,0.15791,-3.12372,0.72793
651.4,70.24129,0.15906,-3.12514,0.72746
652.0,70.30158,0.16318,-3.12573,0.727
652.6,70.3617,0.16695,-3.12593,0.72653
653.2,70.42174,0.17035,-3.12704,0.72607
653.8,70.482,0.17105,-3.12836,0.7256
654.4,70.54214,0.17523,-3.12708,0.72514
655.0,70.6022,0.1776,-3.12989,0.72467
655.6,70.66249,0.17884,-3.13111,0.7242
656.2,70.72261,0.18234,-3.1311,0.72374
656.8,70.78296,0.18528,-3.1324,0.72327
657.4,70.8431,0.18479,-3.13237,0.7228
658.0,70.90331,0.18739,-3.13377,0.72233
658.6,70.96359,0.18671,-3.13497,0.72187
659.2,71.0241,0.19038,-3.13636,0.7214
659.8,71.08447,0.19011,-3.13777,0.72093
660.4,71.14487,0.19353,-3.13767,0.72046
661.0,71.20514,0.1954,-3.13899,0.71999
661.6,71.26512,0.19428,-3.1396,0.71952
662.2,71.3254,0.19657,-3.14097,0.71905
662.8,71.38584,0.20062,-3.14228,0.71858
663.4,71.44675,0.20025,-3.14365,0.71811
664.0,71.50775,0.19918,-3.14354,0.71764
664.6,71.56859,0.20525,-3.14492,0.71716
665.2,71.6294,0.19883,-3.14623,0.71669
665.8,71.69032,0.20043,-3.14755,0.71622
666.4,71.7513,0.20237,-3.1503,0.71575
667.0,71.81217,0.19953,-3.15112,0.71528
667.6,71.87308,0.20213,-3.15116,0.7148
668.2,71.93383,0.19954,-3.15148,0.71433
668.8,71.99444,0.20045,-3.15184,0.71386
669.4,72.05516,0.20008,-3.15295,0.71338
670.0,72.11542,0.19892,-3.1531,0.71291
670.6,72.17583,0.19947,-3.15442,0.71243
671.2,72.23625,0.19988,-3.15578,0.71196
671.8,72.29685,0.19601,-3.15668,0.71148
672.4,72.35758,0.19587,-3.15675,0.71101
673.0,72.4183,0.1962,-3.15742,0.71053
673.6,72.479,0.19424,-3.15874,0.71006
674.2,72.53953,0.19517,-3.15943,0.70958
674.8,72.60014,0.19278,-3.16006,0.7091
675.4,72.66072,0.19379,-3.16141,0.70862
676.0,72.7213,0.19524,-3.16221,0.70815
676.6,72.7816,0.19601,-3.16269,0.70767
677.2,72.84228,0.19448,-3.16397,0.70719
677.8,72.90285,0.19042,-3.16532,0.70671
678.4,72.96361,0.18796,-3.16674,0.70623
679.0,73.02457,0.19003,-3.16664,0.70576
679.6,73.08525,0.18338,-3.16796,0.70528
680.2,73.14591,0.18139,-3.16927,0.7048
680.8,73.20642,0.17973,-3.16988,0.70432
681.4,73.26701,0.17348,-3.16993,0.70384
682.0,73.3275,0.17055,-3.16997,0.70336
682.6,73.38805,0.16671,-3.1712,0.70288
683.2,73.44866,0.16598,-3.17252,0.70239
683.8,73.50935,0.15925,-3.17387,0.70191
684.4,73.57001,0.15616,-3.17519,0.70143
685.0,73.6306,0.14841,-3.17498,0.70095
685.6,73.69123,0.14181,-3.17552,0.70047
686.2,73.75184,0.13705,-3.17683,0.69998
686.8,73.8124,0.13032,-3.17816,0.6995
687.4,73.87308,0.12498,-3.17817,0.69902
688.0,73.93364,0.1201,-3.17947,0.69853
688.6,73.9944,0.11572,-3.17975,0.69805
689.2,74.05524,0.11404,-3.18078,0.69757
689.8,74.116,0.10643,-3.1821,0.69708
690.4,74.17674,0.10359,-3.18211,0.6966
691.0,74.2375,0.10459,-3.18308,0.69611
691.6,74.29819,0.09718099,-3.18277,0.69563
692.2,74.35916,0.09877766,-3.18309,0.69514
692.8,74.41963,0.0986414,-3.18312,0.69465
693.4,74.4804,0.09367696,-3.18441,0.69417
694.0,74.54072,0.09362588,-3.18439,0.69368
694.6,74.6016,0.09211563,-3.18532,0.69319
695.2,74.6623,0.0900256,-3.18696,0.69271
695.8,74.72318,0.0907814,-3.18802,0.69222
696.4,74.78381,0.08990533,-3.18675,0.69173
697.0,74.8444,0.08518997,-3.18803,0.69124
697.6,74.90513,0.08871387,-3.18934,0.69076
698.2,74.9659,0.08439333,-3.18803,0.69027
698.8,75.02639,0.08548284,-3.18932,0.68978
699.4,75.0869,0.08591267,-3.18926,0.68929
700.0,75.14743,0.08595952,-3.192,0.6888
700.6,75.2079,0.08442487,-3.19199,0.68831
701.2,75.26845,0.08471232,-3.19329,0.68782
701.8,75.32881,0.08826086,-3.19425,0.68733
702.4,75.389,0.08523226,-3.19362,0.68684
703.0,75.44918,0.08642398,-3.19395,0.68635
703.6,75.5095,0.08362724,-3.19493,0.68586
704.2,75.56975,0.08570814,-3.19492,0.68536
704.8,75.63009,0.08609388,-3.19592,0.68487
705.4,75.69049,0.08727295,-3.19592,0.68438
706.0,75.75071,0.08730101,-3.19723,0.68389
706.6,75.8109,0.08735553,-3.19724,0.68339
707.2,75.87137,0.08670999,-3.19724,0.6829
707.8,75.932,0.08683844,-3.19724,0.68241
708.4,75.99249,0.08645064,-3.19855,0.68191
709.0,76.05271,0.08819275,-3.19976,0.68142
709.6,76.11328,0.08941055,-3.20084,0.68093
710.2,76.1739,0.08867072,-3.20085,0.68043
710.8,76.2351,0.08854739,-3.20084,0.67994
711.4,76.2957,0.08839515,-3.20082,0.67944
712.0,76.35625,0.09227594,-3.20119,0.67895
712.6,76.41705,0.09001261,-3.20255,0.67845
713.2,76.4777,0.0884791,-3.20251,0.67796
713.8,76.53845,0.0903691,-3.20382,0.67746
714.4,76.5993,0.08682108,-3.20382,0.67696
715.0,76.66011,0.09313587,-3.2038,0.67647
715.6,76.7209,0.08607858,-3.20514,0.67597
716.2,76.78153,0.08839384,-3.20629,0.67547
716.8,76.84209,0.0865565,-3.20646,0.67497
717.4,76.9028,0.09053112,-3.20646,0.67448
718.0,76.96356,0.09047847,-3.20646,0.67398
718.6,77.02423,0.09239127,-3.20791,0.67348
719.2,77.08482,0.08827657,-3.20842,0.67298
719.8,77.14559,0.08959777,-3.20971,0.67248
720.4,77.2064,0.09052801,-3.20974,0.67198
721.0,77.26727,0.09140167,-3.21108,0.67148
721.6,77.3281,0.09385161,-3.20974,0.67098
722.2,77.38877,0.08870847,-3.20974,0.67048
722.8,77.44938,0.09080208,-3.20974,0.66998
723.4,77.51011,0.08815537,-3.20974,0.66948
724.0,77.5707,0.08972466,-3.20975,0.66898
724.6,77.6315,0.09017498,-3.21096,0.66848
725.2,77.6921,0.09219163,-3.20974,0.66798
725.8,77.75278,0.09406644,-3.21124,0.66748
726.4,77.8134,0.09459357,-3.21237,0.66697
727.0,77.87402,0.09504604,-3.21235,0.66647
727.6,77.93468,0.09224292,-3.21237,0.66597
728.2,77.9954,0.0987863,-3.21236,0.66547
728.8,78.0562,0.09631777,-3.21369,0.66496
729.4,78.11703,0.09344024,-3.21369,0.66446
730.0,78.17803,0.09847124,-3.21369,0.66396
730.6,78.23886,0.09660738,-3.21369,0.66345
731.2,78.29977,0.09384191,-3.215,0.66295
731.8,78.36069,0.09381005,-3.21502,0.66244
732.4,78.42165,0.09297406,-3.21528,0.66194
733.0,78.48272,0.09363558,-3.21533,0.66143
733.6,78.54369,0.09615773,-3.21535,0.66093
734.2,78.6045,0.09518162,-3.21665,0.66042
734.8,78.6653,0.09355328,-3.21665,0.65992
735.4,78.7261,0.09570639,-3.21665,0.65941
736.0,78.78697,0.09187278,-3.21743,0.6589
736.6,78.84792,0.09221568,-3.21796,0.6584
737.2,78.90864,0.09220375,-3.21796,0.65789
737.8,78.96961,0.09210406,-3.21866,0.65738
738.4,79.03039,0.08897589,-3.21928,0.65688
739.0,79.0912,0.0907699,-3.21896,0.65637
739.6,79.152,0.09050388,-3.22037,0.65586
740.2,79.21282,0.0900608,-3.22027,0.65535
740.8,79.2736,0.09088121,-3.21889,0.65484
741.4,79.33451,0.09149985,-3.21896,0.65433
742.0,79.39525,0.08959016,-3.22028,0.65383
742.6,79.4562,0.08841443,-3.22027,0.65332
743.2,79.51695,0.08852,-3.22027,0.65281
743.8,79.57768,0.08661194,-3.22027,0.6523
744.4,79.63854,0.0867069,-3.22159,0.65179
745.0,79.69929,0.08930049,-3.22159,0.65128
745.6,79.76004,0.08651762,-3.22093,0.65077
746.2,79.82072,0.08690045,-3.22093,0.65026
746.8,79.88129,0.08573865,-3.22223,0.64974
747.4,79.942,0.0874427,-3.2233,0.64923
747.9,79.9927,0.08576111,-3.22324,0.64881