File: 01_Data/House_Wrap/STA/N2/10K_min/House_Wrap_STA_N2_10KData_220726_R1.csv
##Temp./Â°C,Time/min,Mass loss(subtr.2)/mg,DSC(subtr.2)/(mW/mg),Sensit./(uV/mW)
49.621,10.00917,-0.01351,0.00302226,1.0702
50.221,10.7405,-0.01719487,0.0466329,1.07004
50.821,10.93028,-0.0153407,0.08086588,1.06987
51.421,11.07329,-0.01715503,0.1117,1.06971
52.021,11.19385,-0.01608618,0.13583,1.06954
52.621,11.29985,-0.01618564,0.15783,1.06937
53.221,11.39683,-0.01602626,0.18003,1.06921
53.821,11.48731,-0.01571526,0.19761,1.06904
54.421,11.57282,-0.01634229,0.21205,1.06887
55.021,11.65484,-0.01598022,0.22408,1.0687
55.621,11.73354,-0.01545014,0.2374,1.06854
56.221,11.8098,-0.01668237,0.24893,1.06837
56.821,11.88428,-0.01674592,0.25726,1.0682
57.421,11.95775,-0.0169015,0.26658,1.06803
58.021,12.0298,-0.01699723,0.27303,1.06786
58.621,12.10042,-0.01571683,0.2809,1.06769
59.221,12.17052,-0.01543923,0.2864,1.06752
59.821,12.23991,-0.01562228,0.29071,1.06735
60.421,12.30862,-0.01631502,0.29771,1.06718
61.021,12.37575,-0.01677956,0.29976,1.06701
61.621,12.44256,-0.01673411,0.30594,1.06683
62.221,12.50945,-0.01715448,0.30933,1.06666
62.821,12.57645,-0.01667859,0.31102,1.06649
63.421,12.64326,-0.0167416,0.31572,1.06632
64.021,12.70918,-0.01680969,0.31747,1.06614
64.621,12.77508,-0.01775909,0.31963,1.06597
65.221,12.8406,-0.01808491,0.32153,1.0658
65.821,12.9049,-0.01811251,0.32321,1.06562
66.421,12.96941,-0.01812368,0.32503,1.06545
67.021,13.03398,-0.01816065,0.32589,1.06527
67.621,13.09895,-0.01813208,0.32845,1.0651
68.221,13.16395,-0.01822235,0.32796,1.06492
68.821,13.2275,-0.01763356,0.32795,1.06474
69.421,13.29142,-0.01766519,0.33102,1.06457
70.021,13.35547,-0.01811893,0.33083,1.06439
70.621,13.41971,-0.01811999,0.33127,1.06421
71.221,13.48347,-0.01792113,0.3338,1.06403
71.821,13.5471,-0.01802521,0.33284,1.06386
72.421,13.61015,-0.01813235,0.33453,1.06368
73.021,13.67336,-0.01861887,0.33709,1.0635
73.621,13.73634,-0.0187787,0.33552,1.06332
74.221,13.79921,-0.01811987,0.33841,1.06314
74.821,13.8624,-0.01695072,0.33803,1.06296
75.421,13.92511,-0.01810409,0.34111,1.06278
76.021,13.988,-0.01818682,0.34195,1.0626
76.621,14.0502,-0.01811686,0.34134,1.06242
77.221,14.11244,-0.01715775,0.34509,1.06224
77.821,14.1745,-0.018448,0.34422,1.06205
78.421,14.23652,-0.01881527,0.34777,1.06187
79.021,14.29836,-0.01917498,0.34693,1.06169
79.621,14.3602,-0.01812253,0.34983,1.06151
80.221,14.42186,-0.01946232,0.35078,1.06132
80.821,14.4834,-0.0194482,0.35137,1.06114
81.421,14.54507,-0.01944666,0.35258,1.06095
82.021,14.60635,-0.01906911,0.35445,1.06077
82.621,14.66811,-0.01941402,0.35576,1.06058
83.221,14.72931,-0.01944,0.35721,1.0604
83.821,14.79075,-0.01805223,0.3586,1.06021
84.421,14.85152,-0.01947553,0.35864,1.06003
85.021,14.9119,-0.01943002,0.36135,1.05984
85.621,14.97245,-0.01942436,0.36425,1.05965
86.221,15.0328,-0.01943146,0.364,1.05947
86.821,15.0938,-0.018679,0.36591,1.05928
87.421,15.1541,-0.0191078,0.36645,1.05909
88.021,15.21446,-0.01944167,0.36882,1.0589
88.621,15.27506,-0.02017639,0.37018,1.05871
89.221,15.3351,-0.01943993,0.36991,1.05852
89.821,15.39509,-0.01934489,0.37357,1.05833
90.421,15.45515,-0.01945149,0.37337,1.05814
91.021,15.5151,-0.02079226,0.3771,1.05795
91.621,15.5753,-0.02084722,0.37755,1.05776
92.221,15.6352,-0.01954015,0.38132,1.05757
92.821,15.69495,-0.02075942,0.38197,1.05738
93.421,15.7546,-0.01939577,0.38193,1.05719
94.021,15.8142,-0.020743,0.38683,1.057
94.621,15.87359,-0.01945124,0.38579,1.0568
95.221,15.9327,-0.02075366,0.38825,1.05661
95.821,15.99215,-0.02074972,0.38853,1.05642
96.421,16.0514,-0.02193431,0.39139,1.05622
97.021,16.11046,-0.02076005,0.39282,1.05603
97.621,16.16965,-0.02075569,0.39294,1.05584
98.221,16.22888,-0.02177322,0.3956,1.05564
98.821,16.2879,-0.02075988,0.3978,1.05545
99.421,16.34696,-0.02075624,0.39827,1.05525
100.021,16.4059,-0.01978351,0.4011,1.05505
100.621,16.46472,-0.02075105,0.40376,1.05486
101.221,16.52396,-0.02117703,0.40416,1.05466
101.821,16.58318,-0.02074633,0.4069,1.05446
102.421,16.64255,-0.02075004,0.40864,1.05427
103.021,16.7017,-0.02084019,0.40942,1.05407
103.621,16.7605,-0.02075986,0.41049,1.05387
104.221,16.81919,-0.02076,0.41151,1.05367
104.821,16.87783,-0.02076116,0.41507,1.05347
105.421,16.9364,-0.02208371,0.41494,1.05327
106.021,16.99531,-0.02205412,0.41908,1.05307
106.621,17.05415,-0.02075191,0.4197,1.05287
107.221,17.1132,-0.0206958,0.42124,1.05267
107.821,17.17243,-0.02074965,0.42355,1.05247
108.421,17.23156,-0.02204712,0.42628,1.05227
109.021,17.2907,-0.02206999,0.42842,1.05207
109.621,17.3496,-0.02206978,0.43232,1.05186
110.221,17.40831,-0.02206316,0.43531,1.05166
110.821,17.46669,-0.02206979,0.43614,1.05146
111.421,17.5253,-0.02330697,0.43942,1.05126
112.021,17.5838,-0.02241168,0.44125,1.05105
112.621,17.64262,-0.02207749,0.44629,1.05085
113.221,17.70129,-0.02208019,0.44981,1.05064
113.821,17.7599,-0.02142756,0.45181,1.05044
114.421,17.81866,-0.02207004,0.45668,1.05023
115.021,17.87736,-0.02206991,0.46018,1.05003
115.621,17.9361,-0.02152317,0.46731,1.04982
116.221,17.99469,-0.02207037,0.46881,1.04961
116.821,18.053,-0.02198837,0.47428,1.04941
117.421,18.1114,-0.02306049,0.4802,1.0492
118.021,18.17,-0.02307579,0.48499,1.04899
118.621,18.22842,-0.02207027,0.49082,1.04878
119.221,18.28697,-0.02206623,0.49716,1.04858
119.821,18.34551,-0.02302882,0.50576,1.04837
120.421,18.40346,-0.02209351,0.51555,1.04816
121.021,18.46182,-0.02339346,0.52511,1.04795
121.621,18.51989,-0.02203387,0.53441,1.04774
122.221,18.57826,-0.02207002,0.5493,1.04753
122.821,18.63726,-0.02207,0.5625,1.04732
123.421,18.69575,-0.02206294,0.5769,1.04711
124.021,18.7541,-0.02343557,0.59636,1.04689
124.621,18.81225,-0.02325673,0.61627,1.04668
125.221,18.8706,-0.02338999,0.64347,1.04647
125.821,18.92905,-0.02339,0.67368,1.04626
126.421,18.9875,-0.0221923,0.70706,1.04604
127.021,19.04607,-0.02247651,0.74867,1.04583
127.621,19.1046,-0.02339014,0.79904,1.04562
128.221,19.16328,-0.02313395,0.85689,1.0454
128.821,19.22176,-0.02274007,0.92795,1.04519
129.421,19.28051,-0.02271619,1.00747,1.04497
130.021,19.3394,-0.02404129,1.10173,1.04476
130.621,19.39829,-0.02338995,1.21092,1.04454
131.221,19.4576,-0.02340419,1.33154,1.04432
131.821,19.51693,-0.0233925,1.46187,1.04411
132.421,19.57648,-0.02339,1.60217,1.04389
133.021,19.63637,-0.02339111,1.7489,1.04367
133.621,19.6963,-0.02240889,1.90069,1.04346
134.221,19.7565,-0.02208828,2.05624,1.04324
134.821,19.8166,-0.02209082,2.19772,1.04302
135.421,19.87649,-0.02207001,2.31136,1.0428
136.021,19.93656,-0.02206955,2.40718,1.04258
136.621,19.9969,-0.02337827,2.51169,1.04236
137.221,20.05731,-0.02335347,2.63366,1.04214
137.821,20.11779,-0.02339331,2.75737,1.04192
138.421,20.1778,-0.02339,2.86862,1.0417
139.021,20.23794,-0.02339,2.96786,1.04148
139.621,20.2983,-0.02338578,3.04344,1.04125
140.221,20.35858,-0.02306274,3.07978,1.04103
140.821,20.41894,-0.02339161,3.06246,1.04081
141.421,20.47835,-0.02339,2.96871,1.04059
142.021,20.53707,-0.0233896,2.79341,1.04036
142.621,20.5951,-0.02372286,2.50252,1.04014
143.221,20.65305,-0.02339013,2.09932,1.03991
143.821,20.71036,-0.02339,1.69768,1.03969
144.421,20.76735,-0.02339,1.37589,1.03947
145.021,20.82364,-0.02339013,1.13732,1.03924
145.621,20.87946,-0.02471581,0.96223,1.03901
146.221,20.93489,-0.02401728,0.83294,1.03879
146.821,20.99086,-0.02340396,0.7369,1.03856
147.421,21.04656,-0.02341381,0.66685,1.03833
148.021,21.10233,-0.02471047,0.61437,1.03811
148.621,21.1581,-0.02471001,0.57615,1.03788
149.221,21.21404,-0.02480425,0.54739,1.03765
149.821,21.27017,-0.02570027,0.52418,1.03742
150.421,21.3264,-0.026056,0.50938,1.03719
151.021,21.38273,-0.02471163,0.49968,1.03696
151.621,21.43901,-0.02568854,0.49019,1.03673
152.221,21.4951,-0.02702102,0.48474,1.0365
152.821,21.55136,-0.02702022,0.4798,1.03627
153.421,21.60797,-0.02613946,0.47705,1.03604
154.021,21.6645,-0.02569981,0.47363,1.03581
154.621,21.72117,-0.02607898,0.47167,1.03558
155.221,21.77777,-0.02470905,0.4696,1.03535
155.821,21.83445,-0.02499481,0.46904,1.03511
156.421,21.89082,-0.02602019,0.47053,1.03488
157.021,21.9474,-0.02602,0.4706,1.03465
157.621,22.00369,-0.02601954,0.46854,1.03441
158.221,22.06052,-0.02732388,0.46967,1.03418
158.821,22.11737,-0.02649484,0.46906,1.03394
159.421,22.1741,-0.02635009,0.46913,1.03371
160.021,22.23114,-0.02629635,0.47003,1.03347
160.621,22.28787,-0.02601583,0.47088,1.03324
161.221,22.34499,-0.02733846,0.47212,1.033
161.821,22.40192,-0.02733995,0.47135,1.03277
162.421,22.45885,-0.02735233,0.47064,1.03253
163.021,22.51587,-0.02667975,0.4724,1.03229
163.621,22.57295,-0.02666708,0.47241,1.03205
164.221,22.62987,-0.02735304,0.47317,1.03181
164.821,22.68698,-0.02734998,0.47301,1.03158
165.421,22.74397,-0.02730257,0.47272,1.03134
166.021,22.80095,-0.02852962,0.47533,1.0311
166.621,22.858,-0.02734059,0.47494,1.03086
167.221,22.915,-0.02870215,0.47428,1.03062
167.821,22.97221,-0.02866222,0.47564,1.03038
168.421,23.02885,-0.0273372,0.47541,1.03013
169.021,23.0858,-0.02733998,0.47391,1.02989
169.621,23.1427,-0.02731985,0.47631,1.02965
170.221,23.19965,-0.02635053,0.47556,1.02941
170.821,23.2569,-0.02634676,0.47607,1.02917
171.421,23.3139,-0.02765659,0.4782,1.02892
172.021,23.37106,-0.02766998,0.47797,1.02868
172.621,23.42835,-0.02768185,0.47926,1.02844
173.221,23.48558,-0.02865853,0.47739,1.02819
173.821,23.5429,-0.02866,0.47875,1.02795
174.421,23.60016,-0.02865977,0.48057,1.0277
175.021,23.65723,-0.02791726,0.47976,1.02746
175.621,23.7144,-0.02866031,0.47999,1.02721
176.221,23.7716,-0.02866,0.47898,1.02696
176.821,23.82872,-0.02866,0.48117,1.02672
177.421,23.8861,-0.02866,0.48098,1.02647
178.021,23.94329,-0.02866151,0.48282,1.02622
178.621,24.00011,-0.02997321,0.48156,1.02597
179.221,24.0572,-0.03004639,0.48314,1.02572
179.821,24.11407,-0.02866013,0.48306,1.02548
180.421,24.17136,-0.02866,0.48273,1.02523
181.021,24.2291,-0.02866,0.48503,1.02498
181.621,24.28616,-0.02866,0.48496,1.02473
182.221,24.34336,-0.02865959,0.48494,1.02448
182.821,24.40059,-0.02975619,0.48355,1.02422
183.421,24.45811,-0.02865864,0.48441,1.02397
184.021,24.51533,-0.02866,0.48238,1.02372
184.621,24.57232,-0.02866446,0.48325,1.02347
185.221,24.6294,-0.02932025,0.48435,1.02322
185.821,24.68639,-0.02927151,0.48475,1.02296
186.421,24.74371,-0.03063816,0.48561,1.02271
187.021,24.80096,-0.02928071,0.48621,1.02246
187.621,24.858,-0.02931893,0.48855,1.0222
188.221,24.91518,-0.02976879,0.48619,1.02195
188.821,24.9718,-0.02900723,0.48672,1.02169
189.421,25.02883,-0.02896988,0.48633,1.02144
190.021,25.08602,-0.02998035,0.4856,1.02118
190.621,25.1431,-0.02998,0.48739,1.02092
191.221,25.20063,-0.0299834,0.48712,1.02067
191.821,25.25775,-0.0299788,0.48833,1.02041
192.421,25.31492,-0.03128831,0.48749,1.02015
193.021,25.37204,-0.03116293,0.48873,1.01989
193.621,25.42923,-0.02996999,0.4913,1.01964
194.221,25.48638,-0.02997065,0.49091,1.01938
194.821,25.5437,-0.03029246,0.49182,1.01912
195.421,25.60099,-0.03126821,0.49272,1.01886
196.021,25.6582,-0.03129001,0.4922,1.0186
196.621,25.71508,-0.03129001,0.49163,1.01834
197.221,25.77159,-0.03130806,0.49324,1.01808
197.821,25.82837,-0.03029641,0.494,1.01782
198.421,25.88534,-0.03029998,0.49496,1.01755
199.021,25.94268,-0.03026871,0.49415,1.01729
199.621,25.99983,-0.03033372,0.49639,1.01703
200.221,26.0568,-0.0303064,0.49535,1.01677
200.821,26.11373,-0.03030998,0.49533,1.0165
201.421,26.1709,-0.03029223,0.4943,1.01624
202.021,26.22798,-0.03163081,0.49526,1.01598
202.621,26.285,-0.03162946,0.49346,1.01571
203.221,26.3423,-0.03283246,0.4937,1.01545
203.821,26.3991,-0.03261993,0.49478,1.01518
204.421,26.4566,-0.03196987,0.49632,1.01491
205.021,26.51398,-0.03195976,0.4959,1.01465
205.621,26.5711,-0.03277289,0.49542,1.01438
206.221,26.62854,-0.03327003,0.49411,1.01411
206.821,26.68585,-0.03327,0.4966,1.01385
207.421,26.7433,-0.03327,0.49528,1.01358
208.021,26.80065,-0.03326981,0.49567,1.01331
208.621,26.858,-0.03293287,0.49655,1.01304
209.221,26.9153,-0.03165786,0.49553,1.01277
209.821,26.9725,-0.0316201,0.49561,1.0125
210.421,27.0298,-0.03297082,0.4965,1.01223
211.021,27.0869,-0.03293994,0.49744,1.01196
211.621,27.14422,-0.03294,0.49898,1.01169
212.221,27.2018,-0.03294,0.49817,1.01142
212.821,27.2591,-0.03294,0.49995,1.01115
213.421,27.3165,-0.03294,0.49955,1.01087
214.021,27.3737,-0.03294,0.50186,1.0106
214.621,27.43099,-0.03294,0.50205,1.01033
215.221,27.4884,-0.03293959,0.50084,1.01006
215.821,27.54565,-0.0315836,0.50168,1.00978
216.421,27.6027,-0.03163151,0.50194,1.00951
217.021,27.65976,-0.03261133,0.50449,1.00923
217.621,27.71661,-0.03294129,0.50471,1.00896
218.221,27.77385,-0.03294,0.50543,1.00868
218.821,27.8312,-0.03293981,0.50632,1.00841
219.421,27.8884,-0.03427336,0.50749,1.00813
220.021,27.9455,-0.03426003,0.50688,1.00785
220.621,28.00255,-0.03426,0.50724,1.00758
221.221,28.0595,-0.03426032,0.50904,1.0073
221.821,28.11676,-0.03360064,0.50959,1.00702
222.421,28.174,-0.03327114,0.51006,1.00674
223.021,28.231,-0.03220756,0.50836,1.00646
223.621,28.28805,-0.03361041,0.50959,1.00618
224.221,28.3452,-0.03360001,0.51037,1.0059
224.821,28.4024,-0.03359536,0.51002,1.00562
225.421,28.4599,-0.03491926,0.50973,1.00534
226.021,28.5171,-0.03491998,0.51005,1.00506
226.621,28.57408,-0.03482426,0.51193,1.00478
227.221,28.6313,-0.03392975,0.51163,1.0045
227.821,28.6882,-0.03367697,0.51412,1.00422
228.421,28.74529,-0.03319848,0.51179,1.00393
229.021,28.80221,-0.03411125,0.51338,1.00365
229.621,28.85939,-0.03458999,0.51445,1.00337
230.221,28.91675,-0.03459007,0.51397,1.00308
230.821,28.97379,-0.03392431,0.5155,1.0028
231.421,29.03104,-0.03360006,0.51652,1.00251
232.021,29.0881,-0.03360004,0.5146,1.00223
232.621,29.14507,-0.03392946,0.51715,1.00194
233.221,29.2024,-0.03492353,0.51768,1.00165
233.821,29.25945,-0.03425919,0.51661,1.00137
234.421,29.3165,-0.03426002,0.52065,1.00108
235.021,29.37378,-0.03428936,0.52,1.00079
235.621,29.43088,-0.03494094,0.52128,1.00051
236.221,29.4878,-0.03491998,0.51932,1.00022
236.821,29.5445,-0.03489498,0.51987,0.99993
237.421,29.60142,-0.03361096,0.52185,0.99964
238.021,29.65847,-0.03491978,0.52221,0.99935
238.621,29.7161,-0.03515752,0.52134,0.99906
239.221,29.77347,-0.03647081,0.52135,0.99877
239.821,29.83056,-0.03523572,0.52351,0.99848
240.421,29.8878,-0.0352412,0.52252,0.99819
241.021,29.9443,-0.03656632,0.52251,0.9979
241.621,30.0015,-0.03656,0.52388,0.9976
242.221,30.05851,-0.03656017,0.52273,0.99731
242.821,30.11543,-0.03525928,0.52345,0.99702
243.421,30.173,-0.03524025,0.52413,0.99672
244.021,30.23,-0.03625616,0.52309,0.99643
244.621,30.28685,-0.03622996,0.52219,0.99614
245.221,30.34383,-0.03623,0.5236,0.99584
245.821,30.40066,-0.03623,0.52249,0.99555
246.421,30.45777,-0.03623604,0.52551,0.99525
247.021,30.5148,-0.03655943,0.52562,0.99495
247.621,30.57211,-0.03656,0.52643,0.99466
248.221,30.62912,-0.03655996,0.52713,0.99436
248.821,30.68621,-0.03628913,0.52691,0.99406
249.421,30.74326,-0.03688866,0.52653,0.99377
250.021,30.8003,-0.03689,0.52735,0.99347
250.621,30.85738,-0.03689,0.52841,0.99317
251.221,30.91445,-0.03689,0.5287,0.99287
251.821,30.97087,-0.03689011,0.52834,0.99257
252.421,31.0275,-0.03634319,0.52806,0.99227
253.021,31.0847,-0.03589993,0.52867,0.99197
253.621,31.14172,-0.03590001,0.53005,0.99167
254.221,31.19962,-0.03590194,0.5295,0.99137
254.821,31.2568,-0.03688338,0.53124,0.99107
255.421,31.31403,-0.0368529,0.52989,0.99076
256.021,31.37104,-0.03821922,0.53294,0.99046
256.621,31.42805,-0.03822001,0.53139,0.99016
257.221,31.48491,-0.03828089,0.53313,0.98986
257.821,31.542,-0.03723031,0.53348,0.98955
258.421,31.59925,-0.03723,0.53294,0.98925
259.021,31.6562,-0.03722998,0.53311,0.98894
259.621,31.7132,-0.03718842,0.53372,0.98864
260.221,31.7702,-0.03853952,0.53442,0.98833
260.821,31.8272,-0.03854,0.53409,0.98803
261.421,31.88461,-0.03854,0.5338,0.98772
262.021,31.94197,-0.03854,0.53428,0.98741
262.621,31.9993,-0.03854,0.53216,0.98711
263.221,32.05643,-0.03854,0.5327,0.9868
263.821,32.11367,-0.03854,0.53629,0.98649
264.421,32.17078,-0.03854,0.536,0.98618
265.021,32.2279,-0.03853997,0.5358,0.98587
265.621,32.28513,-0.03843089,0.53509,0.98556
266.221,32.34245,-0.03986305,0.53524,0.98525
266.821,32.39947,-0.0398587,0.53721,0.98494
267.421,32.45657,-0.03854097,0.53571,0.98463
268.021,32.51352,-0.03854,0.53628,0.98432
268.621,32.57047,-0.03854,0.53748,0.98401
269.221,32.62787,-0.03854083,0.54143,0.9837
269.821,32.68508,-0.03917957,0.53964,0.98339
270.421,32.7427,-0.03986511,0.54018,0.98307
271.021,32.79999,-0.03986075,0.53864,0.98276
271.621,32.8575,-0.03920622,0.53983,0.98245
272.221,32.91482,-0.03920001,0.54098,0.98213
272.821,32.972,-0.0392,0.53929,0.98182
273.421,33.02937,-0.0392,0.53927,0.9815
274.021,33.08676,-0.0392,0.53888,0.98119
274.621,33.14395,-0.0392,0.54059,0.98087
275.221,33.2012,-0.0392,0.54217,0.98055
275.821,33.2584,-0.03919724,0.54274,0.98024
276.421,33.31563,-0.04051872,0.54305,0.97992
277.021,33.37307,-0.04052,0.54312,0.9796
277.621,33.4303,-0.04052,0.54403,0.97928
278.221,33.48757,-0.04052,0.54501,0.97897
278.821,33.5449,-0.0405205,0.5456,0.97865
279.421,33.60219,-0.03933632,0.54497,0.97833
280.021,33.6594,-0.03919791,0.5447,0.97801
280.621,33.7162,-0.04052219,0.54469,0.97769
281.221,33.77325,-0.04052,0.54593,0.97737
281.821,33.83027,-0.04052,0.54705,0.97704
282.421,33.88774,-0.04052,0.54683,0.97672
283.021,33.9452,-0.04052,0.54788,0.9764
283.621,34.00235,-0.04052,0.54723,0.97608
284.221,34.05972,-0.04052,0.54712,0.97576
284.821,34.11698,-0.04052,0.5469,0.97543
285.421,34.17418,-0.04052,0.548,0.97511
286.021,34.23131,-0.04052,0.54814,0.97478
286.621,34.2885,-0.0405199,0.55084,0.97446
287.221,34.34563,-0.04145159,0.54977,0.97413
287.821,34.4031,-0.04131781,0.54887,0.97381
288.421,34.4604,-0.04052131,0.55081,0.97348
289.021,34.5176,-0.04052047,0.55049,0.97316
289.621,34.57496,-0.04084212,0.55234,0.97283
290.221,34.63203,-0.04085255,0.55099,0.9725
290.821,34.68939,-0.04184057,0.5513,0.97217
291.421,34.74662,-0.04184001,0.5529,0.97185
292.021,34.80401,-0.04188749,0.55178,0.97152
292.621,34.86142,-0.04052086,0.55243,0.97119
293.221,34.91871,-0.04051992,0.55243,0.97086
293.821,34.97594,-0.04146307,0.55243,0.97053
294.421,35.03327,-0.04249426,0.55268,0.9702
295.021,35.09065,-0.04249,0.55513,0.96987
295.621,35.1481,-0.04249,0.55458,0.96954
296.221,35.20548,-0.04249,0.55264,0.96921
296.821,35.26265,-0.04248999,0.55261,0.96887
297.421,35.31987,-0.04248655,0.55227,0.96854
298.021,35.37708,-0.04118245,0.55292,0.96821
298.621,35.43432,-0.04249614,0.55259,0.96787
299.221,35.4921,-0.04249,0.55353,0.96754
299.821,35.54978,-0.04249,0.55199,0.96721
300.421,35.60727,-0.04249001,0.55147,0.96687
301.021,35.6648,-0.0425155,0.55153,0.96654
301.621,35.72197,-0.04381047,0.55142,0.9662
302.221,35.7795,-0.04381,0.55432,0.96586
302.821,35.83697,-0.04377963,0.55367,0.96553
303.421,35.89467,-0.04413919,0.5523,0.96519
304.021,35.9523,-0.04276933,0.55334,0.96485
304.621,36.00992,-0.04281999,0.55403,0.96452
305.221,36.0674,-0.04281461,0.55528,0.96418
305.821,36.125,-0.04413849,0.55443,0.96384
306.421,36.18271,-0.04414,0.55485,0.9635
307.021,36.24042,-0.04414,0.55409,0.96316
307.621,36.29815,-0.04414,0.55371,0.96282
308.221,36.3557,-0.04414,0.55448,0.96248
308.821,36.41333,-0.04414,0.55466,0.96214
309.421,36.47108,-0.04414,0.55433,0.9618
310.021,36.52884,-0.04414,0.55325,0.96146
310.621,36.58654,-0.04414,0.55427,0.96111
311.221,36.64378,-0.04414012,0.55408,0.96077
311.821,36.70152,-0.04554591,0.5534,0.96043
312.421,36.75918,-0.04546,0.55567,0.96008
313.021,36.8163,-0.0441631,0.55603,0.95974
313.621,36.8742,-0.04414001,0.55518,0.9594
314.221,36.93186,-0.04414004,0.55497,0.95905
314.821,36.98969,-0.04415744,0.55251,0.95871
315.421,37.04766,-0.04545971,0.5521,0.95836
316.021,37.10528,-0.04546258,0.55101,0.95801
316.621,37.16288,-0.04514871,0.54829,0.95767
317.221,37.22055,-0.04576646,0.5484,0.95732
317.821,37.27832,-0.04578958,0.54616,0.95697
318.421,37.33619,-0.04443873,0.54591,0.95663
319.021,37.39387,-0.04447161,0.54306,0.95628
319.621,37.45136,-0.04579615,0.5458,0.95593
320.221,37.50885,-0.04482639,0.54433,0.95558
320.821,37.56641,-0.04578227,0.54359,0.95523
321.421,37.6241,-0.04579,0.54295,0.95488
322.021,37.6817,-0.04578999,0.54372,0.95453
322.621,37.73939,-0.04578835,0.54437,0.95418
323.221,37.79699,-0.04578862,0.54578,0.95383
323.821,37.8545,-0.04578756,0.54363,0.95347
324.421,37.9122,-0.04612248,0.54236,0.95312
325.021,37.96991,-0.04611996,0.54366,0.95277
325.621,38.02766,-0.04667793,0.54458,0.95242
326.221,38.0852,-0.04711006,0.54442,0.95206
326.821,38.14281,-0.04711,0.54432,0.95171
327.421,38.2005,-0.04710999,0.54304,0.95135
328.021,38.25835,-0.04712059,0.54215,0.951
328.621,38.3162,-0.04842709,0.54393,0.95064
329.221,38.37405,-0.04711149,0.5425,0.95029
329.821,38.43172,-0.04711,0.54375,0.94993
330.421,38.4895,-0.04711143,0.54181,0.94957
331.021,38.54715,-0.04809297,0.54321,0.94922
331.621,38.60487,-0.04809,0.54287,0.94886
332.221,38.66265,-0.04809,0.54158,0.9485
332.821,38.72037,-0.04809,0.54255,0.94814
333.421,38.77805,-0.04809,0.54258,0.94778
334.021,38.83553,-0.04809,0.54369,0.94742
334.621,38.89311,-0.04809,0.54097,0.94706
335.221,38.9507,-0.04809,0.54034,0.9467
335.821,39.00846,-0.04809036,0.54018,0.94634
336.421,39.06582,-0.04944538,0.54181,0.94598
337.021,39.12343,-0.04940418,0.54095,0.94562
337.621,39.181,-0.04874856,0.54183,0.94526
338.221,39.23879,-0.04875,0.54148,0.9449
338.821,39.29671,-0.04874876,0.54095,0.94453
339.421,39.35457,-0.04810687,0.54086,0.94417
340.021,39.4123,-0.04809003,0.53965,0.94381
340.621,39.46999,-0.04810432,0.53984,0.94344
341.221,39.5276,-0.04875648,0.53867,0.94308
341.821,39.5853,-0.04907948,0.53922,0.94271
342.421,39.643,-0.04908001,0.53821,0.94235
343.021,39.7008,-0.04908917,0.53987,0.94198
343.621,39.75849,-0.05039995,0.54048,0.94162
344.221,39.81612,-0.04910564,0.54037,0.94125
344.821,39.8737,-0.04907957,0.53991,0.94088
345.421,39.93122,-0.05037874,0.5391,0.94051
346.021,39.98895,-0.0504,0.53972,0.94015
346.621,40.0466,-0.05037621,0.53974,0.93978
347.221,40.10453,-0.04907953,0.53832,0.93941
347.821,40.1622,-0.0490358,0.53796,0.93904
348.421,40.2203,-0.04973507,0.53808,0.93867
349.021,40.2783,-0.05040029,0.53615,0.9383
349.621,40.3363,-0.0504,0.53646,0.93793
350.221,40.39428,-0.0504,0.53626,0.93756
350.821,40.4521,-0.0504,0.53642,0.93718
351.421,40.50996,-0.0504,0.53675,0.93681
352.021,40.56793,-0.0504,0.53463,0.93644
352.621,40.62585,-0.0504186,0.53491,0.93607
353.221,40.6838,-0.05105869,0.53445,0.93569
353.821,40.74185,-0.05106026,0.53497,0.93532
354.421,40.79985,-0.05172892,0.53493,0.93494
355.021,40.85776,-0.052704,0.53375,0.93457
355.621,40.9156,-0.0527,0.53296,0.93419
356.221,40.97359,-0.05267669,0.53351,0.93382
356.821,41.03177,-0.05106808,0.53364,0.93344
357.421,41.08999,-0.05105889,0.53684,0.93307
358.021,41.1479,-0.05204362,0.53495,0.93269
358.621,41.20609,-0.05204751,0.53479,0.93231
359.221,41.2642,-0.05238236,0.53435,0.93193
359.821,41.32226,-0.05238,0.53534,0.93156
360.421,41.38051,-0.05238003,0.53468,0.93118
361.021,41.43864,-0.05365755,0.53432,0.9308
361.621,41.4968,-0.05368832,0.535,0.93042
362.221,41.555,-0.05237369,0.53673,0.93004
362.821,41.6133,-0.05239345,0.53788,0.92966
363.421,41.6715,-0.05343443,0.53675,0.92928
364.021,41.72938,-0.05368973,0.53725,0.9289
364.621,41.78703,-0.05466816,0.53839,0.92851
365.221,41.8451,-0.05467999,0.54141,0.92813
365.821,41.90273,-0.05468,0.54039,0.92775
366.421,41.96128,-0.05468,0.54202,0.92737
367.021,42.0195,-0.05468,0.54308,0.92698
367.621,42.07765,-0.05468,0.54355,0.9266
368.221,42.1365,-0.05468,0.54498,0.92621
368.821,42.19457,-0.05468746,0.54381,0.92583
369.421,42.2528,-0.05368239,0.54714,0.92544
370.021,42.31084,-0.05370048,0.54715,0.92506
370.621,42.36913,-0.05499932,0.54774,0.92467
371.221,42.42752,-0.05533003,0.54861,0.92429
371.821,42.4858,-0.05523419,0.55074,0.9239
372.421,42.54408,-0.05664987,0.55238,0.92351
373.021,42.60222,-0.05665027,0.55296,0.92312
373.621,42.66059,-0.05535865,0.55429,0.92274
374.221,42.71925,-0.0560001,0.55508,0.92235
374.821,42.77767,-0.056,0.55672,0.92196
375.421,42.83605,-0.05600183,0.55824,0.92157
376.021,42.89443,-0.05731683,0.55796,0.92118
376.621,42.95262,-0.05795131,0.56103,0.92079
377.221,43.0107,-0.05750851,0.5605,0.9204
377.821,43.06882,-0.05666033,0.56022,0.92001
378.421,43.12684,-0.05797276,0.56332,0.91961
379.021,43.18517,-0.05796996,0.56474,0.91922
379.621,43.2434,-0.0578493,0.56758,0.91883
380.221,43.3014,-0.05796945,0.56972,0.91844
380.821,43.35971,-0.05797,0.57039,0.91804
381.421,43.41812,-0.05796999,0.56997,0.91765
382.021,43.47668,-0.05792323,0.57274,0.91725
382.621,43.53501,-0.0592792,0.57422,0.91686
383.221,43.59299,-0.05928435,0.57645,0.91646
383.821,43.65109,-0.05796887,0.57981,0.91607
384.421,43.7093,-0.05929027,0.58324,0.91567
385.021,43.7676,-0.06027868,0.5864,0.91527
385.621,43.82608,-0.06028007,0.58768,0.91488
386.221,43.88418,-0.06054478,0.5888,0.91448
386.821,43.94235,-0.06160026,0.59111,0.91408
387.421,44.00065,-0.06159949,0.59228,0.91368
388.021,44.05881,-0.0599803,0.59498,0.91329
388.621,44.1171,-0.05890873,0.59888,0.91289
389.221,44.1753,-0.05995077,0.5996,0.91249
389.821,44.2337,-0.06132916,0.60061,0.91209
390.421,44.29195,-0.06159938,0.60626,0.91169
391.021,44.35024,-0.06159999,0.60789,0.91128
391.621,44.40838,-0.06161043,0.60988,0.91088
392.221,44.46665,-0.06292026,0.61427,0.91048
392.821,44.52494,-0.06292,0.61529,0.91008
393.421,44.58331,-0.06292,0.62007,0.90968
394.021,44.64167,-0.06292,0.62398,0.90927
394.621,44.69989,-0.06291913,0.62657,0.90887
395.221,44.75819,-0.06423128,0.62963,0.90847
395.821,44.81661,-0.06423,0.63283,0.90806
396.421,44.875,-0.0642138,0.63678,0.90766
397.021,44.93309,-0.06521884,0.64305,0.90725
397.621,44.9915,-0.06522,0.64815,0.90685
398.221,45.04978,-0.06522,0.6526,0.90644
398.821,45.1084,-0.06522,0.65677,0.90603
399.421,45.167,-0.06521784,0.66531,0.90563
400.021,45.22532,-0.06555194,0.66966,0.90522
400.621,45.28382,-0.06554997,0.67556,0.90481
401.221,45.3423,-0.06548907,0.68259,0.9044
401.821,45.40062,-0.06686991,0.6859,0.90399
402.421,45.45895,-0.06686999,0.68852,0.90359
403.021,45.51723,-0.0667932,0.69409,0.90318
403.621,45.5755,-0.0681899,0.69926,0.90277
404.221,45.63381,-0.06818383,0.70101,0.90236
404.821,45.6922,-0.0694981,0.70326,0.90194
405.421,45.75057,-0.06949993,0.70422,0.90153
406.021,45.80897,-0.07014367,0.70689,0.90112
406.621,45.86753,-0.07082005,0.70673,0.90071
407.221,45.92635,-0.07072915,0.70661,0.9003
407.821,45.9851,-0.07086302,0.70962,0.89988
408.421,46.04385,-0.07087801,0.71077,0.89947
409.021,46.10243,-0.07214049,0.71343,0.89906
409.621,46.161,-0.07214018,0.71334,0.89864
410.221,46.21955,-0.07112085,0.7159,0.89823
410.821,46.27815,-0.07213944,0.71604,0.89781
411.421,46.33674,-0.0738917,0.71683,0.8974
412.021,46.39528,-0.07469878,0.71631,0.89698
412.621,46.45382,-0.07536675,0.71867,0.89656
413.221,46.51225,-0.07609036,0.7164,0.89615
413.821,46.57083,-0.0761001,0.71654,0.89573
414.421,46.62966,-0.07741013,0.71679,0.89531
415.021,46.68849,-0.07713313,0.71739,0.89489
415.621,46.74756,-0.07734731,0.71558,0.89448
416.221,46.80645,-0.07740992,0.71814,0.89406
416.821,46.86513,-0.07731413,0.71628,0.89364
417.421,46.92392,-0.07871365,0.71556,0.89322
418.021,46.98287,-0.08003535,0.71802,0.8928
418.621,47.04167,-0.08134748,0.71754,0.89238
419.221,47.10075,-0.08135782,0.71622,0.89196
419.821,47.1596,-0.08266963,0.72026,0.89153
420.421,47.21846,-0.08396595,0.7219,0.89111
421.021,47.27684,-0.0847548,0.71952,0.89069
421.621,47.33565,-0.08531103,0.72306,0.89027
422.221,47.39416,-0.08669642,0.72256,0.88984
422.821,47.453,-0.08728339,0.71886,0.88942
423.421,47.51181,-0.08859839,0.71647,0.889
424.021,47.57063,-0.08990077,0.71426,0.88857
424.621,47.6295,-0.09123977,0.71201,0.88815
425.221,47.68845,-0.09255744,0.70983,0.88772
425.821,47.7473,-0.09385772,0.70754,0.8873
426.421,47.80624,-0.09286504,0.70543,0.88687
427.021,47.8652,-0.0942083,0.7038,0.88644
427.621,47.92393,-0.0962297,0.70136,0.88602
428.221,47.98301,-0.09791085,0.70533,0.88559
428.821,48.04187,-0.09913479,0.74318,0.88516
429.421,48.10079,-0.10052,0.73955,0.88473
430.021,48.15959,-0.1028,0.73298,0.8843
430.621,48.21845,-0.10559,0.7285,0.88388
431.221,48.2774,-0.10725,0.72704,0.88345
431.821,48.33619,-0.10966,0.72811,0.88302
432.421,48.39479,-0.11065,0.72855,0.88259
433.021,48.45365,-0.11299,0.72841,0.88215
433.621,48.51259,-0.1153,0.72804,0.88172
434.221,48.57141,-0.11807,0.72207,0.88129
434.821,48.6305,-0.12045,0.72367,0.88086
435.421,48.68925,-0.1234,0.72327,0.88043
436.021,48.74803,-0.12644,0.7234,0.87999
436.621,48.80679,-0.12793,0.72442,0.87956
437.221,48.86577,-0.13064,0.72873,0.87913
437.821,48.92455,-0.1339,0.73024,0.87869
438.421,48.98338,-0.13706,0.73185,0.87826
439.021,49.04218,-0.14021,0.73365,0.87782
439.621,49.1008,-0.1438,0.73829,0.87739
440.221,49.15964,-0.14648,0.74307,0.87695
440.821,49.21852,-0.15101,0.74674,0.87652
441.421,49.27728,-0.15473,0.7513,0.87608
442.021,49.3362,-0.15825,0.75684,0.87564
442.621,49.39497,-0.16256,0.76152,0.87521
443.221,49.4538,-0.16658,0.76773,0.87477
443.821,49.51263,-0.17025,0.77216,0.87433
444.421,49.5716,-0.17511,0.77871,0.87389
445.021,49.6305,-0.17896,0.78472,0.87345
445.621,49.68932,-0.18401,0.79221,0.87301
446.221,49.74817,-0.18948,0.79591,0.87257
446.821,49.80703,-0.19448,0.80591,0.87213
447.421,49.86598,-0.20012,0.81044,0.87169
448.021,49.9249,-0.20643,0.82159,0.87125
448.621,49.98382,-0.21105,0.8275,0.87081
449.221,50.04278,-0.21804,0.83977,0.87037
449.821,50.10163,-0.22404,0.84572,0.86992
450.421,50.16061,-0.23096,0.85768,0.86948
451.021,50.21951,-0.23728,0.86639,0.86904
451.621,50.27877,-0.24497,0.87753,0.86859
452.221,50.33787,-0.25332,0.88857,0.86815
452.821,50.39689,-0.26141,0.901,0.86771
453.421,50.4558,-0.26988,0.9121,0.86726
454.021,50.5147,-0.27959,0.92286,0.86682
454.621,50.57372,-0.2884,0.9377,0.86637
455.221,50.63276,-0.29786,0.95089,0.86592
455.821,50.6918,-0.30757,0.96236,0.86548
456.421,50.75092,-0.31802,0.97593,0.86503
457.021,50.81004,-0.33097,0.99177,0.86458
457.621,50.86892,-0.34216,1.00788,0.86413
458.221,50.92807,-0.35283,1.0251,0.86369
458.821,50.98703,-0.36724,1.03996,0.86324
459.421,51.0462,-0.38092,1.05609,0.86279
460.021,51.10549,-0.39496,1.07735,0.86234
460.621,51.165,-0.41077,1.09606,0.86189
461.221,51.22432,-0.42619,1.11391,0.86144
461.821,51.2836,-0.44275,1.13715,0.86099
462.421,51.34271,-0.4601,1.15776,0.86054
463.021,51.40188,-0.47905,1.17797,0.86009
463.621,51.46119,-0.49722,1.20255,0.85964
464.221,51.52045,-0.5173,1.22503,0.85918
464.821,51.57995,-0.53785,1.25181,0.85873
465.421,51.6392,-0.55883,1.27776,0.85828
466.021,51.69856,-0.58177,1.30719,0.85782
466.621,51.75788,-0.60563,1.33655,0.85737
467.221,51.81727,-0.63,1.36497,0.85692
467.821,51.8765,-0.65777,1.39995,0.85646
468.421,51.93569,-0.68688,1.4275,0.85601
469.021,51.99517,-0.71729,1.46576,0.85555
469.621,52.05466,-0.74966,1.49952,0.8551
470.221,52.11435,-0.78147,1.53983,0.85464
470.821,52.17385,-0.81565,1.57819,0.85418
471.421,52.23345,-0.8511,1.62689,0.85373
472.021,52.29299,-0.89407,1.656,0.85327
472.621,52.3524,-0.93258,1.69504,0.85281
473.221,52.41183,-0.974,1.73267,0.85235
473.821,52.47119,-1.01312,1.79187,0.85189
474.421,52.5305,-1.05358,1.83057,0.85143
475.021,52.5895,-1.08678,1.87058,0.85098
475.621,52.64827,-1.08208,1.89554,0.85052
476.221,52.70705,-1.01664,1.93035,0.85006
476.821,52.76568,-1.04974,1.9816,0.84959
477.421,52.82427,-1.10729,2.02723,0.84913
478.021,52.88276,-1.17077,2.07228,0.84867
478.621,52.9413,-1.23512,2.11243,0.84821
479.221,53.0,-1.30278,2.15852,0.84775
479.821,53.0589,-1.37459,2.19153,0.84729
480.421,53.11778,-1.44632,2.22548,0.84682
481.021,53.17644,-1.52203,2.25199,0.84636
481.621,53.23515,-1.59568,2.28682,0.8459
482.221,53.29374,-1.675,2.31713,0.84543
482.821,53.35266,-1.75292,2.34018,0.84497
483.421,53.4115,-1.83767,2.36072,0.8445
484.021,53.47045,-1.91843,2.37706,0.84404
484.621,53.5294,-2.00696,2.38582,0.84357
485.221,53.58854,-2.09152,2.39158,0.8431
485.821,53.64781,-2.19034,2.39096,0.84264
486.421,53.70681,-2.28358,2.38694,0.84217
487.021,53.76599,-2.38572,2.3836,0.8417
487.621,53.82512,-2.48023,2.38938,0.84124
488.221,53.88449,-2.5783,2.35162,0.84077
488.821,53.9435,-2.67071,2.31391,0.8403
489.421,54.0027,-2.76757,2.26824,0.83983
490.021,54.06194,-2.85946,2.21492,0.83936
490.621,54.12106,-2.95337,2.15482,0.83889
491.221,54.1802,-3.04378,2.08602,0.83842
491.821,54.23914,-3.13384,2.0081,0.83795
492.421,54.29812,-3.22359,1.92444,0.83748
493.021,54.35715,-3.30427,1.83214,0.83701
493.621,54.41573,-3.38088,1.73098,0.83654
494.221,54.4743,-3.45423,1.62663,0.83607
494.821,54.5328,-3.51231,1.5159,0.83559
495.421,54.59129,-3.5706,1.40279,0.83512
496.021,54.6497,-3.63553,1.28946,0.83465
496.621,54.70821,-3.69069,1.17194,0.83418
497.221,54.76665,-3.74029,1.05492,0.8337
497.821,54.825,-3.78435,0.94583,0.83323
498.421,54.8834,-3.82053,0.83775,0.83275
499.021,54.9414,-3.86823,0.73078,0.83228
499.621,54.9993,-3.88894,0.63721,0.8318
500.221,55.05745,-3.91534,0.55312,0.83133
500.821,55.1154,-3.94271,0.47597,0.83085
501.421,55.1732,-3.96079,0.4078,0.83037
502.021,55.23106,-3.98047,0.3535,0.8299
502.621,55.2889,-3.99739,0.3032,0.82942
503.221,55.3468,-4.00656,0.26087,0.82894
503.821,55.4049,-4.0173,0.22912,0.82846
504.421,55.4628,-4.0426,0.20038,0.82799
505.021,55.5205,-4.04343,0.17603,0.82751
505.621,55.5788,-4.04179,0.15704,0.82703
506.221,55.6372,-4.04303,0.14265,0.82655
506.821,55.69549,-4.04311,0.12925,0.82607
507.421,55.7534,-4.0431,0.12071,0.82559
508.021,55.81146,-4.04442,0.11276,0.82511
508.621,55.86984,-4.04671,0.10902,0.82463
509.221,55.9285,-4.04673,0.10453,0.82415
509.821,55.9871,-4.04982,0.10283,0.82366
510.421,56.0456,-4.07111,0.10146,0.82318
511.021,56.10405,-4.06572,0.09534633,0.8227
511.621,56.1625,-4.04922,0.09495103,0.82222
512.221,56.22133,-4.04936,0.09183561,0.82173
512.821,56.28001,-4.04871,0.0901154,0.82125
513.421,56.33876,-4.05002,0.08973689,0.82077
514.021,56.3974,-4.04766,0.08773889,0.82028
514.621,56.4561,-4.04591,0.08716206,0.8198
515.221,56.5147,-4.04574,0.08530264,0.81931
515.821,56.5735,-4.04574,0.08577183,0.81883
516.421,56.63236,-4.04606,0.08466986,0.81834
517.021,56.6912,-4.0479,0.08441459,0.81785
517.621,56.75006,-4.05079,0.08351553,0.81737
518.221,56.809,-4.04804,0.08456179,0.81688
518.821,56.8679,-4.0479,0.08616489,0.81639
519.421,56.9269,-4.05341,0.08537399,0.81591
520.021,56.98565,-4.05144,0.08502886,0.81542
520.621,57.04465,-4.05035,0.08262406,0.81493
521.221,57.10365,-4.0521,0.08381567,0.81444
521.821,57.1627,-4.05829,0.08143368,0.81395
522.421,57.2218,-4.05436,0.08147571,0.81346
523.021,57.28079,-4.05642,0.08432465,0.81297
523.621,57.34001,-4.05923,0.08077326,0.81248
524.221,57.3992,-4.05342,0.08388411,0.81199
524.821,57.4581,-4.05978,0.08107571,0.8115
525.421,57.5174,-4.08843,0.07961156,0.81101
526.021,57.5769,-4.06383,0.0778065,0.81052
526.621,57.6365,-4.05379,0.07755386,0.81003
527.221,57.6961,-4.06088,0.07938991,0.80953
527.821,57.75926,-4.07302,0.07924345,0.80904
528.421,57.833,-5.99783,0.50635,0.80855
529.021,57.91834,-5.82982,1.09069,0.80805
529.621,57.99924,-5.45733,1.07252,0.80756
530.221,58.0694,-5.14755,0.91086,0.80707
530.821,58.1339,-4.92493,0.74589,0.80657
531.421,58.1954,-4.76605,0.6047,0.80608
532.021,58.2551,-4.62448,0.4875,0.80558
532.621,58.31385,-4.51198,0.39469,0.80509
533.221,58.3718,-4.41315,0.32217,0.80459
533.821,58.42944,-4.33651,0.26505,0.80409
534.421,58.4868,-4.27548,0.22406,0.8036
535.021,58.5443,-4.22519,0.19591,0.8031
535.621,58.6016,-4.18871,0.16798,0.8026
536.221,58.659,-4.15944,0.15231,0.80211
536.821,58.71656,-4.13755,0.13921,0.80161
537.421,58.774,-4.12026,0.12895,0.80111
538.021,58.8317,-4.10752,0.12313,0.80061
538.621,58.88932,-4.09831,0.11817,0.80011
539.221,58.94696,-4.09164,0.11616,0.79961
539.821,59.0048,-4.08632,0.11321,0.79911
540.421,59.06265,-4.08206,0.11291,0.79861
541.021,59.1203,-4.0789,0.10976,0.79811
541.621,59.17835,-4.07691,0.11058,0.79761
542.221,59.2367,-4.07539,0.10938,0.79711
542.821,59.2954,-4.07407,0.10966,0.79661
543.421,59.3543,-4.0732,0.11106,0.79611
544.021,59.4129,-4.07275,0.10966,0.7956
544.621,59.47149,-4.07209,0.11054,0.7951
545.221,59.53006,-4.07211,0.10822,0.7946
545.821,59.5889,-4.07077,0.1109,0.7941
546.421,59.6478,-4.06947,0.11093,0.79359
547.021,59.70681,-4.06877,0.11247,0.79309
547.621,59.7661,-4.0688,0.11392,0.79258
548.221,59.82532,-4.0688,0.11189,0.79208
548.821,59.88471,-4.0688,0.11281,0.79157
549.421,59.944,-4.0688,0.11202,0.79107
550.021,60.0035,-4.0688,0.11607,0.79056
550.621,60.06292,-4.0688,0.11564,0.79006
551.221,60.12209,-4.0688,0.11684,0.78955
551.821,60.18156,-4.0688,0.11402,0.78904
552.421,60.2411,-4.0688,0.11442,0.78854
553.021,60.30061,-4.06869,0.1149,0.78803
553.621,60.3605,-4.06781,0.11547,0.78752
554.221,60.4204,-4.06711,0.11499,0.78701
554.821,60.48046,-4.06715,0.11383,0.78651
555.421,60.53996,-4.06715,0.11607,0.786
556.021,60.59969,-4.06715,0.11528,0.78549
556.621,60.65931,-4.06715,0.11779,0.78498
557.221,60.71869,-4.06715,0.11404,0.78447
557.821,60.7786,-4.06715,0.11715,0.78396
558.421,60.8385,-4.06684,0.11597,0.78345
559.021,60.8987,-4.06615,0.11841,0.78294
559.621,60.95848,-4.06616,0.11724,0.78243
560.221,61.01835,-4.06616,0.1166,0.78192
560.821,61.0779,-4.06616,0.11585,0.78141
561.421,61.1379,-4.06618,0.11443,0.78089
562.021,61.1975,-4.06586,0.11503,0.78038
562.621,61.25725,-4.0655,0.11543,0.77987
563.221,61.31678,-4.0655,0.11839,0.77936
563.821,61.37641,-4.0656,0.1171,0.77884
564.421,61.4363,-4.06451,0.11862,0.77833
565.021,61.4962,-4.06418,0.11862,0.77782
565.621,61.556,-4.06418,0.12,0.7773
566.221,61.616,-4.063,0.11599,0.77679
566.821,61.67595,-4.06286,0.12119,0.77627
567.421,61.7359,-4.06286,0.12066,0.77576
568.021,61.7958,-4.06319,0.11972,0.77524
568.621,61.85578,-4.06319,0.12209,0.77473
569.221,61.91567,-4.06319,0.12204,0.77421
569.821,61.9756,-4.06319,0.12314,0.77369
570.421,62.03546,-4.06319,0.12193,0.77318
571.021,62.0954,-4.06316,0.12348,0.77266
571.621,62.155,-4.06221,0.12442,0.77214
572.221,62.21501,-4.06221,0.12467,0.77162
572.821,62.27499,-4.06221,0.12504,0.77111
573.421,62.33491,-4.06221,0.12605,0.77059
574.021,62.3953,-4.06125,0.12738,0.77007
574.621,62.4551,-4.06123,0.12513,0.76955
575.221,62.51509,-4.06214,0.12667,0.76903
575.821,62.57496,-4.06221,0.12565,0.76851
576.421,62.63488,-4.06221,0.12652,0.76799
577.021,62.69503,-4.06221,0.1245,0.76747
577.621,62.7548,-4.06221,0.12285,0.76695
578.221,62.81471,-4.06189,0.12446,0.76643
578.821,62.8749,-4.06188,0.12407,0.76591
579.421,62.93489,-4.06188,0.12412,0.76539
580.021,62.99491,-4.06095,0.1227,0.76487
580.621,63.0548,-4.05969,0.12229,0.76434
581.221,63.1148,-4.05958,0.12527,0.76382
581.821,63.1743,-4.06083,0.12281,0.7633
582.421,63.23438,-4.06089,0.12344,0.76278
583.021,63.2943,-4.06089,0.12372,0.76225
583.621,63.35425,-4.06089,0.12354,0.76173
584.221,63.41412,-4.06088,0.12154,0.7612
584.821,63.47387,-4.06056,0.12233,0.76068
585.421,63.5337,-4.06056,0.12258,0.76016
586.021,63.5933,-4.06056,0.12126,0.75963
586.621,63.6534,-4.06056,0.11977,0.75911
587.221,63.7134,-4.06056,0.12015,0.75858
587.821,63.77381,-4.06056,0.12012,0.75806
588.421,63.8338,-4.06011,0.11739,0.75753
589.021,63.8937,-4.05829,0.11761,0.757
589.621,63.95378,-4.0585,0.12006,0.75648
590.221,64.01384,-4.05957,0.11668,0.75595
590.821,64.07327,-4.05957,0.11828,0.75542
591.421,64.1332,-4.05957,0.11492,0.75489
592.021,64.1934,-4.05957,0.11509,0.75437
592.621,64.2539,-4.05957,0.11353,0.75384
593.221,64.3146,-4.05957,0.11215,0.75331
593.821,64.37425,-4.05957,0.11365,0.75278
594.421,64.43417,-4.05993,0.11438,0.75225
595.021,64.49396,-4.0599,0.11239,0.75172
595.621,64.55379,-4.06059,0.11038,0.75119
596.221,64.61359,-4.06056,0.11209,0.75066
596.821,64.6734,-4.05946,0.11041,0.75013
597.421,64.7332,-4.05957,0.11056,0.7496
598.021,64.79312,-4.05957,0.1105,0.74907
598.621,64.85303,-4.06026,0.10954,0.74854
599.221,64.9129,-4.0599,0.10786,0.74801
599.821,64.97279,-4.05989,0.1098,0.74748
600.421,65.0324,-4.05924,0.10831,0.74695
601.021,65.09224,-4.05924,0.10562,0.74642
601.621,65.1521,-4.05924,0.10583,0.74588
602.221,65.21202,-4.05924,0.10359,0.74535
602.821,65.2719,-4.05892,0.10509,0.74482
603.421,65.3319,-4.05893,0.1034,0.74428
604.021,65.3918,-4.0599,0.1036,0.74375
604.621,65.45174,-4.05895,0.10618,0.74322
605.221,65.51167,-4.05892,0.10254,0.74268
605.821,65.5718,-4.05892,0.10397,0.74215
606.421,65.63195,-4.05892,0.10069,0.74161
607.021,65.69219,-4.05893,0.10314,0.74108
607.621,65.75205,-4.05925,0.10302,0.74054
608.221,65.8122,-4.05925,0.10073,0.74001
608.821,65.8724,-4.05925,0.10382,0.73947
609.421,65.93255,-4.05925,0.1041,0.73894
610.021,65.99279,-4.05925,0.10426,0.7384
610.621,66.0529,-4.05925,0.10364,0.73786
611.221,66.11313,-4.05866,0.10358,0.73733
611.821,66.17335,-4.05958,0.10314,0.73679
612.421,66.2337,-4.05885,0.10451,0.73625
613.021,66.29405,-4.05892,0.1067,0.73572
613.621,66.3543,-4.05892,0.1059,0.73518
614.221,66.41458,-4.05892,0.10763,0.73464
614.821,66.47496,-4.05947,0.10627,0.7341
615.421,66.53528,-4.06024,0.10728,0.73356
616.021,66.59546,-4.05894,0.1097,0.73302
616.621,66.6552,-4.05892,0.10703,0.73248
617.221,66.7153,-4.05892,0.11005,0.73194
617.821,66.7757,-4.05887,0.11325,0.7314
618.421,66.83662,-4.06027,0.1089,0.73086
619.021,66.89725,-4.05991,0.11414,0.73032
619.621,66.95746,-4.05991,0.11378,0.72978
620.221,67.0175,-4.06115,0.11314,0.72924
620.821,67.0775,-4.06093,0.11412,0.7287
621.421,67.13749,-4.06089,0.11642,0.72816
622.021,67.1977,-4.06089,0.11762,0.72762
622.621,67.25786,-4.05964,0.1168,0.72708
623.221,67.31801,-4.05891,0.11701,0.72654
623.821,67.37805,-4.05859,0.11814,0.72599
624.421,67.43799,-4.0599,0.11946,0.72545
625.021,67.498,-4.0599,0.11887,0.72491
625.621,67.55807,-4.0599,0.12067,0.72436
626.221,67.61814,-4.0599,0.12325,0.72382
626.821,67.67817,-4.0599,0.12426,0.72328
627.421,67.73817,-4.05985,0.12225,0.72273
628.021,67.79795,-4.06122,0.12207,0.72219
628.621,67.85794,-4.0599,0.12734,0.72164
629.221,67.91801,-4.06046,0.12773,0.7211
629.821,67.97819,-4.06122,0.12858,0.72056
630.421,68.03878,-4.06122,0.12874,0.72001
631.021,68.09872,-4.06123,0.12725,0.71946
631.621,68.1588,-4.05957,0.12805,0.71892
632.221,68.21904,-4.05957,0.13111,0.71837
632.821,68.27942,-4.06023,0.13225,0.71783
633.421,68.3396,-4.06023,0.13157,0.71728
634.021,68.39981,-4.06023,0.13573,0.71673
634.621,68.4598,-4.06023,0.13684,0.71619
635.221,68.51992,-4.06023,0.13708,0.71564
635.821,68.5801,-4.06023,0.13959,0.71509
636.421,68.64028,-4.06023,0.13977,0.71455
637.021,68.70047,-4.06021,0.14151,0.714
637.621,68.7606,-4.06089,0.14173,0.71345
638.221,68.8207,-4.06087,0.14274,0.7129
638.821,68.88076,-4.0605,0.144,0.71235
639.421,68.94096,-4.06057,0.14445,0.7118
640.021,69.00113,-4.06057,0.14692,0.71125
640.621,69.06136,-4.06057,0.148,0.71071
641.221,69.12169,-4.06093,0.14548,0.71016
641.821,69.18173,-4.0609,0.14521,0.70961
642.421,69.2419,-4.06121,0.14714,0.70906
643.021,69.3018,-4.06122,0.14938,0.70851
643.621,69.36195,-4.06118,0.14993,0.70796
644.221,69.4221,-4.06187,0.15202,0.70741
644.821,69.48217,-4.06187,0.15455,0.70685
645.421,69.54175,-4.06202,0.15585,0.7063
646.021,69.60146,-4.06257,0.15388,0.70575
646.621,69.66152,-4.06188,0.15768,0.7052
647.221,69.72191,-4.06188,0.15885,0.70465
647.821,69.78262,-4.06188,0.15905,0.7041
648.421,69.84276,-4.06188,0.15914,0.70354
649.021,69.9029,-4.06182,0.16064,0.70299
649.621,69.96299,-4.06089,0.158,0.70244
649.921,69.99288,-4.06089,0.15949,0.70216