File: 01_Data/House_Wrap/STA/N2/10K_min/House_Wrap_STA_N2_10KData_220727_R2.csv
##Temp./Â°C,Time/min,Mass loss(subtr.2)/mg,DSC(subtr.2)/(mW/mg),Sensit./(uV/mW)
49.66,10.01,0.01812,0.001985294,1.07019
50.26,10.74205,0.01722465,0.04835823,1.07003
50.86,10.9292,0.01935621,0.08252128,1.06986
51.46,11.07049,0.01787164,0.11117,1.06969
52.06,11.19026,0.01780031,0.13352,1.06953
52.66,11.29672,0.01930318,0.15587,1.06936
53.26,11.39364,0.01884909,0.17335,1.0692
53.86,11.48413,0.01819473,0.18911,1.06903
54.46,11.56958,0.01752557,0.20216,1.06886
55.06,11.65203,0.01783735,0.21571,1.06869
55.66,11.73155,0.01920608,0.22768,1.06853
56.26,11.80888,0.02034777,0.23817,1.06836
56.86,11.88382,0.02017504,0.24862,1.06819
57.46,11.95695,0.01775542,0.25689,1.06802
58.06,12.0288,0.01849149,0.26334,1.06785
58.66,12.09957,0.02034762,0.27217,1.06768
59.26,12.1698,0.02009842,0.27681,1.06751
59.86,12.23932,0.0192669,0.28244,1.06734
60.46,12.30831,0.01943859,0.28741,1.06717
61.06,12.3764,0.02113346,0.29098,1.067
61.66,12.44373,0.02062003,0.29578,1.06682
62.26,12.5106,0.01987754,0.29767,1.06665
62.86,12.57708,0.02021597,0.29962,1.06648
63.46,12.6431,0.01989607,0.30357,1.06631
64.06,12.70832,0.02144666,0.30679,1.06613
64.66,12.77415,0.02141582,0.30627,1.06596
65.26,12.83998,0.02009866,0.30936,1.06578
65.86,12.90595,0.02109072,0.31071,1.06561
66.46,12.9709,0.02138033,0.31251,1.06544
67.06,13.0357,0.02010317,0.31352,1.06526
67.66,13.1001,0.02009201,0.31336,1.06508
68.26,13.164,0.02026966,0.3154,1.06491
68.86,13.2281,0.02162821,0.31763,1.06473
69.46,13.2922,0.02164127,0.3171,1.06456
70.06,13.35636,0.02162148,0.31881,1.06438
70.66,13.42029,0.02163001,0.31925,1.0642
71.26,13.48385,0.02066004,0.3201,1.06402
71.86,13.5472,0.02160935,0.32131,1.06384
72.46,13.61072,0.02033348,0.32394,1.06367
73.06,13.67416,0.02174613,0.32179,1.06349
73.66,13.73729,0.02173124,0.32598,1.06331
74.26,13.80018,0.02107464,0.32596,1.06313
74.86,13.86297,0.02043141,0.32656,1.06295
75.46,13.92581,0.02063435,0.3279,1.06277
76.06,13.9885,0.02168401,0.32864,1.06259
76.66,14.0508,0.02206863,0.32982,1.06241
77.26,14.1132,0.02186739,0.33013,1.06222
77.86,14.1755,0.02173999,0.33358,1.06204
78.46,14.23785,0.02169638,0.33366,1.06186
79.06,14.30004,0.02175033,0.33675,1.06168
79.66,14.3617,0.02181539,0.33789,1.06149
80.26,14.42335,0.02313269,0.33875,1.06131
80.86,14.4845,0.02194501,0.33763,1.06113
81.46,14.5464,0.02305972,0.34203,1.06094
82.06,14.60805,0.02356461,0.34253,1.06076
82.66,14.67,0.02306,0.34548,1.06057
83.26,14.73126,0.02305987,0.3447,1.06039
83.86,14.7922,0.02426768,0.34653,1.0602
84.46,14.853,0.02237454,0.34949,1.06001
85.06,14.91385,0.02239745,0.35021,1.05983
85.66,14.9749,0.0238684,0.35175,1.05964
86.26,15.0357,0.02394074,0.35295,1.05945
86.86,15.09632,0.02393996,0.35459,1.05927
87.46,15.1569,0.0250056,0.35526,1.05908
88.06,15.2173,0.02393617,0.35746,1.05889
88.66,15.27745,0.02394,0.35844,1.0587
89.26,15.3375,0.02394325,0.35844,1.05851
89.86,15.39698,0.02265394,0.35959,1.05832
90.46,15.457,0.02389143,0.36174,1.05813
91.06,15.517,0.02609921,0.36259,1.05794
91.66,15.57735,0.02813846,0.36491,1.05775
92.26,15.6373,0.02444348,0.36604,1.05756
92.86,15.6972,0.02187412,0.36778,1.05737
93.46,15.7568,0.02306476,0.36936,1.05718
94.06,15.81678,0.02306001,0.37151,1.05698
94.66,15.87635,0.02307399,0.37263,1.05679
95.26,15.93586,0.02438307,0.37511,1.0566
95.86,15.99557,0.02447102,0.37632,1.05641
96.46,16.05497,0.02436704,0.37666,1.05621
97.06,16.11459,0.02438039,0.37723,1.05602
97.66,16.17345,0.02308613,0.37956,1.05582
98.26,16.23264,0.02434765,0.38103,1.05563
98.86,16.29199,0.02618636,0.38304,1.05543
99.46,16.35165,0.02369649,0.38306,1.05524
100.06,16.41103,0.02373779,0.38395,1.05504
100.66,16.47,0.02372,0.38507,1.05484
101.26,16.52916,0.02372006,0.38875,1.05465
101.86,16.58817,0.02510295,0.38954,1.05445
102.46,16.6475,0.02370636,0.39188,1.05425
103.06,16.70669,0.02619761,0.39388,1.05405
103.66,16.76534,0.02646992,0.39409,1.05386
104.26,16.82444,0.02655343,0.39573,1.05366
104.86,16.8833,0.02514371,0.39933,1.05346
105.46,16.94249,0.02482061,0.40055,1.05326
106.06,17.00133,0.02482,0.40355,1.05306
106.66,17.06021,0.02482,0.40729,1.05286
107.26,17.11895,0.02481978,0.40713,1.05266
107.86,17.1777,0.02629351,0.40827,1.05246
108.46,17.2366,0.02524961,0.41005,1.05226
109.06,17.2954,0.02525013,0.41453,1.05205
109.66,17.35409,0.02560788,0.4162,1.05185
110.26,17.41254,0.02657099,0.41904,1.05165
110.86,17.4712,0.025914,0.42307,1.05145
111.46,17.53004,0.02591015,0.42627,1.05124
112.06,17.58856,0.0252596,0.42763,1.05104
112.66,17.64719,0.02597096,0.43152,1.05083
113.26,17.70544,0.02658003,0.43215,1.05063
113.86,17.76415,0.02658001,0.43716,1.05042
114.46,17.82285,0.02659491,0.4396,1.05022
115.06,17.88177,0.02790034,0.44344,1.05001
115.66,17.94035,0.02787886,0.44889,1.04981
116.26,17.9989,0.02657984,0.45183,1.0496
116.86,18.05734,0.02726665,0.45853,1.04939
117.46,18.1157,0.02784393,0.4634,1.04919
118.06,18.1741,0.02740578,0.4697,1.04898
118.66,18.23271,0.02657,0.47691,1.04877
119.26,18.29129,0.026659,0.48208,1.04856
119.86,18.3498,0.02789,0.4895,1.04835
120.46,18.40833,0.02935127,0.49653,1.04814
121.06,18.46671,0.02811364,0.50668,1.04793
121.66,18.5249,0.02680136,0.51645,1.04772
122.26,18.58332,0.0274432,0.52687,1.04751
122.86,18.6419,0.02745087,0.54234,1.0473
123.46,18.70014,0.02745264,0.55509,1.04709
124.06,18.7587,0.02744966,0.57319,1.04688
124.66,18.81714,0.02874552,0.59272,1.04667
125.26,18.87566,0.02839348,0.61508,1.04646
125.86,18.93411,0.02910831,0.64043,1.04624
126.46,18.9926,0.02902445,0.67193,1.04603
127.06,19.0514,0.02877003,0.70825,1.04582
127.66,19.11006,0.02877,0.75336,1.0456
128.26,19.1688,0.02877102,0.80601,1.04539
128.86,19.2274,0.03008965,0.86739,1.04517
129.46,19.28591,0.02833688,0.94101,1.04496
130.06,19.3445,0.0281117,1.02341,1.04474
130.66,19.40338,0.02943702,1.11638,1.04453
131.26,19.46239,0.02942669,1.22673,1.04431
131.86,19.5215,0.03073043,1.34643,1.04409
132.46,19.58099,0.02942871,1.47945,1.04388
133.06,19.64068,0.02840146,1.62898,1.04366
133.66,19.7005,0.02974957,1.7887,1.04344
134.26,19.7605,0.02975029,1.96086,1.04322
134.86,19.8205,0.02844402,2.13459,1.043
135.46,19.88064,0.02976689,2.28913,1.04278
136.06,19.9413,0.02975091,2.42185,1.04257
136.66,20.00179,0.02844037,2.52775,1.04235
137.26,20.0624,0.02928658,2.63392,1.04213
137.86,20.1229,0.02974993,2.73845,1.0419
138.46,20.18325,0.02975,2.83087,1.04168
139.06,20.24365,0.02974999,2.90326,1.04146
139.66,20.30397,0.02970931,2.96568,1.04124
140.26,20.3641,0.03106755,2.98789,1.04102
140.86,20.42403,0.0299505,2.96343,1.0408
141.46,20.4834,0.03108026,2.89279,1.04057
142.06,20.54261,0.03108,2.7266,1.04035
142.66,20.60095,0.03108,2.44567,1.04012
143.26,20.65908,0.03108,2.08748,1.0399
143.86,20.7163,0.03107993,1.71095,1.03968
144.46,20.77303,0.03094399,1.38794,1.03945
145.06,20.8294,0.02976294,1.14368,1.03923
145.66,20.88549,0.0300894,0.96169,1.039
146.26,20.94139,0.03008999,0.83114,1.03877
146.86,20.997,0.03011722,0.73113,1.03855
147.46,21.05256,0.03106815,0.66072,1.03832
148.06,21.10817,0.03106997,0.60755,1.03809
148.66,21.16375,0.03098324,0.56868,1.03786
149.26,21.21971,0.0291173,0.54123,1.03764
149.86,21.27585,0.02904883,0.52065,1.03741
150.46,21.33225,0.03040914,0.50315,1.03718
151.06,21.3885,0.03041,0.49284,1.03695
151.66,21.44487,0.03041,0.48499,1.03672
152.26,21.501,0.03041,0.47742,1.03649
152.86,21.55723,0.0304015,0.47252,1.03626
153.46,21.61384,0.03076704,0.47042,1.03603
154.06,21.67054,0.03073116,0.46614,1.0358
154.66,21.72702,0.03206031,0.46545,1.03556
155.26,21.78366,0.03206634,0.46436,1.03533
155.86,21.84029,0.03041989,0.46367,1.0351
156.46,21.89712,0.03042,0.46275,1.03487
157.06,21.9539,0.03041998,0.4626,1.03463
157.66,22.0106,0.03041356,0.46368,1.0344
158.26,22.06727,0.02943066,0.46083,1.03416
158.86,22.12402,0.02947206,0.46237,1.03393
159.46,22.18086,0.03075022,0.46197,1.03369
160.06,22.23767,0.03075,0.46298,1.03346
160.66,22.29469,0.03075,0.46362,1.03322
161.26,22.3516,0.03074979,0.46382,1.03299
161.86,22.40866,0.0304122,0.46442,1.03275
162.46,22.4656,0.03174603,0.46397,1.03251
163.06,22.52265,0.03179102,0.46509,1.03227
163.66,22.5797,0.03041998,0.46413,1.03204
164.26,22.63691,0.03041821,0.46398,1.0318
164.86,22.69407,0.02908836,0.46507,1.03156
165.46,22.75104,0.03040904,0.46551,1.03132
166.06,22.80799,0.03041,0.46683,1.03108
166.66,22.86516,0.03041,0.46632,1.03084
167.26,22.92246,0.03041,0.46811,1.0306
167.86,22.97971,0.03040995,0.46826,1.03036
168.46,23.03708,0.03135583,0.46781,1.03012
169.06,23.0942,0.03139998,0.46889,1.02988
169.66,23.15155,0.0314,0.46937,1.02964
170.26,23.2087,0.03139998,0.471,1.02939
170.86,23.26577,0.03124033,0.47179,1.02915
171.46,23.32302,0.0307399,0.47162,1.02891
172.06,23.38032,0.03074724,0.46981,1.02866
172.66,23.4377,0.0320364,0.47214,1.02842
173.26,23.4951,0.03141124,0.47209,1.02818
173.86,23.5524,0.03141033,0.47114,1.02793
174.46,23.60977,0.03174133,0.4753,1.02768
175.06,23.6671,0.03174001,0.47414,1.02744
175.66,23.72439,0.03174,0.47307,1.02719
176.26,23.7815,0.03174,0.47407,1.02695
176.86,23.8388,0.03174346,0.47502,1.0267
177.46,23.89591,0.03243775,0.47504,1.02645
178.06,23.95332,0.03240002,0.47361,1.0262
178.66,24.01066,0.0324,0.47558,1.02596
179.26,24.06813,0.0324,0.47784,1.02571
179.86,24.12491,0.03239976,0.4756,1.02546
180.46,24.18192,0.03320899,0.47716,1.02521
181.06,24.2392,0.03371222,0.47774,1.02496
181.66,24.29664,0.03301855,0.47774,1.02471
182.26,24.35417,0.03208337,0.47861,1.02446
182.86,24.4114,0.03140079,0.47886,1.02421
183.46,24.4686,0.0327124,0.47946,1.02396
184.06,24.5257,0.03271994,0.47974,1.02371
184.66,24.58285,0.03263615,0.47879,1.02345
185.26,24.6399,0.03238999,0.48079,1.0232
185.86,24.69699,0.03238942,0.47987,1.02295
186.46,24.75405,0.03336228,0.48114,1.02269
187.06,24.8109,0.03305004,0.48082,1.02244
187.66,24.86828,0.03305003,0.48271,1.02219
188.26,24.92549,0.03213826,0.48157,1.02193
188.86,24.9829,0.03173013,0.48226,1.02168
189.46,25.04,0.03173,0.48145,1.02142
190.06,25.09706,0.03242622,0.48234,1.02116
190.66,25.1544,0.03304844,0.48428,1.02091
191.26,25.21165,0.03171383,0.48395,1.02065
191.86,25.2689,0.03205987,0.48339,1.02039
192.46,25.32607,0.03206,0.48604,1.02014
193.06,25.38319,0.03205759,0.48473,1.01988
193.66,25.4403,0.03337777,0.4868,1.01962
194.26,25.49736,0.03337971,0.48685,1.01936
194.86,25.5545,0.03233195,0.48771,1.0191
195.46,25.6115,0.03207045,0.48728,1.01884
196.06,25.6685,0.03207,0.48742,1.01858
196.66,25.72556,0.03207,0.48843,1.01832
197.26,25.78264,0.03207036,0.48956,1.01806
197.86,25.83981,0.03240107,0.48941,1.0178
198.46,25.89685,0.03320795,0.49034,1.01754
199.06,25.954,0.0330508,0.48968,1.01728
199.66,26.01125,0.03228029,0.48995,1.01701
200.26,26.0685,0.03035657,0.49018,1.01675
200.86,26.12568,0.0317299,0.49239,1.01649
201.46,26.18293,0.03172893,0.49065,1.01622
202.06,26.2399,0.03239043,0.4905,1.01596
202.66,26.29705,0.03239095,0.49125,1.01569
203.26,26.3539,0.03376266,0.49211,1.01543
203.86,26.4108,0.03298454,0.49433,1.01516
204.46,26.46777,0.03238988,0.49392,1.0149
205.06,26.52487,0.03239,0.49461,1.01463
205.66,26.5823,0.03238999,0.49461,1.01436
206.26,26.6394,0.03239468,0.49729,1.0141
206.86,26.6965,0.03371263,0.49679,1.01383
207.46,26.7534,0.03369227,0.49638,1.01356
208.06,26.8105,0.03238985,0.49638,1.01329
208.66,26.86725,0.03239,0.49719,1.01302
209.26,26.924,0.03238999,0.49737,1.01275
209.86,26.98112,0.03238405,0.49921,1.01248
210.46,27.0383,0.03127855,0.49934,1.01221
211.06,27.09589,0.03238553,0.50025,1.01194
211.66,27.15281,0.03305476,0.50135,1.01167
212.26,27.20993,0.03305,0.50225,1.0114
212.86,27.267,0.03305001,0.50315,1.01113
213.46,27.32419,0.03200665,0.50286,1.01086
214.06,27.3815,0.03295309,0.50234,1.01058
214.66,27.43818,0.03423465,0.50346,1.01031
215.26,27.49509,0.03304321,0.50268,1.01004
215.86,27.552,0.03434372,0.50408,1.00976
216.46,27.60916,0.03305214,0.50308,1.00949
217.06,27.66645,0.03305,0.50319,1.00921
217.66,27.72359,0.03305003,0.50367,1.00894
218.26,27.78068,0.03306169,0.5021,1.00866
218.86,27.83792,0.03370979,0.50212,1.00839
219.46,27.8951,0.03369038,0.50352,1.00811
220.06,27.9523,0.03369221,0.5035,1.00783
220.66,28.0094,0.0327292,0.50297,1.00756
221.26,28.06652,0.03273096,0.50456,1.00728
221.86,28.12364,0.03408187,0.5059,1.007
222.46,28.1806,0.0327275,0.50518,1.00672
223.06,28.2379,0.03295015,0.50563,1.00644
223.66,28.29487,0.03302253,0.50596,1.00616
224.26,28.35218,0.03327994,0.50699,1.00588
224.86,28.4096,0.03328,0.50723,1.0056
225.46,28.467,0.03328153,0.50702,1.00532
226.06,28.52413,0.03459693,0.5077,1.00504
226.66,28.5812,0.03459,0.50645,1.00476
227.26,28.63832,0.03458981,0.50679,1.00448
227.86,28.6954,0.0356753,0.50772,1.0042
228.46,28.7527,0.0345276,0.50858,1.00391
229.06,28.80991,0.03327003,0.51,1.00363
229.66,28.8671,0.03327175,0.51022,1.00335
230.26,28.92438,0.03457464,0.50938,1.00306
230.86,28.9817,0.03326964,0.51127,1.00278
231.46,29.0388,0.03326971,0.51203,1.00249
232.06,29.096,0.0345738,0.51312,1.00221
232.66,29.15312,0.03346264,0.51325,1.00192
233.26,29.21019,0.03227998,0.51312,1.00164
233.86,29.2674,0.03338976,0.51283,1.00135
234.46,29.32449,0.03279931,0.51326,1.00106
235.06,29.38167,0.03228052,0.51402,1.00078
235.66,29.4388,0.03319788,0.51469,1.00049
236.26,29.4955,0.03426047,0.51539,1.0002
236.86,29.55195,0.03426,0.51536,0.99991
237.46,29.60877,0.03426408,0.51729,0.99962
238.06,29.6658,0.03294151,0.51739,0.99933
238.66,29.72335,0.03293979,0.51715,0.99904
239.26,29.7808,0.03364807,0.51948,0.99875
239.86,29.83783,0.03384779,0.51811,0.99846
240.46,29.89495,0.03534753,0.5179,0.99817
241.06,29.95202,0.03425956,0.51746,0.99788
241.66,30.0092,0.03426,0.51841,0.99758
242.26,30.0664,0.03425049,0.51858,0.99729
242.86,30.1233,0.03375956,0.51915,0.997
243.46,30.1803,0.03459011,0.51996,0.99671
244.06,30.2372,0.03459,0.52018,0.99641
244.66,30.29412,0.03458996,0.52019,0.99612
245.26,30.35121,0.03455979,0.52106,0.99582
245.86,30.4083,0.03425994,0.52276,0.99553
246.46,30.46551,0.03425951,0.52345,0.99523
247.06,30.5226,0.03555626,0.52148,0.99494
247.66,30.5796,0.03558076,0.52315,0.99464
248.26,30.6367,0.03426933,0.52205,0.99434
248.86,30.6938,0.03425441,0.52391,0.99404
249.46,30.75078,0.0355825,0.5238,0.99375
250.06,30.80756,0.03425973,0.5223,0.99345
250.66,30.8646,0.03425956,0.52265,0.99315
251.26,30.92168,0.03536077,0.52333,0.99285
251.86,30.97921,0.03557011,0.52445,0.99255
252.46,31.0365,0.03442247,0.52421,0.99225
253.06,31.09367,0.03458314,0.52689,0.99195
253.66,31.15073,0.03453399,0.52708,0.99165
254.26,31.20777,0.03403566,0.52821,0.99135
254.86,31.2649,0.03458766,0.52577,0.99105
255.46,31.3219,0.03644855,0.52627,0.99075
256.06,31.379,0.03468807,0.52833,0.99044
256.66,31.43613,0.0346805,0.5282,0.99014
257.26,31.4931,0.0343598,0.52919,0.98984
257.86,31.5502,0.03568221,0.52916,0.98953
258.46,31.60728,0.0355283,0.52988,0.98923
259.06,31.6643,0.03435951,0.53018,0.98892
259.66,31.7215,0.03436,0.53023,0.98862
260.26,31.7786,0.03435133,0.5301,0.98831
260.86,31.8356,0.03054602,0.53046,0.98801
261.46,31.8925,0.02866417,0.53183,0.9877
262.06,31.9495,0.02866705,0.53306,0.98739
262.66,32.00643,0.02997325,0.53039,0.98709
263.26,32.06346,0.03128782,0.53157,0.98678
263.86,32.12056,0.0326022,0.53154,0.98647
264.46,32.17758,0.03261015,0.53248,0.98616
265.06,32.2348,0.03309847,0.53388,0.98585
265.66,32.29185,0.03777914,0.53386,0.98554
266.26,32.3488,0.03756468,0.53323,0.98523
266.86,32.40579,0.03864853,0.5315,0.98492
267.46,32.46281,0.03732342,0.53276,0.98461
268.06,32.5199,0.03733259,0.53238,0.9843
268.66,32.5766,0.03600893,0.52988,0.98399
269.26,32.63342,0.03467839,0.53182,0.98368
269.86,32.69062,0.0365074,0.53209,0.98337
270.46,32.74792,0.03752369,0.533,0.98305
271.06,32.80551,0.03922069,0.53334,0.98274
271.66,32.86267,0.03969166,0.53401,0.98243
272.26,32.91981,0.03831988,0.53436,0.98211
272.86,32.97704,0.03688131,0.5351,0.9818
273.46,33.03425,0.03777269,0.5348,0.98148
274.06,33.09149,0.03565013,0.53748,0.98117
274.66,33.14865,0.03569025,0.53691,0.98085
275.26,33.20578,0.0349723,0.53682,0.98053
275.86,33.26307,0.03635696,0.53687,0.98022
276.46,33.3202,0.03568301,0.53613,0.9799
277.06,33.37733,0.03578154,0.53635,0.97958
277.66,33.43457,0.03437012,0.53669,0.97926
278.26,33.49158,0.03437,0.53571,0.97894
278.86,33.54887,0.03437,0.53712,0.97863
279.46,33.606,0.03437,0.53673,0.97831
280.06,33.66324,0.03437021,0.53653,0.97799
280.66,33.72043,0.03537424,0.53813,0.97767
281.26,33.77773,0.03545153,0.53652,0.97735
281.86,33.83521,0.0343695,0.53733,0.97702
282.46,33.8927,0.03437,0.53856,0.9767
283.06,33.95025,0.03437018,0.53789,0.97638
283.66,34.00782,0.03535869,0.53734,0.97606
284.26,34.06512,0.03404175,0.53793,0.97573
284.86,34.1224,0.03403976,0.5367,0.97541
285.46,34.1797,0.03500391,0.53561,0.97509
286.06,34.23693,0.03536004,0.53785,0.97476
286.66,34.29438,0.03540471,0.54006,0.97444
287.26,34.35185,0.03414001,0.53938,0.97411
287.86,34.4093,0.03470248,0.53813,0.97379
288.46,34.46674,0.03442997,0.53874,0.97346
289.06,34.52424,0.03469987,0.53882,0.97314
289.66,34.58182,0.0347,0.5409,0.97281
290.26,34.63948,0.0347,0.54045,0.97248
290.86,34.6969,0.0347,0.54088,0.97215
291.46,34.75427,0.03469851,0.54045,0.97183
292.06,34.81159,0.03337295,0.54316,0.9715
292.66,34.8691,0.03470452,0.54136,0.97117
293.26,34.92662,0.03370478,0.54352,0.97084
293.86,34.98403,0.03373084,0.54206,0.97051
294.46,35.04143,0.03502028,0.54334,0.97018
295.06,35.0987,0.03501602,0.54366,0.96985
295.66,35.1563,0.03680214,0.54225,0.96952
296.26,35.21353,0.03615439,0.54369,0.96918
296.86,35.27109,0.03622999,0.54325,0.96885
297.46,35.32853,0.03623,0.54463,0.96852
298.06,35.38604,0.03623659,0.54509,0.96819
298.66,35.4435,0.03479617,0.54581,0.96785
299.26,35.501,0.03483658,0.54619,0.96752
299.86,35.55847,0.03480268,0.54699,0.96718
300.46,35.61565,0.03577647,0.547,0.96685
301.06,35.67292,0.03498717,0.54727,0.96651
301.66,35.73021,0.03446063,0.54893,0.96618
302.26,35.78776,0.03340166,0.54782,0.96584
302.86,35.84519,0.03469048,0.54713,0.96551
303.46,35.9028,0.03469392,0.54776,0.96517
304.06,35.96031,0.03338031,0.54853,0.96483
304.66,36.01778,0.03473147,0.54845,0.96449
305.26,36.07545,0.03469003,0.54889,0.96416
305.86,36.13304,0.03469,0.55145,0.96382
306.46,36.19038,0.03469,0.54971,0.96348
307.06,36.24783,0.03469,0.54872,0.96314
307.66,36.30538,0.03469,0.55012,0.9628
308.26,36.36257,0.03469201,0.54886,0.96246
308.86,36.42029,0.03337716,0.54971,0.96212
309.46,36.47782,0.03488897,0.55096,0.96178
310.06,36.53525,0.03355081,0.55153,0.96143
310.66,36.5929,0.03477996,0.55055,0.96109
311.26,36.65052,0.0335994,0.55145,0.96075
311.86,36.70816,0.03292029,0.55037,0.96041
312.46,36.76631,0.03414594,0.55142,0.96006
313.06,36.82394,0.03419028,0.55021,0.95972
313.66,36.88175,0.03382006,0.55108,0.95937
314.26,36.93951,0.03382013,0.55226,0.95903
314.86,36.99733,0.03253083,0.55051,0.95868
315.46,37.05513,0.03298357,0.55058,0.95834
316.06,37.1128,0.03477328,0.55002,0.95799
316.66,37.1708,0.03650405,0.54805,0.95764
317.26,37.22851,0.03622862,0.5505,0.9573
317.86,37.28634,0.03303645,0.54931,0.95695
318.46,37.3437,0.03349796,0.54915,0.9566
319.06,37.4009,0.03337986,0.55209,0.95625
319.66,37.45874,0.03211671,0.55102,0.95591
320.26,37.51667,0.03322756,0.55027,0.95556
320.86,37.5747,0.03186296,0.55169,0.95521
321.46,37.63277,0.03376534,0.55101,0.95486
322.06,37.6907,0.0331597,0.55141,0.95451
322.66,37.7483,0.03427438,0.55199,0.95415
323.26,37.80608,0.03238832,0.55209,0.9538
323.86,37.86359,0.03294145,0.5535,0.95345
324.46,37.921,0.03221608,0.5528,0.9531
325.06,37.97867,0.03245148,0.5535,0.95275
325.66,38.03648,0.03484446,0.55505,0.95239
326.26,38.09437,0.03390979,0.55407,0.95204
326.86,38.1522,0.03360314,0.55567,0.95168
327.46,38.20984,0.03359026,0.55367,0.95133
328.06,38.2675,0.03226548,0.55575,0.95098
328.66,38.32504,0.03365433,0.55571,0.95062
329.26,38.38273,0.03229905,0.55531,0.95026
329.86,38.44043,0.03359967,0.55571,0.94991
330.46,38.49838,0.03458666,0.55599,0.94955
331.06,38.55622,0.03359425,0.55827,0.94919
331.66,38.614,0.0336,0.55584,0.94884
332.26,38.6717,0.0336,0.55408,0.94848
332.86,38.72917,0.03359979,0.55462,0.94812
333.46,38.787,0.03489122,0.55619,0.94776
334.06,38.8448,0.03220961,0.55461,0.9474
334.66,38.9026,0.03218001,0.55572,0.94704
335.26,38.96052,0.03218018,0.55536,0.94668
335.86,39.0182,0.03345897,0.55606,0.94632
336.46,39.076,0.03127245,0.55705,0.94596
337.06,39.13364,0.03186958,0.55612,0.9456
337.66,39.19141,0.03249142,0.55827,0.94524
338.26,39.24921,0.0325,0.55563,0.94487
338.86,39.3071,0.03236405,0.55671,0.94451
339.46,39.365,0.031255,0.5563,0.94415
340.06,39.4229,0.03250047,0.55717,0.94378
340.66,39.48085,0.03249793,0.55577,0.94342
341.26,39.53862,0.03119366,0.55728,0.94305
341.86,39.59641,0.03118999,0.55642,0.94269
342.46,39.65422,0.03116828,0.55633,0.94232
343.06,39.71202,0.0318496,0.55816,0.94196
343.66,39.76958,0.03185,0.55854,0.94159
344.26,39.82747,0.03184988,0.55844,0.94122
344.86,39.88531,0.03044271,0.5603,0.94086
345.46,39.94337,0.03183023,0.55973,0.94049
346.06,40.0014,0.02961061,0.55851,0.94012
346.66,40.05918,0.03010587,0.55963,0.93975
347.26,40.117,0.0313647,0.55987,0.93938
347.86,40.1746,0.03318584,0.56157,0.93901
348.46,40.2324,0.03217471,0.56175,0.93864
349.06,40.2902,0.03117116,0.56239,0.93827
349.66,40.3482,0.03217869,0.56308,0.9379
350.26,40.40635,0.03245501,0.56054,0.93753
350.86,40.46428,0.03223039,0.56018,0.93716
351.46,40.5222,0.03075362,0.56307,0.93679
352.06,40.57999,0.03075,0.56228,0.93642
352.66,40.63782,0.03005949,0.56564,0.93604
353.26,40.6957,0.03008998,0.56322,0.93567
353.86,40.7537,0.03008478,0.5636,0.93529
354.46,40.81171,0.03127351,0.56483,0.93492
355.06,40.86973,0.02997054,0.56318,0.93455
355.66,40.92776,0.03134803,0.56482,0.93417
356.26,40.9857,0.0293138,0.56603,0.93379
356.86,41.0437,0.02932009,0.56377,0.93342
357.46,41.10159,0.02942686,0.56519,0.93304
358.06,41.15943,0.02822853,0.5664,0.93267
358.66,41.2176,0.02975077,0.56738,0.93229
359.26,41.2757,0.02944133,0.56719,0.93191
359.86,41.3339,0.02987061,0.56703,0.93153
360.46,41.3919,0.03123057,0.56729,0.93115
361.06,41.44963,0.0298998,0.56734,0.93077
361.66,41.50752,0.02953997,0.56825,0.93039
362.26,41.5655,0.02953303,0.56776,0.93001
362.86,41.6235,0.03082524,0.5689,0.92963
363.46,41.68153,0.02952926,0.56838,0.92925
364.06,41.7393,0.02986992,0.56812,0.92887
364.66,41.79722,0.02987127,0.56809,0.92849
365.26,41.85525,0.0305129,0.5696,0.92811
365.86,41.91341,0.03053015,0.56994,0.92772
366.46,41.9715,0.02972193,0.56937,0.92734
367.06,42.0293,0.0295875,0.57027,0.92696
367.66,42.0874,0.02818957,0.57044,0.92657
368.26,42.14553,0.02918479,0.57035,0.92619
368.86,42.20367,0.02770028,0.57004,0.9258
369.46,42.26215,0.02867371,0.57198,0.92542
370.06,42.32031,0.02866,0.57087,0.92503
370.66,42.37832,0.02866315,0.57443,0.92465
371.26,42.43649,0.02767311,0.5737,0.92426
371.86,42.49465,0.02767012,0.57408,0.92387
372.46,42.55291,0.02790562,0.57253,0.92349
373.06,42.61111,0.02899002,0.57366,0.9231
373.66,42.66935,0.02898521,0.57426,0.92271
374.26,42.72743,0.02762056,0.57494,0.92232
374.86,42.78567,0.02898915,0.57427,0.92193
375.46,42.84381,0.028988,0.57645,0.92154
376.06,42.90207,0.0273421,0.57265,0.92115
376.66,42.96034,0.02734,0.57544,0.92076
377.26,43.01875,0.02734,0.57616,0.92037
377.86,43.07732,0.02734,0.57664,0.91998
378.46,43.1355,0.02733995,0.57641,0.91959
379.06,43.19379,0.02722217,0.57874,0.9192
379.66,43.2519,0.02690406,0.57894,0.9188
380.26,43.3101,0.02735043,0.57918,0.91841
380.86,43.3688,0.02735,0.57875,0.91802
381.46,43.4273,0.02735,0.58013,0.91762
382.06,43.48576,0.02734992,0.57801,0.91723
382.66,43.5443,0.0257638,0.57814,0.91683
383.26,43.60248,0.02771099,0.57929,0.91644
383.86,43.66085,0.02423019,0.58024,0.91604
384.46,43.7192,0.02558068,0.58088,0.91565
385.06,43.7774,0.02426158,0.58156,0.91525
385.66,43.83585,0.02527496,0.58188,0.91485
386.26,43.89433,0.0243713,0.5837,0.91445
386.86,43.95303,0.02337497,0.58312,0.91406
387.46,44.01153,0.02405202,0.58403,0.91366
388.06,44.07,0.02295006,0.58309,0.91326
388.66,44.1284,0.02448294,0.58651,0.91286
389.26,44.18651,0.02316743,0.58698,0.91246
389.86,44.24485,0.02316997,0.58484,0.91206
390.46,44.30322,0.02382668,0.58721,0.91166
391.06,44.36188,0.02318835,0.5882,0.91126
391.66,44.42085,0.02447974,0.5884,0.91086
392.26,44.47937,0.02294807,0.58593,0.91046
392.86,44.53774,0.0229058,0.58707,0.91005
393.46,44.59615,0.0242991,0.58772,0.90965
394.06,44.65456,0.02281593,0.58814,0.90925
394.66,44.71308,0.021852,0.58787,0.90884
395.26,44.77155,0.02184946,0.5889,0.90844
395.86,44.82997,0.02054014,0.58985,0.90804
396.46,44.88847,0.02186502,0.59015,0.90763
397.06,44.94689,0.0218537,0.59139,0.90723
397.66,45.0055,0.0205009,0.59276,0.90682
398.26,45.06413,0.02181669,0.59273,0.90641
398.86,45.12265,0.01998894,0.59274,0.90601
399.46,45.18117,0.01888134,0.59548,0.9056
400.06,45.23965,0.02164184,0.59681,0.90519
400.66,45.2982,0.01873649,0.59624,0.90478
401.26,45.3566,0.019427,0.59586,0.90438
401.86,45.41518,0.01943822,0.59848,0.90397
402.46,45.47371,0.01811463,0.59858,0.90356
403.06,45.53232,0.01778685,0.59984,0.90315
403.66,45.591,0.01681359,0.60236,0.90274
404.26,45.64954,0.01680009,0.60323,0.90233
404.86,45.70797,0.01611207,0.60525,0.90192
405.46,45.7665,0.01613999,0.60518,0.90151
406.06,45.82516,0.01619544,0.60564,0.90109
406.66,45.88361,0.01637252,0.60555,0.90068
407.26,45.9422,0.01637021,0.60638,0.90027
407.86,46.00078,0.01531557,0.60717,0.89986
408.46,46.05898,0.01373031,0.60744,0.89944
409.06,46.11777,0.01373019,0.6073,0.89903
409.66,46.17641,0.01383399,0.61165,0.89862
410.26,46.23488,0.01513412,0.61473,0.8982
410.86,46.29383,0.01383615,0.61168,0.89779
411.46,46.35236,0.01384001,0.61394,0.89737
412.06,46.4109,0.01342293,0.61495,0.89695
412.66,46.46958,0.01107889,0.61576,0.89654
413.26,46.5283,0.01212502,0.61521,0.89612
413.86,46.58658,0.01008565,0.61826,0.8957
414.46,46.64519,0.007004964,0.61708,0.89529
415.06,46.7038,0.01010642,0.61857,0.89487
415.66,46.76263,0.01010996,0.61839,0.89445
416.26,46.8215,0.00860759,0.62288,0.89403
416.86,46.88019,0.008680235,0.62532,0.89361
417.46,46.939,0.007147124,0.62651,0.89319
418.06,46.99781,0.00715052,0.62738,0.89277
418.66,47.05638,0.003145672,0.62946,0.89235
419.26,47.11506,0.005218463,0.62817,0.89193
419.86,47.1736,0.00412822,0.63198,0.89151
420.46,47.2322,0.00351435,0.63389,0.89109
421.06,47.29091,0.003521169,0.63309,0.89066
421.66,47.34949,0.002209416,0.6347,0.89024
422.26,47.4082,0.002281245,0.63678,0.88982
422.86,47.46694,0.000767443,0.64084,0.88939
423.46,47.52568,-0.000655805,0.63848,0.88897
424.06,47.5844,-0.002022681,0.6407,0.88854
424.66,47.6432,-0.002079234,0.64323,0.88812
425.26,47.702,-0.00480698,0.64401,0.88769
425.86,47.76092,-0.004544019,0.64368,0.88727
426.46,47.81975,-0.006269514,0.64446,0.88684
427.06,47.87843,-0.00743709,0.64593,0.88642
427.66,47.9371,-0.00915827,0.64589,0.88599
428.26,47.9958,-0.01106119,0.64976,0.88556
428.86,48.0544,-0.01201595,0.65213,0.88513
429.46,48.11318,-0.013904,0.65569,0.8847
430.06,48.17184,-0.01521536,0.65753,0.88428
430.66,48.2305,-0.01656976,0.65675,0.88385
431.26,48.28944,-0.01798523,0.65986,0.88342
431.86,48.34837,-0.01930699,0.66033,0.88299
432.46,48.4073,-0.02374904,0.66483,0.88256
433.06,48.4661,-0.02404916,0.66692,0.88213
433.66,48.52476,-0.02556795,0.67007,0.8817
434.26,48.5834,-0.02710954,0.67335,0.88126
434.86,48.6421,-0.02837227,0.67467,0.88083
435.46,48.70095,-0.03276119,0.67843,0.8804
436.06,48.75985,-0.03455831,0.68283,0.87997
436.66,48.81872,-0.03743147,0.68458,0.87953
437.26,48.87746,-0.03909685,0.6908,0.8791
437.86,48.936,-0.04215203,0.69371,0.87866
438.46,48.9947,-0.04645231,0.7003,0.87823
439.06,49.05344,-0.04807743,0.70434,0.8778
439.66,49.1121,-0.04986607,0.7068,0.87736
440.26,49.17071,-0.05388105,0.71331,0.87692
440.86,49.2293,-0.05539757,0.71626,0.87649
441.46,49.28818,-0.05875247,0.72445,0.87605
442.06,49.347,-0.06310954,0.72622,0.87561
442.66,49.40592,-0.06577185,0.73281,0.87518
443.26,49.46463,-0.07056489,0.73746,0.87474
443.86,49.52325,-0.07400721,0.74421,0.8743
444.46,49.5818,-0.07768497,0.75047,0.87386
445.06,49.64059,-0.08249985,0.75744,0.87342
445.66,49.69954,-0.0870014,0.76482,0.87298
446.26,49.75851,-0.09177059,0.7692,0.87254
446.86,49.8176,-0.09689548,0.77363,0.8721
447.46,49.8765,-0.0994145,0.78324,0.87166
448.06,49.93557,-0.10608,0.7899,0.87122
448.66,49.99454,-0.11126,0.79671,0.87078
449.26,50.05348,-0.11652,0.80925,0.87034
449.86,50.11244,-0.12455,0.81496,0.86989
450.46,50.17153,-0.12928,0.82452,0.86945
451.06,50.23059,-0.13658,0.8332,0.86901
451.66,50.2895,-0.1438,0.84358,0.86856
452.26,50.34836,-0.14968,0.85477,0.86812
452.86,50.40735,-0.15764,0.86493,0.86768
453.46,50.46631,-0.1642,0.87408,0.86723
454.06,50.52551,-0.17306,0.88672,0.86679
454.66,50.5844,-0.18168,0.9006,0.86634
455.26,50.64332,-0.19033,0.91332,0.86589
455.86,50.70247,-0.20172,0.9281,0.86545
456.46,50.7616,-0.21027,0.94146,0.865
457.06,50.82067,-0.21805,0.95506,0.86455
457.66,50.87986,-0.23063,0.97029,0.86411
458.26,50.93911,-0.24168,0.9856,0.86366
458.86,50.99827,-0.2541,0.99955,0.86321
459.46,51.0574,-0.26803,1.02029,0.86276
460.06,51.11655,-0.28048,1.03703,0.86231
460.66,51.1755,-0.29629,1.05268,0.86186
461.26,51.2346,-0.30898,1.07406,0.86141
461.86,51.29385,-0.32606,1.09232,0.86096
462.46,51.35309,-0.34157,1.11426,0.86051
463.06,51.4125,-0.3563,1.13814,0.86006
463.66,51.47173,-0.37701,1.16008,0.85961
464.26,51.53089,-0.39708,1.18408,0.85915
464.86,51.5901,-0.41259,1.20591,0.8587
465.46,51.64954,-0.43476,1.23147,0.85825
466.06,51.7088,-0.45343,1.26141,0.85779
466.66,51.7682,-0.47892,1.2885,0.85734
467.26,51.8275,-0.50318,1.32161,0.85689
467.86,51.88673,-0.52756,1.35162,0.85643
468.46,51.94619,-0.55764,1.38563,0.85598
469.06,52.00553,-0.58374,1.42002,0.85552
469.66,52.065,-0.61345,1.45108,0.85507
470.26,52.1243,-0.64614,1.48481,0.85461
470.86,52.18346,-0.67904,1.51653,0.85415
471.46,52.24264,-0.7132,1.5513,0.8537
472.06,52.3018,-0.7497,1.59037,0.85324
472.66,52.36096,-0.78676,1.62905,0.85278
473.26,52.42038,-0.82771,1.67753,0.85232
473.86,52.47995,-0.869,1.71161,0.85186
474.46,52.53944,-0.9124,1.76065,0.8514
475.06,52.59915,-0.96312,1.80428,0.85095
475.66,52.6586,-1.00831,1.8342,0.85049
476.26,52.7181,-1.06157,1.88478,0.85003
476.86,52.7776,-1.11329,1.93513,0.84956
477.46,52.8371,-1.16948,1.97852,0.8491
478.06,52.89683,-1.23017,2.01216,0.84864
478.66,52.9567,-1.29256,2.05635,0.84818
479.26,53.01642,-1.35344,2.0979,0.84772
479.86,53.0762,-1.42206,2.13505,0.84726
480.46,53.1357,-1.48502,2.16574,0.84679
481.06,53.1952,-1.55838,2.19589,0.84633
481.66,53.2547,-1.6278,2.23101,0.84587
482.26,53.31417,-1.70212,2.25,0.8454
482.86,53.37376,-1.77769,2.27353,0.84494
483.46,53.4334,-1.85706,2.2913,0.84447
484.06,53.4931,-1.93323,2.30511,0.84401
484.66,53.55284,-2.01765,2.31589,0.84354
485.26,53.61258,-2.09497,2.32446,0.84307
485.86,53.67215,-2.18252,2.32864,0.84261
486.46,53.73157,-2.26181,2.32154,0.84214
487.06,53.79074,-2.34863,2.30947,0.84167
487.66,53.85006,-2.432,2.28965,0.84121
488.26,53.9095,-2.51902,2.26411,0.84074
488.86,53.96872,-2.60087,2.22783,0.84027
489.46,54.02802,-2.68713,2.18222,0.8398
490.06,54.08705,-2.76267,2.13265,0.83933
490.66,54.146,-2.84814,2.07513,0.83886
491.26,54.2048,-2.92291,2.01149,0.83839
491.86,54.2631,-3.00029,1.93564,0.83792
492.46,54.3219,-3.07435,1.85207,0.83745
493.06,54.38078,-3.1434,1.76414,0.83698
493.66,54.44,-3.21497,1.66621,0.83651
494.26,54.4987,-3.27794,1.56757,0.83604
494.86,54.5572,-3.34158,1.45986,0.83556
495.46,54.61543,-3.39564,1.34805,0.83509
496.06,54.6735,-3.44478,1.23705,0.83462
496.66,54.7318,-3.49238,1.12173,0.83414
497.26,54.79029,-3.53889,1.00964,0.83367
497.86,54.8485,-3.57435,0.89941,0.8332
498.46,54.9069,-3.61117,0.792,0.83272
499.06,54.9653,-3.63829,0.69196,0.83225
499.66,55.0235,-3.66627,0.59566,0.83177
500.26,55.0819,-3.68654,0.50935,0.8313
500.86,55.1402,-3.70446,0.4333,0.83082
501.46,55.19826,-3.72145,0.36427,0.83034
502.06,55.2566,-3.7337,0.30663,0.82987
502.66,55.3149,-3.74186,0.25536,0.82939
503.26,55.3735,-3.74713,0.21418,0.82891
503.86,55.4324,-3.75429,0.17907,0.82843
504.46,55.49135,-3.76281,0.14809,0.82796
505.06,55.55027,-3.75779,0.12445,0.82748
505.66,55.60931,-3.76459,0.10192,0.827
506.26,55.668,-3.76496,0.08788356,0.82652
506.86,55.72694,-3.76786,0.07613878,0.82604
507.46,55.78569,-3.76946,0.07016294,0.82556
508.06,55.8448,-3.76949,0.0658378,0.82508
508.66,55.90376,-3.76969,0.06145892,0.8246
509.26,55.9627,-3.77115,0.05793097,0.82411
509.86,56.02174,-3.77105,0.06020782,0.82363
510.46,56.08064,-3.77105,0.06432815,0.82315
511.06,56.13978,-3.77323,0.06432994,0.82267
511.66,56.19914,-3.7756,0.05488394,0.82219
512.26,56.2588,-3.77126,0.05146104,0.8217
512.86,56.3184,-3.77205,0.04628327,0.82122
513.46,56.378,-3.77039,0.0457924,0.82073
514.06,56.4375,-3.77107,0.04482735,0.82025
514.66,56.4971,-3.77162,0.04347046,0.81977
515.26,56.55655,-3.77146,0.04280864,0.81928
515.86,56.616,-3.77213,0.04376156,0.81879
516.46,56.6754,-3.77204,0.04367069,0.81831
517.06,56.7348,-3.77204,0.04529981,0.81782
517.66,56.7942,-3.76967,0.04650951,0.81734
518.26,56.8539,-3.77184,0.04805459,0.81685
518.86,56.91361,-3.77214,0.04688004,0.81636
519.46,56.97303,-3.77053,0.04855966,0.81587
520.06,57.0325,-3.77335,0.04947231,0.81539
520.66,57.09219,-3.77068,0.05171379,0.8149
521.26,57.15175,-3.77191,0.0506611,0.81441
521.86,57.2114,-3.77258,0.05002924,0.81392
522.46,57.2708,-3.77203,0.05138694,0.81343
523.06,57.33028,-3.77204,0.04770968,0.81294
523.66,57.3898,-3.77204,0.04828493,0.81245
524.26,57.44927,-3.77204,0.04804412,0.81196
524.86,57.50884,-3.77204,0.04761074,0.81147
525.46,57.56833,-3.77204,0.04960423,0.81098
526.06,57.6281,-3.77204,0.04810401,0.81049
526.66,57.6877,-3.77204,0.04698277,0.80999
527.26,57.74734,-3.77093,0.04325929,0.8095
527.86,57.8065,-3.77077,0.03999336,0.80901
528.46,57.8659,-3.76919,0.04213298,0.80852
529.06,57.9253,-3.7699,0.04008761,0.80802
529.66,57.98497,-3.7704,0.04120234,0.80753
530.26,58.04459,-3.77186,0.04025902,0.80703
530.86,58.1041,-3.77187,0.03871624,0.80654
531.46,58.1636,-3.77018,0.03998032,0.80604
532.06,58.2231,-3.77188,0.04006751,0.80555
532.66,58.28255,-3.7707,0.04255488,0.80505
533.26,58.3421,-3.77306,0.03899387,0.80456
533.86,58.4016,-3.77029,0.03914891,0.80406
534.46,58.4613,-3.77028,0.04181871,0.80357
535.06,58.52077,-3.77028,0.04137349,0.80307
535.66,58.58025,-3.77028,0.03945297,0.80257
536.26,58.63975,-3.77092,0.04137952,0.80207
536.86,58.6993,-3.7716,0.04096182,0.80158
537.46,58.759,-3.77028,0.04158415,0.80108
538.06,58.8187,-3.77083,0.03987755,0.80058
538.66,58.87846,-3.7716,0.0407485,0.80008
539.26,58.93793,-3.77159,0.04199293,0.79958
539.86,58.99755,-3.77028,0.04158857,0.79908
540.46,59.0571,-3.77094,0.04274141,0.79858
541.06,59.11655,-3.77113,0.04299905,0.79808
541.66,59.17586,-3.7716,0.04152659,0.79758
542.26,59.23536,-3.77181,0.04253418,0.79708
542.86,59.295,-3.77015,0.04334291,0.79658
543.46,59.35473,-3.77017,0.04210136,0.79607
544.06,59.4144,-3.773,0.04431937,0.79557
544.66,59.47415,-3.77169,0.04345505,0.79507
545.26,59.53374,-3.7716,0.0427784,0.79457
545.86,59.5932,-3.77162,0.04371325,0.79406
546.46,59.65305,-3.77299,0.04478589,0.79356
547.06,59.7128,-3.77205,0.0456776,0.79306
547.66,59.7726,-3.77188,0.04411768,0.79255
548.26,59.83255,-3.77193,0.04407674,0.79205
548.86,59.89213,-3.77193,0.04393914,0.79154
549.46,59.95171,-3.77157,0.04404487,0.79104
550.06,60.0113,-3.7716,0.04448512,0.79053
550.66,60.07121,-3.77028,0.04483934,0.79002
551.26,60.131,-3.7716,0.04440492,0.78952
551.86,60.19099,-3.7716,0.04653094,0.78901
552.46,60.2508,-3.77002,0.04655443,0.7885
553.06,60.31064,-3.77139,0.04734816,0.788
553.66,60.3706,-3.77209,0.04659559,0.78749
554.26,60.4304,-3.77212,0.04542129,0.78698
554.86,60.49,-3.77281,0.04543426,0.78647
555.46,60.5496,-3.77185,0.04695955,0.78596
556.06,60.6093,-3.77293,0.04518579,0.78546
556.66,60.6691,-3.77139,0.0460231,0.78495
557.26,60.729,-3.77049,0.0477608,0.78444
557.86,60.78895,-3.7715,0.04759083,0.78393
558.46,60.84861,-3.77155,0.04642798,0.78342
559.06,60.9083,-3.77206,0.04581279,0.78291
559.66,60.96768,-3.77215,0.04763106,0.7824
560.26,61.0274,-3.77215,0.04653693,0.78188
560.86,61.08735,-3.77117,0.04735142,0.78137
561.46,61.1475,-3.77117,0.04858527,0.78086
562.06,61.2072,-3.77215,0.04780286,0.78035
562.66,61.26686,-3.77214,0.05029299,0.77984
563.26,61.3266,-3.77235,0.0486716,0.77932
563.86,61.3862,-3.77212,0.04924579,0.77881
564.46,61.44635,-3.77117,0.05032148,0.7783
565.06,61.5061,-3.7741,0.05155282,0.77778
565.66,61.56586,-3.77608,0.05031254,0.77727
566.26,61.6258,-3.77133,0.05189036,0.77675
566.86,61.6856,-3.77169,0.05110687,0.77624
567.46,61.74561,-3.77084,0.05262062,0.77572
568.06,61.80548,-3.76962,0.05229298,0.77521
568.66,61.865,-3.77094,0.05287674,0.77469
569.26,61.92474,-3.77228,0.05243468,0.77418
569.86,61.9844,-3.76986,0.0526072,0.77366
570.46,62.04415,-3.76934,0.05365731,0.77314
571.06,62.10439,-3.77085,0.05273879,0.77263
571.66,62.16423,-3.77116,0.05601371,0.77211
572.26,62.22394,-3.77214,0.05364502,0.77159
572.86,62.28375,-3.77248,0.0534038,0.77107
573.46,62.3433,-3.77155,0.05549864,0.77055
574.06,62.40319,-3.77116,0.05251764,0.77004
574.66,62.46303,-3.77116,0.05887969,0.76952
575.26,62.52279,-3.77116,0.05826612,0.769
575.86,62.58265,-3.77116,0.05699359,0.76848
576.46,62.6425,-3.77116,0.0574292,0.76796
577.06,62.70248,-3.77116,0.05515607,0.76744
577.66,62.7625,-3.77117,0.05849443,0.76692
578.26,62.82251,-3.77247,0.0567823,0.7664
578.86,62.88267,-3.77111,0.05805281,0.76587
579.46,62.94282,-3.77197,0.05920513,0.76535
580.06,63.003,-3.77116,0.05718758,0.76483
580.66,63.06301,-3.77116,0.0591968,0.76431
581.26,63.12333,-3.77116,0.05934801,0.76379
581.86,63.1833,-3.77236,0.0605585,0.76326
582.46,63.24335,-3.77117,0.05985049,0.76274
583.06,63.3036,-3.77245,0.06038055,0.76222
583.66,63.3636,-3.76983,0.06077615,0.76169
584.26,63.42369,-3.76983,0.06309253,0.76117
584.86,63.48373,-3.77148,0.06141734,0.76065
585.46,63.54348,-3.77248,0.06011498,0.76012
586.06,63.60309,-3.77232,0.06181654,0.7596
586.66,63.6631,-3.76987,0.06224674,0.75907
587.26,63.72319,-3.7704,0.06485337,0.75855
587.86,63.78317,-3.77106,0.06313563,0.75802
588.46,63.84321,-3.76877,0.06232962,0.7575
589.06,63.90299,-3.76874,0.06747656,0.75697
589.66,63.9629,-3.77023,0.06459237,0.75644
590.26,64.0227,-3.77017,0.06530028,0.75592
590.86,64.08252,-3.77017,0.06578806,0.75539
591.46,64.1421,-3.77018,0.06672095,0.75486
592.06,64.20201,-3.77144,0.06637741,0.75433
592.66,64.26195,-3.76951,0.06623181,0.7538
593.26,64.322,-3.76951,0.06640395,0.75328
593.86,64.38199,-3.7718,0.06667728,0.75275
594.46,64.44184,-3.77182,0.06571457,0.75222
595.06,64.50147,-3.77181,0.06716516,0.75169
595.66,64.5613,-3.77116,0.06756044,0.75116
596.26,64.62122,-3.7705,0.06860325,0.75063
596.86,64.68122,-3.7705,0.06719494,0.7501
597.46,64.74141,-3.7705,0.06916846,0.74957
598.06,64.80139,-3.7705,0.06993464,0.74904
598.66,64.8614,-3.7705,0.07093703,0.74851
599.26,64.92134,-3.7705,0.07191276,0.74798
599.86,64.98137,-3.77049,0.07208526,0.74745
600.46,65.04146,-3.77054,0.07119081,0.74691
601.06,65.1014,-3.77028,0.07056428,0.74638
601.66,65.16167,-3.77028,0.07320522,0.74585
602.26,65.2218,-3.7714,0.07307176,0.74532
602.86,65.28196,-3.76945,0.07484512,0.74478
603.46,65.34206,-3.77018,0.07405839,0.74425
604.06,65.40207,-3.77017,0.07685843,0.74372
604.66,65.46218,-3.76886,0.07494315,0.74318
605.26,65.52221,-3.76983,0.07530716,0.74265
605.86,65.58211,-3.76985,0.07651174,0.74211
606.46,65.64199,-3.76985,0.07831059,0.74158
607.06,65.70215,-3.76985,0.0755922,0.74104
607.66,65.7624,-3.76985,0.07805618,0.74051
608.26,65.82259,-3.76886,0.07988837,0.73997
608.86,65.88252,-3.77019,0.07785198,0.73944
609.46,65.94246,-3.77018,0.07903922,0.7389
610.06,66.0024,-3.77015,0.07871393,0.73837
610.66,66.0625,-3.76919,0.07929398,0.73783
611.26,66.1226,-3.76992,0.08113047,0.73729
611.86,66.1827,-3.7718,0.08193006,0.73676
612.46,66.24275,-3.7705,0.08225198,0.73622
613.06,66.30266,-3.77039,0.08339423,0.73568
613.66,66.36278,-3.76908,0.08256801,0.73514
614.26,66.423,-3.76909,0.0869273,0.7346
614.86,66.48312,-3.77046,0.08569876,0.73407
615.46,66.5432,-3.76972,0.08941263,0.73353
616.06,66.60322,-3.76859,0.08899159,0.73299
616.66,66.6632,-3.76918,0.08936437,0.73245
617.26,66.72325,-3.76922,0.0912844,0.73191
617.86,66.78333,-3.77046,0.08979144,0.73137
618.46,66.84326,-3.76907,0.09090646,0.73083
619.06,66.90325,-3.76907,0.09282605,0.73029
619.66,66.9633,-3.77112,0.09530124,0.72975
620.26,67.0234,-3.77073,0.09497128,0.72921
620.86,67.0835,-3.76973,0.0969037,0.72867
621.46,67.1436,-3.76973,0.09713048,0.72813
622.06,67.20381,-3.76973,0.09716254,0.72758
622.66,67.264,-3.76977,0.09796859,0.72704
623.26,67.324,-3.76861,0.09980824,0.7265
623.86,67.3841,-3.76951,0.0999175,0.72596
624.46,67.44413,-3.7694,0.10116,0.72541
625.06,67.5039,-3.7694,0.10193,0.72487
625.66,67.56405,-3.76945,0.10177,0.72433
626.26,67.6242,-3.76862,0.10259,0.72379
626.86,67.68441,-3.76832,0.1046,0.72324
627.46,67.7445,-3.76971,0.10347,0.7227
628.06,67.80455,-3.76841,0.10577,0.72215
628.66,67.86451,-3.76841,0.10595,0.72161
629.26,67.9246,-3.76985,0.10722,0.72106
629.86,67.985,-3.76984,0.10843,0.72052
630.46,68.04526,-3.76991,0.10933,0.71997
631.06,68.10552,-3.76782,0.11004,0.71943
631.66,68.16591,-3.76918,0.11148,0.71888
632.26,68.22598,-3.77058,0.11121,0.71834
632.86,68.28615,-3.76923,0.11107,0.71779
633.46,68.34648,-3.7702,0.11574,0.71725
634.06,68.40686,-3.76853,0.1161,0.7167
634.66,68.46725,-3.76787,0.1177,0.71615
635.26,68.5275,-3.76925,0.12048,0.7156
635.86,68.5876,-3.76928,0.12036,0.71506
636.46,68.64795,-3.76508,0.12073,0.71451
637.06,68.70814,-3.77007,0.12302,0.71396
637.66,68.76835,-3.76738,0.12582,0.71341
638.26,68.82848,-3.77024,0.12631,0.71287
638.86,68.8886,-3.76766,0.1289,0.71232
639.46,68.94842,-3.7652,0.13096,0.71177
640.06,69.0086,-3.7674,0.13148,0.71122
640.66,69.06899,-3.76872,0.13647,0.71067
641.26,69.12976,-3.76832,0.13762,0.71012
641.86,69.19023,-3.76963,0.14209,0.70957
642.46,69.25058,-3.76809,0.14608,0.70902
643.06,69.31099,-3.7681,0.14512,0.70847
643.66,69.3712,-3.76776,0.14802,0.70792
644.26,69.4315,-3.76776,0.14946,0.70737
644.86,69.4919,-3.76776,0.1463,0.70682
645.46,69.55201,-3.76776,0.14582,0.70627
646.06,69.61251,-3.76776,0.14497,0.70572
646.66,69.67312,-3.76776,0.14482,0.70516
647.26,69.73368,-3.76794,0.14256,0.70461
647.86,69.794,-3.76908,0.13922,0.70406
648.46,69.85424,-3.76908,0.13892,0.70351
649.06,69.91453,-3.76727,0.13782,0.70296
649.66,69.97542,-3.76677,0.13662,0.7024
649.86,69.9957,-3.76677,0.13662,0.70222