File: 01_Data/House_Wrap/STA/N2/10K_min/House_Wrap_STA_N2_10KData_220727_R3.csv
##Temp./Â°C,Time/min,Mass loss(subtr.2)/mg,DSC(subtr.2)/(mW/mg),Sensit./(uV/mW)
49.315,10.01,-0.00692,0.01050869,1.07028
49.915,10.74525,-0.006010948,0.05915111,1.07012
50.515,10.93158,-0.002353821,0.09693668,1.06996
51.115,11.07381,-0.005416157,0.12643,1.06979
51.715,11.19338,-0.004759573,0.15349,1.06962
52.315,11.29985,-0.00452421,0.17752,1.06946
52.915,11.39591,-0.005613544,0.19886,1.06929
53.515,11.48601,-0.00354232,0.21347,1.06912
54.115,11.57232,-0.00609798,0.22986,1.06896
54.715,11.6544,-0.005055131,0.24498,1.06879
55.315,11.7337,-0.002926621,0.25483,1.06862
55.915,11.8108,-0.003120302,0.26704,1.06845
56.515,11.8858,-0.003114081,0.27765,1.06829
57.115,11.95951,-0.003216188,0.28794,1.06812
57.715,12.0313,-0.0002220587,0.29593,1.06795
58.315,12.1022,-0.002642636,0.30329,1.06778
58.915,12.1713,-0.00426534,0.30946,1.06761
59.515,12.24053,-0.004288079,0.31736,1.06744
60.115,12.309,-0.00304933,0.32264,1.06727
60.715,12.37732,-0.00273336,0.32669,1.06709
61.315,12.44479,-0.00543605,0.33315,1.06692
61.915,12.51177,-0.00546472,0.33764,1.06675
62.515,12.5784,-0.002409878,0.34078,1.06658
63.115,12.6447,-0.00326646,0.34273,1.06641
63.715,12.7113,-0.00355527,0.34753,1.06623
64.315,12.7772,-0.001024058,0.35,1.06606
64.915,12.84251,-0.001499462,0.35132,1.06588
65.515,12.90741,-0.00171048,0.3539,1.06571
66.115,12.97229,-0.0007680914,0.35589,1.06554
66.715,13.03694,-0.00208887,0.357,1.06536
67.315,13.1015,-0.0020355,0.35828,1.06519
67.915,13.16566,-0.001418732,0.36085,1.06501
68.515,13.2297,-0.000658552,0.36125,1.06483
69.115,13.29369,-0.000632691,0.36241,1.06466
69.715,13.35779,-0.0006708592,0.36581,1.06448
70.315,13.4218,0.000493373,0.36693,1.0643
70.915,13.4855,-0.0006602314,0.36836,1.06413
71.515,13.54906,0.0001794254,0.36822,1.06395
72.115,13.61236,-0.000820831,0.37177,1.06377
72.715,13.6754,-0.0005585669,0.37028,1.06359
73.315,13.73833,0.000743684,0.37246,1.06341
73.915,13.80096,-0.0005443528,0.37461,1.06323
74.515,13.86359,-0.000535358,0.3765,1.06305
75.115,13.926,-0.0005049246,0.37729,1.06287
75.715,13.9883,-0.0006399551,0.3772,1.06269
76.315,14.05064,-0.00100296,0.37917,1.06251
76.915,14.11299,-0.000680136,0.3828,1.06233
77.515,14.17544,-0.002030711,0.382,1.06215
78.115,14.2379,-0.000432942,0.38367,1.06196
78.715,14.29986,-0.000445347,0.38433,1.06178
79.315,14.3615,-0.000782562,0.38591,1.0616
79.915,14.4234,-0.000780173,0.38911,1.06142
80.515,14.48499,-0.0006804904,0.39068,1.06123
81.115,14.5464,-0.002901733,0.3906,1.06105
81.715,14.60794,-0.001210568,0.39394,1.06086
82.315,14.669,0.0001015949,0.39614,1.06068
82.915,14.73,0.000110007,0.39824,1.06049
83.515,14.7909,2.407172e-05,0.40055,1.06031
84.115,14.8517,-0.000291957,0.40144,1.06012
84.715,14.91231,-0.00107733,0.40349,1.05994
85.315,14.9729,-0.00153933,0.4062,1.05975
85.915,15.03323,-0.000168542,0.40823,1.05956
86.515,15.09365,-0.001175123,0.40841,1.05937
87.115,15.1539,-4.745545e-05,0.41054,1.05919
87.715,15.2142,-0.001563879,0.41333,1.059
88.315,15.2738,-0.000231824,0.41415,1.05881
88.915,15.3336,-0.0003785171,0.41458,1.05862
89.515,15.39326,-0.00038039,0.41816,1.05843
90.115,15.4534,-0.001540211,0.41797,1.05824
90.715,15.5131,-0.001405771,0.42241,1.05805
91.315,15.5731,-0.0001092342,0.42296,1.05786
91.915,15.63335,0.000108084,0.42422,1.05767
92.515,15.69307,-0.0001099475,0.42632,1.05748
93.115,15.7527,-0.001478369,0.42723,1.05729
93.715,15.81218,-0.0008911372,0.42815,1.0571
94.315,15.87144,-0.0008999012,0.43311,1.0569
94.915,15.9307,-0.00144989,0.43251,1.05671
95.515,15.99001,-0.00011997,0.43487,1.05652
96.115,16.04916,-0.000120215,0.43572,1.05632
96.715,16.10815,0.001194735,0.43649,1.05613
97.315,16.1674,-0.001224033,0.43833,1.05593
97.915,16.22644,-0.001429833,0.44007,1.05574
98.515,16.2859,-0.001104222,0.44313,1.05555
99.115,16.34504,-0.000107972,0.44478,1.05535
99.715,16.404,-0.0007082571,0.44713,1.05515
100.315,16.46286,-0.00216313,0.44995,1.05496
100.915,16.52126,-0.001329779,0.45076,1.05476
101.515,16.58014,0.0009917763,0.45292,1.05456
102.115,16.6392,-0.0001893348,0.45372,1.05437
102.715,16.69819,-0.000307669,0.45619,1.05417
103.315,16.75702,-0.000223731,0.45791,1.05397
103.915,16.81576,0.001072665,0.46061,1.05377
104.515,16.87444,-0.0002204916,0.46317,1.05357
105.115,16.93318,-0.0002202863,0.46549,1.05337
105.715,16.99186,0.001061003,0.4657,1.05317
106.315,17.0505,-0.0003403792,0.46791,1.05297
106.915,17.10915,-0.0003402141,0.46961,1.05277
107.515,17.16776,0.000952491,0.47298,1.05257
108.115,17.22645,-0.0003326026,0.47522,1.05237
108.715,17.28495,-0.000290151,0.47841,1.05217
109.315,17.34386,-0.0005623703,0.48093,1.05197
109.915,17.40249,-0.0005518373,0.48396,1.05177
110.515,17.46128,0.000761848,0.48772,1.05156
111.115,17.51986,0.001427673,0.48853,1.05136
111.715,17.57872,0.0007595974,0.4929,1.05116
112.315,17.6385,0.00207074,0.49466,1.05095
112.915,17.69985,0.002088047,0.50043,1.05075
113.515,17.7612,0.0006497196,0.50294,1.05054
114.115,17.82245,-0.0007161523,0.50573,1.05034
114.715,17.88114,-0.000667634,0.51154,1.05013
115.315,17.93975,-0.000549649,0.51683,1.04993
115.915,17.99798,-0.000555638,0.51948,1.04972
116.515,18.0564,0.0007686093,0.52448,1.04951
117.115,18.1147,0.000683746,0.52884,1.04931
117.715,18.17311,0.00143732,0.53567,1.0491
118.315,18.23165,0.000760091,0.54004,1.04889
118.915,18.29022,0.000758145,0.54793,1.04868
119.515,18.34901,0.00206845,0.55754,1.04847
120.115,18.4075,0.0006493697,0.56545,1.04826
120.715,18.466,-0.0003045904,0.57478,1.04805
121.315,18.52424,0.0006538537,0.58549,1.04785
121.915,18.5827,0.000650269,0.59614,1.04763
122.515,18.6411,-0.000412651,0.60882,1.04742
123.115,18.69981,0.0006591692,0.62269,1.04721
123.715,18.7584,0.0006596364,0.64186,1.047
124.315,18.81675,0.001953781,0.66085,1.04679
124.915,18.87505,0.0006741524,0.68329,1.04658
125.515,18.9334,0.0006500095,0.71023,1.04637
126.115,18.99182,0.0006500003,0.74166,1.04615
126.715,19.05047,0.0006501498,0.78225,1.04594
127.315,19.10916,0.001967698,0.827,1.04573
127.915,19.16788,0.00102555,0.87644,1.04551
128.515,19.2268,0.0018342,0.94255,1.0453
129.115,19.2853,0.00180915,1.0121,1.04508
129.715,19.34434,0.0005005458,1.0943,1.04487
130.315,19.40328,0.001967818,1.19097,1.04465
130.915,19.46242,0.00075515,1.29912,1.04443
131.515,19.52144,0.001970173,1.41457,1.04422
132.115,19.5805,0.00197,1.54203,1.044
132.715,19.64004,0.001969999,1.67533,1.04378
133.315,19.69998,0.002298975,1.82157,1.04357
133.915,19.75996,0.001968221,1.97423,1.04335
134.515,19.82,0.00263002,2.135,1.04313
135.115,19.8801,0.00329031,2.29125,1.04291
135.715,19.9402,0.003290105,2.44294,1.04269
136.315,20.00029,0.00197189,2.59749,1.04247
136.915,20.061,0.003289105,2.75157,1.04225
137.515,20.12145,0.00252022,2.9009,1.04203
138.115,20.18255,0.003605295,3.02488,1.04181
138.715,20.24372,0.003290672,3.11311,1.04159
139.315,20.3046,0.00328669,3.18154,1.04137
139.915,20.36509,0.004597161,3.21027,1.04115
140.515,20.42456,0.004999488,3.15082,1.04092
141.115,20.48391,0.004609506,2.93686,1.0407
141.715,20.543,0.004584412,2.66588,1.04048
142.315,20.60161,0.00328965,2.40122,1.04025
142.915,20.65965,0.00329,2.16468,1.04003
143.515,20.71708,0.00329,1.92691,1.03981
144.115,20.77386,0.00329,1.65605,1.03958
144.715,20.83036,0.00329003,1.38751,1.03935
145.315,20.88635,0.001893,1.17073,1.03913
145.915,20.94215,0.0032884,1.00525,1.0389
146.515,20.99774,0.003288401,0.88307,1.03868
147.115,21.05331,0.001973769,0.7923,1.03845
147.715,21.10899,0.001977087,0.72515,1.03822
148.315,21.16452,0.00293968,0.67187,1.038
148.915,21.22004,0.003180086,0.64123,1.03777
149.515,21.2758,0.0004876679,0.61234,1.03754
150.115,21.33147,0.001859217,0.58927,1.03731
150.715,21.3874,0.002541756,0.57457,1.03708
151.315,21.44357,0.004169747,0.56265,1.03685
151.915,21.49974,0.004166104,0.55572,1.03662
152.515,21.55615,0.002863685,0.54815,1.03639
153.115,21.6127,0.004199643,0.54239,1.03616
153.715,21.66923,0.00186074,0.53945,1.03593
154.315,21.72591,0.002205144,0.5388,1.0357
154.915,21.7823,0.00360735,0.53866,1.03546
155.515,21.83887,0.003949856,0.53451,1.03523
156.115,21.8954,0.003950001,0.53446,1.035
156.715,21.9521,0.003951533,0.53517,1.03477
157.315,22.00893,0.002618833,0.53432,1.03453
157.915,22.0657,0.002247227,0.53404,1.0343
158.515,22.12256,0.002630817,0.53521,1.03406
159.115,22.1795,0.003937353,0.53632,1.03383
159.715,22.23675,0.002596249,0.53682,1.03359
160.315,22.2938,0.002630725,0.53723,1.03336
160.915,22.35056,0.003965627,0.53817,1.03312
161.515,22.40729,0.003956514,0.53661,1.03289
162.115,22.46409,0.002631896,0.53685,1.03265
162.715,22.52107,0.00263005,0.53704,1.03241
163.315,22.5782,0.00212303,0.53808,1.03217
163.915,22.63516,0.00159944,0.53963,1.03194
164.515,22.69209,0.00218132,0.54113,1.0317
165.115,22.74924,0.0035109,0.54064,1.03146
165.715,22.80675,0.003526107,0.54089,1.03122
166.315,22.86385,0.003774064,0.54012,1.03098
166.915,22.92105,0.001872942,0.5403,1.03074
167.515,22.97835,0.002151706,0.54003,1.0305
168.115,23.03546,0.002059085,0.54061,1.03026
168.715,23.09275,0.002079992,0.54261,1.03002
169.315,23.14985,0.00208,0.54265,1.02977
169.915,23.2069,0.002080005,0.54333,1.02953
170.515,23.26389,0.002090078,0.54603,1.02929
171.115,23.32106,0.00306697,0.54668,1.02905
171.715,23.37828,0.00221549,0.54767,1.0288
172.315,23.4356,0.002028793,0.5477,1.02856
172.915,23.49266,0.003399083,0.5459,1.02832
173.515,23.54974,0.00339956,0.54865,1.02807
174.115,23.6069,0.00351553,0.54936,1.02783
174.715,23.6642,0.003510003,0.54903,1.02758
175.315,23.72123,0.00351,0.54804,1.02733
175.915,23.7778,0.003509992,0.54924,1.02709
176.515,23.83481,0.003449856,0.5511,1.02684
177.115,23.8922,0.002189568,0.55196,1.02659
177.715,23.9499,0.00219,0.55285,1.02635
178.315,24.00739,0.002189749,0.5527,1.0261
178.915,24.06469,0.00359173,0.55403,1.02585
179.515,24.12165,0.00361999,0.55343,1.0256
180.115,24.1786,0.003620008,0.55366,1.02535
180.715,24.23576,0.00365268,0.55619,1.0251
181.315,24.29267,0.00366429,0.55467,1.02485
181.915,24.34969,0.00292401,0.55488,1.0246
182.515,24.4069,0.003610167,0.55667,1.02435
183.115,24.46434,0.00360999,0.55881,1.0241
183.715,24.52165,0.003601901,0.5597,1.02385
184.315,24.5789,0.002300514,0.55984,1.0236
184.915,24.63583,0.001071062,0.55884,1.02335
185.515,24.69247,0.00199703,0.56059,1.02309
186.115,24.74939,0.00216928,0.55949,1.02284
186.715,24.80614,0.002189944,0.56234,1.02259
187.315,24.86325,0.002190001,0.56027,1.02233
187.915,24.91995,0.00218998,0.56195,1.02208
188.515,24.97695,0.001865756,0.56207,1.02182
189.115,25.034,0.001861515,0.56368,1.02157
189.715,25.0912,0.003185232,0.56334,1.02131
190.315,25.14835,0.001744075,0.56358,1.02106
190.915,25.20541,0.002107831,0.56397,1.0208
191.515,25.26249,0.00370762,0.56534,1.02054
192.115,25.3198,0.00308513,0.56662,1.02028
192.715,25.37695,0.0002164964,0.56747,1.02003
193.315,25.43395,0.002980985,0.56614,1.01977
193.915,25.49106,0.004728718,0.56676,1.01951
194.515,25.548,0.004509643,0.56717,1.01925
195.115,25.60505,0.004465872,0.56549,1.01899
195.715,25.66214,0.00177869,0.56796,1.01873
196.315,25.71906,0.003147014,0.56977,1.01847
196.915,25.77598,0.00317996,0.57035,1.01821
197.515,25.83304,0.003207568,0.57092,1.01795
198.115,25.89019,0.000315346,0.57045,1.01769
198.715,25.94724,0.002757523,0.57216,1.01743
199.315,26.0045,0.00339048,0.57207,1.01716
199.915,26.06158,0.004831726,0.57284,1.0169
200.515,26.11859,0.003974233,0.57217,1.01664
201.115,26.1758,0.003950027,0.57307,1.01637
201.715,26.23297,0.00395,0.57467,1.01611
202.315,26.28998,0.00395,0.57555,1.01585
202.915,26.347,0.004045229,0.5768,1.01558
203.515,26.40375,0.002630205,0.57554,1.01532
204.115,26.4607,0.002665131,0.57555,1.01505
204.715,26.5177,0.002312968,0.57687,1.01478
205.315,26.5749,0.00230001,0.57932,1.01452
205.915,26.63215,0.002300963,0.57834,1.01425
206.515,26.68927,0.00257086,0.57877,1.01398
207.115,26.74639,0.003280193,0.57919,1.01371
207.715,26.8032,0.00328018,0.57862,1.01345
208.315,26.86015,0.00260723,0.58151,1.01318
208.915,26.91703,0.002798205,0.58149,1.01291
209.515,26.9739,0.002949925,0.58347,1.01264
210.115,27.03098,0.002954884,0.58488,1.01237
210.715,27.08789,0.004274898,0.5843,1.0121
211.315,27.1448,0.00296197,0.58443,1.01183
211.915,27.20171,0.00295967,0.58255,1.01156
212.515,27.2587,0.001686837,0.58613,1.01129
213.115,27.31588,0.003026467,0.58538,1.01101
213.715,27.373,0.003639103,0.58648,1.01074
214.315,27.4302,0.00295355,0.58531,1.01047
214.915,27.4872,0.00295992,0.58581,1.0102
215.515,27.54445,0.001538699,0.58739,1.00992
216.115,27.6015,0.00295877,0.58761,1.00965
216.715,27.6585,0.002955432,0.58833,1.00937
217.315,27.71568,0.00426236,0.58879,1.0091
217.915,27.77298,0.003288858,0.58869,1.00882
218.515,27.83025,0.00329,0.58899,1.00855
219.115,27.8877,0.00329,0.59132,1.00827
219.715,27.9449,0.00329,0.59023,1.00799
220.315,28.0022,0.003285923,0.59011,1.00772
220.915,28.0595,0.00295986,0.59154,1.00744
221.515,28.11637,0.001811834,0.59245,1.00716
222.115,28.17359,0.00181085,0.5928,1.00688
222.715,28.23078,0.00295237,0.59332,1.0066
223.315,28.288,0.003938275,0.59227,1.00633
223.915,28.34514,0.003939159,0.59362,1.00605
224.515,28.4023,0.002345812,0.59659,1.00577
225.115,28.4595,0.002396204,0.59697,1.00549
225.715,28.51672,0.00372961,0.59622,1.0052
226.315,28.57384,0.002760984,0.59739,1.00492
226.915,28.63076,0.0009967278,0.59858,1.00464
227.515,28.6879,0.001012111,0.59933,1.00436
228.115,28.74502,0.001686442,0.59835,1.00408
228.715,28.8023,0.0009963297,0.59875,1.00379
229.315,28.85952,0.002376636,0.60036,1.00351
229.915,28.9165,0.002409423,0.60021,1.00323
230.515,28.9736,0.003704025,0.60114,1.00294
231.115,29.03045,0.003729998,0.60207,1.00266
231.715,29.08744,0.00373,0.60174,1.00237
232.315,29.14439,0.003729577,0.60214,1.00209
232.915,29.2011,0.0030558,0.60374,1.0018
233.515,29.25815,0.00326797,0.60235,1.00151
234.115,29.31519,0.004390586,0.60522,1.00123
234.715,29.37237,0.00396195,0.60364,1.00094
235.315,29.42966,0.003734838,0.60584,1.00065
235.915,29.48667,0.005040409,0.60376,1.00036
236.515,29.54372,0.00433127,0.60375,1.00008
237.115,29.60068,0.002418005,0.60692,0.99979
237.715,29.65758,0.003719173,0.60765,0.9995
238.315,29.7146,0.003766645,0.60733,0.99921
238.915,29.77165,0.00241888,0.60814,0.99892
239.515,29.82875,0.003709722,0.60857,0.99863
240.115,29.8863,0.00273915,0.60739,0.99834
240.715,29.94319,0.00274,0.60934,0.99804
241.315,30.00015,0.00274,0.60965,0.99775
241.915,30.05718,0.00273997,0.60992,0.99746
242.515,30.11396,0.003479043,0.61057,0.99717
243.115,30.1711,0.004059929,0.61032,0.99687
243.715,30.22815,0.00406,0.6102,0.99658
244.315,30.2851,0.00405291,0.61129,0.99629
244.915,30.34188,0.005240483,0.61131,0.99599
245.515,30.39855,0.004269922,0.61114,0.9957
246.115,30.4555,0.00674604,0.61435,0.9954
246.715,30.51254,0.00593267,0.61483,0.99511
247.315,30.5701,0.001748287,0.61297,0.99481
247.915,30.62735,0.00318069,0.61282,0.99451
248.515,30.68435,0.00318,0.61363,0.99422
249.115,30.74141,0.00318,0.61364,0.99392
249.715,30.7984,0.00318,0.61397,0.99362
250.315,30.8555,0.00318026,0.61287,0.99332
250.915,30.91276,0.00228918,0.61438,0.99302
251.515,30.97,0.003179972,0.61256,0.99272
252.115,31.0272,0.003180004,0.61462,0.99242
252.715,31.08431,0.003186132,0.61489,0.99212
253.315,31.14139,0.00185937,0.61441,0.99182
253.915,31.19834,0.00318226,0.61758,0.99152
254.515,31.2555,0.003155305,0.61544,0.99122
255.115,31.3126,0.00175602,0.61593,0.99092
255.715,31.36972,0.003077435,0.61632,0.99062
256.315,31.42672,0.001750656,0.61779,0.99031
256.915,31.48381,0.001749973,0.61757,0.99001
257.515,31.5409,0.00173421,0.61962,0.98971
258.115,31.59849,0.001717617,0.61762,0.9894
258.715,31.65575,0.003065842,0.6179,0.9891
259.315,31.713,0.002072706,0.61929,0.98879
259.915,31.7699,0.002079981,0.61992,0.98849
260.515,31.8272,0.001064911,0.62015,0.98818
261.115,31.88438,0.001099553,0.62105,0.98788
261.715,31.9417,0.002201657,0.62124,0.98757
262.315,31.99938,0.002410004,0.62265,0.98726
262.915,32.05593,0.00241,0.62058,0.98696
263.515,32.11293,0.00241,0.62155,0.98665
264.115,32.1701,0.002410001,0.62319,0.98634
264.715,32.22752,0.002363341,0.62253,0.98603
265.315,32.28521,0.003729031,0.62234,0.98572
265.915,32.34231,0.003665068,0.62297,0.98541
266.515,32.39949,0.003399712,0.62453,0.9851
267.115,32.45647,0.002051199,0.62431,0.98479
267.715,32.51357,0.001082309,0.62478,0.98448
268.315,32.57079,0.00108905,0.62571,0.98417
268.915,32.6279,0.002527624,0.62493,0.98386
269.515,32.685,0.00252001,0.62608,0.98354
270.115,32.74216,0.00252,0.62737,0.98323
270.715,32.79911,0.002520218,0.62774,0.98292
271.315,32.856,0.001216983,0.62772,0.98261
271.915,32.91312,0.002506536,0.63023,0.98229
272.515,32.9703,0.002519818,0.62744,0.98198
273.115,33.02755,0.002735632,0.62839,0.98166
273.715,33.08486,0.002520128,0.62963,0.98135
274.315,33.1419,0.0025008,0.6284,0.98103
274.915,33.199,0.003828265,0.62793,0.98072
275.515,33.25623,0.002519398,0.6296,0.9804
276.115,33.3134,0.003529964,0.62949,0.98008
276.715,33.37057,0.002849811,0.62927,0.97976
277.315,33.42774,0.002844078,0.63137,0.97945
277.915,33.4848,0.00417454,0.62938,0.97913
278.515,33.54197,0.0014553,0.63164,0.97881
279.115,33.59925,0.00284666,0.63151,0.97849
279.715,33.65654,0.003487552,0.63284,0.97817
280.315,33.71391,0.003193847,0.63078,0.97785
280.915,33.77132,0.00285004,0.63396,0.97753
281.515,33.82871,0.002858259,0.6322,0.97721
282.115,33.88579,0.004121218,0.63413,0.97689
282.715,33.9428,0.001525105,0.63516,0.97657
283.315,33.9998,0.00285073,0.6331,0.97624
283.915,34.05683,0.001862764,0.63472,0.97592
284.515,34.11423,0.001860018,0.63322,0.9756
285.115,34.17171,0.001877006,0.63456,0.97527
285.715,34.22907,0.0005679011,0.63502,0.97495
286.315,34.28645,0.003274079,0.63635,0.97463
286.915,34.34377,0.0005520064,0.63516,0.9743
287.515,34.4011,0.0005490875,0.63588,0.97398
288.115,34.45843,0.001972287,0.63563,0.97365
288.715,34.51562,0.00196999,0.63589,0.97332
289.315,34.5727,0.001948364,0.63592,0.973
289.915,34.6299,0.000659829,0.6354,0.97267
290.515,34.68724,0.001317598,0.6357,0.97234
291.115,34.7444,0.00323855,0.63818,0.97201
291.715,34.80154,0.001844062,0.63485,0.97169
292.315,34.8581,0.003184905,0.63884,0.97136
292.915,34.91522,0.002194246,0.63878,0.97103
293.515,34.97251,0.001322531,0.63642,0.9707
294.115,35.02973,0.0008590579,0.63923,0.97037
294.715,35.08765,0.001524191,0.6377,0.97004
295.315,35.14478,0.002848223,0.63816,0.96971
295.915,35.20207,0.002892578,0.63925,0.96937
296.515,35.2594,0.00189695,0.6378,0.96904
297.115,35.31673,0.00086966,0.63986,0.96871
297.715,35.3743,0.0008917841,0.63828,0.96838
298.315,35.43181,0.002190394,0.63661,0.96804
298.915,35.4891,0.002189935,0.63744,0.96771
299.515,35.5464,0.001530256,0.63832,0.96738
300.115,35.6038,0.00119977,0.64101,0.96704
300.715,35.66125,0.002283453,0.64066,0.96671
301.315,35.71856,0.00117355,0.64084,0.96637
301.915,35.77608,0.001076906,0.64283,0.96604
302.515,35.83341,0.00314801,0.64241,0.9657
303.115,35.8908,0.00185979,0.64171,0.96536
303.715,35.94815,0.00188009,0.64146,0.96503
304.315,36.00517,0.003141991,0.64135,0.96469
304.915,36.06222,0.0005479475,0.6426,0.96435
305.515,36.1196,0.00186029,0.64343,0.96401
306.115,36.17702,0.00318459,0.64435,0.96367
306.715,36.2348,0.00188519,0.64353,0.96333
307.315,36.29251,0.001886441,0.64475,0.96299
307.915,36.35018,0.0005408719,0.64415,0.96265
308.515,36.40765,0.001836248,0.64315,0.96231
309.115,36.46508,0.0005394062,0.64472,0.96197
309.715,36.52217,-0.0008472973,0.64235,0.96163
310.315,36.57959,0.001513999,0.64332,0.96129
310.915,36.63728,0.001529953,0.64418,0.96095
311.515,36.695,0.00153,0.6424,0.9606
312.115,36.75282,0.00153,0.64372,0.96026
312.715,36.8103,0.001529996,0.64382,0.95992
313.315,36.86728,0.001579097,0.6437,0.95957
313.915,36.92453,0.0002115639,0.64295,0.95923
314.515,36.98209,0.0005235914,0.64521,0.95888
315.115,37.03972,0.0005409634,0.64635,0.95854
315.715,37.0978,0.0005400043,0.64458,0.95819
316.315,37.15546,0.001770505,0.64634,0.95784
316.915,37.21317,0.0006497809,0.64635,0.9575
317.515,37.27097,0.00065,0.64545,0.95715
318.115,37.3289,0.0006499299,0.64521,0.9568
318.715,37.38714,-4.403392e-05,0.64716,0.95645
319.315,37.44482,0.002070096,0.64577,0.95611
319.915,37.50261,0.000675936,0.64644,0.95576
320.515,37.5604,0.002080298,0.6463,0.95541
321.115,37.61801,0.002080293,0.64852,0.95506
321.715,37.67563,0.0002827738,0.64864,0.95471
322.315,37.73337,0.0008211613,0.64964,0.95436
322.915,37.7911,0.000770003,0.64908,0.95401
323.515,37.849,0.000782765,0.65063,0.95365
324.115,37.90676,0.0001103268,0.64868,0.9533
324.715,37.96452,0.0001100002,0.65135,0.95295
325.315,38.02223,0.00011,0.6511,0.9526
325.915,38.07994,0.00011,0.65041,0.95224
326.515,38.13767,0.00011,0.65034,0.95189
327.115,38.19536,0.00011,0.65145,0.95153
327.715,38.25273,0.00011,0.65112,0.95118
328.315,38.31051,0.0001098118,0.65259,0.95082
328.915,38.36844,-0.0006703572,0.65139,0.95047
329.515,38.42669,9.657534e-05,0.6527,0.95011
330.115,38.48431,0.001406504,0.65549,0.94976
330.715,38.54211,0.001419997,0.65399,0.9494
331.315,38.5998,0.00141966,0.65518,0.94904
331.915,38.65752,-0.001355215,0.65678,0.94868
332.515,38.71504,-0.001320279,0.65597,0.94833
333.115,38.7726,-0.0004461833,0.65649,0.94797
333.715,38.8302,-0.00164751,0.65776,0.94761
334.315,38.8877,-0.00165001,0.65667,0.94725
334.915,38.94572,-0.00165,0.65776,0.94689
335.515,39.00347,-0.001650351,0.65718,0.94653
336.115,39.06106,-0.0005800806,0.6572,0.94617
336.715,39.11865,-0.001556488,0.65878,0.94581
337.315,39.17628,-0.0003750525,0.65933,0.94544
337.915,39.2341,-0.001656019,0.65968,0.94508
338.515,39.29189,-0.0003346765,0.65957,0.94472
339.115,39.3496,-0.0003400007,0.65984,0.94436
339.715,39.4071,-0.00034,0.65816,0.94399
340.315,39.46481,-0.00034,0.66047,0.94363
340.915,39.5227,-0.0003399813,0.65945,0.94326
341.515,39.58055,-0.000718618,0.66144,0.9429
342.115,39.63875,-0.001423558,0.65861,0.94253
342.715,39.69679,-0.000339677,0.66012,0.94217
343.315,39.7547,-0.000341692,0.66008,0.9418
343.915,39.81263,-0.00170373,0.6597,0.94144
344.515,39.87058,0.000985981,0.66261,0.94107
345.115,39.92848,-0.0016631,0.66269,0.9407
345.715,39.98636,-0.001660038,0.66211,0.94033
346.315,40.04422,-0.0008911281,0.66129,0.93996
346.915,40.10176,0.000156592,0.66202,0.9396
347.515,40.1593,0.00103643,0.66385,0.93923
348.115,40.2171,-0.001750922,0.66385,0.93886
348.715,40.27512,-0.001407735,0.66476,0.93849
349.315,40.33341,2.142279e-06,0.66603,0.93812
349.915,40.39144,-0.001332425,0.6664,0.93775
350.515,40.44919,-0.001329999,0.66539,0.93737
351.115,40.50731,-0.00133,0.66621,0.937
351.715,40.56518,-0.00133,0.66891,0.93663
352.315,40.623,-0.001329998,0.66737,0.93626
352.915,40.68095,-0.00132837,0.66907,0.93588
353.515,40.73879,-0.000999642,0.67012,0.93551
354.115,40.79683,-0.0002940474,0.67029,0.93514
354.715,40.85479,-0.000339973,0.66989,0.93476
355.315,40.91276,-0.0003371896,0.67155,0.93439
355.915,40.97072,-0.001001917,0.67287,0.93401
356.515,41.0287,-0.000941449,0.6731,0.93363
357.115,41.08657,-0.001677294,0.67185,0.93326
357.715,41.14461,-0.00164144,0.67268,0.93288
358.315,41.20256,-0.00166719,0.67333,0.9325
358.915,41.26072,-0.00297135,0.67246,0.93213
359.515,41.3187,-0.00297,0.67256,0.93175
360.115,41.37675,-0.00298249,0.67219,0.93137
360.715,41.4349,-0.00439839,0.67305,0.93099
361.315,41.49303,-0.00341434,0.67319,0.93061
361.915,41.5511,-0.003410029,0.67342,0.93023
362.515,41.60884,-0.00335615,0.67314,0.92985
363.115,41.66702,-0.003289233,0.6727,0.92947
363.715,41.72518,-0.003299994,0.6765,0.92909
364.315,41.78358,-0.0033,0.67703,0.92871
364.915,41.84214,-0.00330006,0.67637,0.92833
365.515,41.9003,-0.003317773,0.67496,0.92794
366.115,41.95854,-0.002052661,0.67816,0.92756
366.715,42.0167,-0.002795411,0.67789,0.92718
367.315,42.07492,-0.002982775,0.6795,0.92679
367.915,42.13316,-0.004283614,0.68061,0.92641
368.515,42.1914,-0.00428,0.68098,0.92603
369.115,42.24967,-0.00428,0.68146,0.92564
369.715,42.308,-0.004285885,0.68026,0.92526
370.315,42.36618,-0.003052001,0.68118,0.92487
370.915,42.42435,-0.004522796,0.68239,0.92448
371.515,42.48233,-0.003840435,0.68159,0.9241
372.115,42.5404,-0.003840798,0.6827,0.92371
372.715,42.59857,-0.007541585,0.68407,0.92332
373.315,42.65695,-0.006653469,0.68423,0.92293
373.915,42.7153,-0.005152315,0.68353,0.92255
374.515,42.7736,-0.005159997,0.68163,0.92216
375.115,42.8318,-0.00516,0.68391,0.92177
375.715,42.88989,-0.005160001,0.68503,0.92138
376.315,42.94804,-0.005203549,0.68563,0.92099
376.915,43.00646,-0.006840118,0.68416,0.9206
377.515,43.06483,-0.006149966,0.68569,0.9202
378.115,43.12323,-0.00615,0.68784,0.91981
378.715,43.1815,-0.00614999,0.68618,0.91942
379.315,43.23952,-0.006441889,0.68802,0.91903
379.915,43.2975,-0.00747024,0.69012,0.91864
380.515,43.35569,-0.00747,0.68823,0.91824
381.115,43.41408,-0.007467919,0.68799,0.91785
381.715,43.4728,-0.00780535,0.69147,0.91745
382.315,43.53109,-0.007137379,0.68955,0.91706
382.915,43.5895,-0.006503293,0.69059,0.91666
383.515,43.64728,-0.00648005,0.69144,0.91627
384.115,43.70524,-0.00646731,0.69148,0.91587
384.715,43.76356,-0.009116075,0.69331,0.91548
385.315,43.82189,-0.01012469,0.69599,0.91508
385.915,43.8808,-0.01099682,0.69573,0.91468
386.515,43.93934,-0.01018038,0.69631,0.91429
387.115,43.99756,-0.009330823,0.69693,0.91389
387.715,44.05581,-0.00931627,0.69852,0.91349
388.315,44.1143,-0.00802219,0.6995,0.91309
388.915,44.17264,-0.008695815,0.70014,0.91269
389.515,44.2307,-0.01064421,0.69932,0.91229
390.115,44.2891,-0.009335201,0.70093,0.91189
390.715,44.34744,-0.01065185,0.7002,0.91149
391.315,44.40576,-0.01059926,0.70355,0.91109
391.915,44.46434,-0.01196911,0.70276,0.91069
392.515,44.52248,-0.0133784,0.70512,0.91028
393.115,44.5808,-0.01493525,0.70663,0.90988
393.715,44.63917,-0.01291255,0.70654,0.90948
394.315,44.69757,-0.01163961,0.7047,0.90908
394.915,44.756,-0.01134078,0.70529,0.90867
395.515,44.81439,-0.01272139,0.70918,0.90827
396.115,44.87307,-0.01163508,0.70855,0.90786
396.715,44.93183,-0.01295856,0.70949,0.90746
397.315,44.99064,-0.0129571,0.71155,0.90705
397.915,45.04922,-0.01164025,0.71018,0.90665
398.515,45.10758,-0.01163955,0.71295,0.90624
399.115,45.16597,-0.01291135,0.71421,0.90583
399.715,45.22437,-0.01433913,0.71574,0.90543
400.315,45.2828,-0.01361966,0.71551,0.90502
400.915,45.34109,-0.01362245,0.71742,0.90461
401.515,45.39947,-0.01514817,0.71991,0.9042
402.115,45.4578,-0.01514682,0.72246,0.90379
402.715,45.51612,-0.0164557,0.72231,0.90338
403.315,45.5747,-0.0177765,0.72242,0.90297
403.915,45.63301,-0.01779,0.72463,0.90256
404.515,45.69158,-0.0177903,0.72434,0.90215
405.115,45.75,-0.01910958,0.72633,0.90174
405.715,45.80855,-0.01779319,0.729,0.90133
406.315,45.86718,-0.01910893,0.72791,0.90092
406.915,45.92555,-0.01911,0.73064,0.90051
407.515,45.98383,-0.01911,0.72929,0.90009
408.115,46.0424,-0.01910653,0.73308,0.89968
408.715,46.1008,-0.02041177,0.73413,0.89927
409.315,46.1593,-0.02171244,0.73511,0.89885
409.915,46.21785,-0.02140826,0.73586,0.89844
410.515,46.27629,-0.02140929,0.73981,0.89802
411.115,46.33501,-0.02298046,0.73987,0.89761
411.715,46.39353,-0.02308586,0.73946,0.89719
412.315,46.45179,-0.0238688,0.74122,0.89678
412.915,46.5102,-0.02538784,0.73972,0.89636
413.515,46.5687,-0.02570001,0.7428,0.89594
414.115,46.6272,-0.0257,0.74599,0.89553
414.715,46.68582,-0.02569316,0.74717,0.89511
415.315,46.74438,-0.02700489,0.74742,0.89469
415.915,46.8031,-0.02831406,0.74713,0.89427
416.515,46.8615,-0.02975857,0.74394,0.89385
417.115,46.91997,-0.02976,0.74694,0.89343
417.715,46.97847,-0.02969353,0.75003,0.89301
418.315,47.03694,-0.03236388,0.75412,0.89259
418.915,47.0956,-0.03238816,0.75459,0.89217
419.515,47.15439,-0.03107607,0.75547,0.89175
420.115,47.21331,-0.03388638,0.75702,0.89133
420.715,47.272,-0.03378285,0.75861,0.89091
421.315,47.33038,-0.03588895,0.7597,0.89048
421.915,47.38885,-0.03526368,0.76077,0.89006
422.515,47.44745,-0.03741134,0.76253,0.88964
423.115,47.50626,-0.03946703,0.76241,0.88921
423.715,47.5653,-0.03990369,0.76444,0.88879
424.315,47.62415,-0.04239026,0.76549,0.88836
424.915,47.68277,-0.04372514,0.7669,0.88794
425.515,47.74168,-0.04371037,0.76667,0.88751
426.115,47.80043,-0.04657603,0.77067,0.88709
426.715,47.85923,-0.04522722,0.77149,0.88666
427.315,47.91803,-0.04864372,0.77713,0.88623
427.915,47.97668,-0.05098037,0.77594,0.88581
428.515,48.03539,-0.05103558,0.77764,0.88538
429.115,48.09426,-0.05406128,0.78054,0.88495
429.715,48.1533,-0.0553394,0.78264,0.88452
430.315,48.21224,-0.0555,0.78455,0.88409
430.915,48.27105,-0.0584905,0.78462,0.88366
431.515,48.32986,-0.06048807,0.78846,0.88323
432.115,48.38875,-0.06269685,0.79155,0.8828
432.715,48.44784,-0.0600209,0.79423,0.88237
433.315,48.50685,-0.06487454,0.79814,0.88194
433.915,48.5657,-0.07036288,0.79995,0.88151
434.515,48.62461,-0.07023009,0.80352,0.88108
435.115,48.68354,-0.07493042,0.80574,0.88065
435.715,48.74244,-0.07652475,0.81148,0.88022
436.315,48.80138,-0.07926269,0.81471,0.87978
436.915,48.86045,-0.08243768,0.819,0.87935
437.515,48.91921,-0.08268106,0.82111,0.87891
438.115,48.97824,-0.08866698,0.8258,0.87848
438.715,49.03712,-0.09228299,0.83052,0.87805
439.315,49.09598,-0.09471723,0.83535,0.87761
439.915,49.15505,-0.10127,0.84101,0.87717
440.515,49.21378,-0.10077,0.84607,0.87674
441.115,49.27264,-0.10269,0.85129,0.8763
441.715,49.3316,-0.10623,0.85446,0.87587
442.315,49.39043,-0.1093,0.85934,0.87543
442.915,49.44951,-0.11537,0.86742,0.87499
443.515,49.5083,-0.11909,0.87454,0.87455
444.115,49.56713,-0.12259,0.88303,0.87411
444.715,49.62596,-0.12896,0.88591,0.87368
445.315,49.68481,-0.13273,0.8958,0.87324
445.915,49.7434,-0.13754,0.90086,0.8728
446.515,49.80195,-0.14418,0.91015,0.87236
447.115,49.86071,-0.14683,0.91807,0.87192
447.715,49.91953,-0.15368,0.92388,0.87147
448.315,49.9786,-0.15893,0.93393,0.87103
448.915,50.03732,-0.1653,0.93947,0.87059
449.515,50.09625,-0.17255,0.95057,0.87015
450.115,50.1552,-0.17836,0.9606,0.86971
450.715,50.21427,-0.18709,0.9698,0.86926
451.315,50.2734,-0.19437,0.98115,0.86882
451.915,50.33184,-0.20049,0.98586,0.86838
452.515,50.3908,-0.21,0.99688,0.86793
453.115,50.44962,-0.21502,1.00668,0.86749
453.715,50.5083,-0.22597,1.01816,0.86704
454.315,50.56758,-0.23454,1.03093,0.8666
454.915,50.62685,-0.24219,1.04344,0.86615
455.515,50.68619,-0.25465,1.05662,0.8657
456.115,50.7455,-0.2647,1.06917,0.86526
456.715,50.80458,-0.27595,1.08459,0.86481
457.315,50.86357,-0.28856,1.10034,0.86436
457.915,50.9229,-0.29505,1.11181,0.86392
458.515,50.9821,-0.3106,1.13175,0.86347
459.115,51.04112,-0.32938,1.14942,0.86302
459.715,51.1002,-0.34279,1.16643,0.86257
460.315,51.15922,-0.3597,1.18555,0.86212
460.915,51.21826,-0.37169,1.20242,0.86167
461.515,51.27738,-0.38677,1.22404,0.86122
462.115,51.33638,-0.4053,1.24266,0.86077
462.715,51.39535,-0.42218,1.26385,0.86032
463.315,51.45412,-0.44393,1.28605,0.85987
463.915,51.5131,-0.46055,1.31184,0.85941
464.515,51.5721,-0.48172,1.33422,0.85896
465.115,51.6312,-0.50538,1.35905,0.85851
465.715,51.69044,-0.52661,1.38698,0.85806
466.315,51.74944,-0.55223,1.41329,0.8576
466.915,51.80856,-0.57834,1.44165,0.85715
467.515,51.86789,-0.60221,1.46934,0.85669
468.115,51.92723,-0.6338,1.50196,0.85624
468.715,51.98642,-0.65799,1.53558,0.85578
469.315,52.04567,-0.69233,1.56659,0.85533
469.915,52.10504,-0.72504,1.60371,0.85487
470.515,52.16467,-0.7558,1.64471,0.85442
471.115,52.2241,-0.79122,1.68764,0.85396
471.715,52.28345,-0.83737,1.72328,0.8535
472.315,52.3429,-0.87695,1.76269,0.85304
472.915,52.40245,-0.92086,1.80597,0.85259
473.515,52.4621,-0.96323,1.83879,0.85213
474.115,52.52162,-1.01223,1.88256,0.85167
474.715,52.58118,-1.0612,1.9301,0.85121
475.315,52.6406,-1.11242,1.96496,0.85075
475.915,52.7,-1.16786,2.01035,0.85029
476.515,52.75946,-1.22178,2.04492,0.84983
477.115,52.81893,-1.28073,2.08288,0.84937
477.715,52.87843,-1.34134,2.13709,0.84891
478.315,52.938,-1.40269,2.17013,0.84845
478.915,52.9976,-1.46906,2.20569,0.84798
479.515,53.0572,-1.5368,2.24997,0.84752
480.115,53.11682,-1.60596,2.28489,0.84706
480.715,53.1762,-1.68283,2.32514,0.8466
481.315,53.23574,-1.75352,2.34996,0.84613
481.915,53.29518,-1.83468,2.37758,0.84567
482.515,53.35501,-1.91079,2.40339,0.8452
483.115,53.41445,-1.99306,2.41963,0.84474
483.715,53.474,-2.07613,2.43954,0.84427
484.315,53.53355,-2.16066,2.44833,0.84381
484.915,53.5931,-2.24513,2.45801,0.84334
485.515,53.6527,-2.33708,2.45661,0.84288
486.115,53.71212,-2.41857,2.45061,0.84241
486.715,53.77151,-2.5121,2.43773,0.84194
487.315,53.8309,-2.59621,2.41976,0.84148
487.915,53.8902,-2.68867,2.4002,0.84101
488.515,53.9496,-2.77683,2.36777,0.84054
489.115,54.00895,-2.86696,2.33985,0.84007
489.715,54.0681,-2.95298,2.29009,0.8396
490.315,54.1274,-3.04255,2.22958,0.83913
490.915,54.1865,-3.12225,2.16896,0.83866
491.515,54.2455,-3.2105,2.09684,0.83819
492.115,54.3042,-3.28477,2.01386,0.83772
492.715,54.36269,-3.36392,1.92454,0.83725
493.315,54.4214,-3.43759,1.82851,0.83678
493.915,54.4801,-3.50485,1.72733,0.83631
494.515,54.53878,-3.573,1.6202,0.83584
495.115,54.5972,-3.63253,1.50963,0.83536
495.715,54.65543,-3.6906,1.39628,0.83489
496.315,54.7134,-3.74364,1.27805,0.83442
496.915,54.7717,-3.78894,1.16352,0.83394
497.515,54.8297,-3.83106,1.0533,0.83347
498.115,54.88763,-3.86901,0.94304,0.833
498.715,54.9455,-3.89994,0.83813,0.83252
499.315,55.00351,-3.93106,0.73753,0.83205
499.915,55.06165,-3.95064,0.64927,0.83157
500.515,55.1199,-3.97347,0.56474,0.83109
501.115,55.1782,-3.99145,0.49213,0.83062
501.715,55.23649,-4.0038,0.42777,0.83014
502.315,55.29446,-4.01911,0.37242,0.82966
502.915,55.35301,-4.02489,0.32918,0.82919
503.515,55.4116,-4.0323,0.28862,0.82871
504.115,55.4704,-4.03624,0.25761,0.82823
504.715,55.52913,-4.03981,0.2295,0.82775
505.315,55.58772,-4.04416,0.20967,0.82727
505.915,55.64637,-4.04411,0.19141,0.82679
506.515,55.70519,-4.04737,0.17514,0.82631
507.115,55.7641,-4.04866,0.16811,0.82583
507.715,55.82311,-4.04882,0.16264,0.82535
508.315,55.8822,-4.05014,0.15606,0.82487
508.915,55.94119,-4.05014,0.15551,0.82439
509.515,56,-4.05014,0.15835,0.82391
510.115,56.0586,-4.05012,0.17468,0.82343
510.715,56.1176,-4.04915,0.18512,0.82295
511.315,56.1766,-4.05043,0.1742,0.82246
511.915,56.23591,-4.05023,0.16633,0.82198
512.515,56.29538,-4.05176,0.15929,0.8215
513.115,56.3549,-4.04916,0.15705,0.82101
513.715,56.41449,-4.05007,0.15231,0.82053
514.315,56.474,-4.05119,0.14874,0.82004
514.915,56.5334,-4.05111,0.14932,0.81956
515.515,56.59281,-4.04981,0.14715,0.81907
516.115,56.6522,-4.05112,0.14702,0.81859
516.715,56.71165,-4.05079,0.14482,0.8181
517.315,56.7712,-4.0498,0.14561,0.81762
517.915,56.83087,-4.05112,0.14385,0.81713
518.515,56.89014,-4.05046,0.14209,0.81664
519.115,56.9496,-4.0498,0.14058,0.81615
519.715,57.00897,-4.0498,0.14153,0.81567
520.315,57.06822,-4.0498,0.14087,0.81518
520.915,57.1279,-4.04982,0.13828,0.81469
521.515,57.18735,-4.05046,0.1378,0.8142
522.115,57.24728,-4.05046,0.13712,0.81371
522.715,57.3069,-4.05078,0.1358,0.81322
523.315,57.3664,-4.05078,0.13485,0.81273
523.915,57.4261,-4.05047,0.13209,0.81224
524.515,57.48559,-4.04914,0.12807,0.81175
525.115,57.5452,-4.04914,0.12767,0.81126
525.715,57.60426,-4.04991,0.12758,0.81077
526.315,57.66378,-4.05143,0.12548,0.81028
526.915,57.7234,-4.05178,0.12361,0.80978
527.515,57.783,-4.05178,0.12261,0.80929
528.115,57.8431,-4.05178,0.12209,0.8088
528.715,57.90277,-4.05178,0.12119,0.80831
529.315,57.9625,-4.05171,0.12047,0.80781
529.915,58.022,-4.05135,0.12114,0.80732
530.515,58.0816,-4.05046,0.11737,0.80682
531.115,58.14147,-4.05046,0.12094,0.80633
531.715,58.20143,-4.0504,0.12019,0.80583
532.315,58.26132,-4.05011,0.1199,0.80534
532.915,58.32102,-4.04837,0.12044,0.80484
533.515,58.38057,-4.0499,0.1193,0.80435
534.115,58.44025,-4.0509,0.11898,0.80385
534.715,58.4997,-4.04958,0.11877,0.80335
535.315,58.55961,-4.05122,0.11746,0.80286
535.915,58.6192,-4.05123,0.11512,0.80236
536.515,58.6792,-4.05123,0.11683,0.80186
537.115,58.73882,-4.05123,0.11685,0.80136
537.715,58.79861,-4.05123,0.117,0.80086
538.315,58.8585,-4.05122,0.11383,0.80037
538.915,58.9182,-4.04724,0.1162,0.79987
539.515,58.978,-4.04925,0.11734,0.79937
540.115,59.03767,-4.05069,0.11881,0.79887
540.715,59.0973,-4.05304,0.11895,0.79837
541.315,59.1571,-4.05257,0.11852,0.79787
541.915,59.21675,-4.05284,0.11916,0.79737
542.515,59.2765,-4.0516,0.12168,0.79686
543.115,59.33616,-4.05298,0.11872,0.79636
543.715,59.39572,-4.05148,0.12058,0.79586
544.315,59.4554,-4.05013,0.11821,0.79536
544.915,59.51505,-4.05174,0.11894,0.79486
545.515,59.5745,-4.05167,0.12029,0.79435
546.115,59.6342,-4.04858,0.11979,0.79385
546.715,59.6939,-4.05081,0.11935,0.79335
547.315,59.7534,-4.05326,0.11939,0.79284
547.915,59.8132,-4.05196,0.12003,0.79234
548.515,59.87294,-4.04759,0.1183,0.79183
549.115,59.93269,-4.04845,0.12054,0.79133
549.715,59.9925,-4.05069,0.11895,0.79082
550.315,60.05217,-4.05123,0.11901,0.79032
550.915,60.11186,-4.05123,0.12068,0.78981
551.515,60.1715,-4.05123,0.1185,0.7893
552.115,60.2311,-4.05123,0.12014,0.7888
552.715,60.29065,-4.05123,0.11768,0.78829
553.315,60.3502,-4.05022,0.1185,0.78778
553.915,60.40985,-4.04991,0.11759,0.78727
554.515,60.4695,-4.05133,0.1153,0.78677
555.115,60.52935,-4.05134,0.11923,0.78626
555.715,60.5892,-4.05267,0.11881,0.78575
556.315,60.64905,-4.05132,0.11784,0.78524
556.915,60.7089,-4.05134,0.11725,0.78473
557.515,60.76874,-4.05132,0.11581,0.78422
558.115,60.82845,-4.052,0.12039,0.78371
558.715,60.88819,-4.052,0.11983,0.7832
559.315,60.94806,-4.052,0.11903,0.78269
559.915,61.00793,-4.052,0.12041,0.78218
560.515,61.068,-4.052,0.11819,0.78167
561.115,61.1278,-4.052,0.11703,0.78115
561.715,61.18772,-4.05214,0.11588,0.78064
562.315,61.24748,-4.05002,0.11399,0.78013
562.915,61.30724,-4.05002,0.11492,0.77962
563.515,61.36691,-4.05157,0.11636,0.7791
564.115,61.42677,-4.05156,0.11857,0.77859
564.715,61.48646,-4.05156,0.11566,0.77808
565.315,61.5462,-4.05154,0.11695,0.77756
565.915,61.6062,-4.05089,0.11519,0.77705
566.515,61.66595,-4.0529,0.11798,0.77653
567.115,61.72571,-4.05394,0.11819,0.77602
567.715,61.7855,-4.0508,0.11907,0.7755
568.315,61.8453,-4.05079,0.11772,0.77499
568.915,61.90509,-4.05211,0.11924,0.77447
569.515,61.9649,-4.0521,0.11747,0.77396
570.115,62.02465,-4.05242,0.11664,0.77344
570.715,62.08439,-4.05201,0.12049,0.77292
571.315,62.1439,-4.05145,0.1176,0.77241
571.915,62.2037,-4.05145,0.11946,0.77189
572.515,62.26322,-4.05144,0.11922,0.77137
573.115,62.32348,-4.05391,0.11919,0.77085
573.715,62.3833,-4.05233,0.12095,0.77033
574.315,62.4433,-4.0521,0.11803,0.76981
574.915,62.5035,-4.0521,0.11954,0.7693
575.515,62.5635,-4.05115,0.12228,0.76878
576.115,62.62311,-4.05252,0.11894,0.76826
576.715,62.68297,-4.05243,0.12037,0.76774
577.315,62.7427,-4.05243,0.11957,0.76722
577.915,62.80249,-4.05243,0.12027,0.7667
578.515,62.8626,-4.05113,0.12291,0.76617
579.115,62.92255,-4.05243,0.12175,0.76565
579.715,62.9824,-4.05245,0.12281,0.76513
580.315,63.0424,-4.05112,0.12572,0.76461
580.915,63.10229,-4.05113,0.12219,0.76409
581.515,63.16219,-4.05243,0.12035,0.76357
582.115,63.22212,-4.05243,0.12396,0.76304
582.715,63.2821,-4.05386,0.12208,0.76252
583.315,63.34206,-4.05386,0.12482,0.762
583.915,63.40209,-4.05349,0.12444,0.76147
584.515,63.46195,-4.05189,0.12516,0.76095
585.115,63.5219,-4.0519,0.12213,0.76042
585.715,63.5816,-4.05317,0.12044,0.7599
586.315,63.6413,-4.05128,0.12372,0.75937
586.915,63.70129,-4.05224,0.1231,0.75885
587.515,63.76107,-4.05157,0.12457,0.75832
588.115,63.8213,-4.05025,0.12406,0.7578
588.715,63.8811,-4.05024,0.12361,0.75727
589.315,63.94095,-4.05098,0.12293,0.75675
589.915,64.00069,-4.05024,0.12499,0.75622
590.515,64.06067,-4.05156,0.12437,0.75569
591.115,64.12056,-4.05156,0.12313,0.75516
591.715,64.18049,-4.05156,0.12281,0.75464
592.315,64.2405,-4.05159,0.12077,0.75411
592.915,64.30045,-4.05156,0.12226,0.75358
593.515,64.36029,-4.05156,0.12099,0.75305
594.115,64.42013,-4.05156,0.12383,0.75252
594.715,64.48004,-4.05156,0.12713,0.75199
595.315,64.53996,-4.05156,0.12273,0.75146
595.915,64.59991,-4.05211,0.12706,0.75093
596.515,64.65996,-4.05529,0.12565,0.7504
597.115,64.7201,-4.05331,0.123,0.74987
597.715,64.78016,-4.0498,0.12336,0.74934
598.315,64.84022,-4.05066,0.12768,0.74881
598.915,64.90032,-4.05071,0.12726,0.74828
599.515,64.96037,-4.05076,0.12812,0.74775
600.115,65.02048,-4.05081,0.1249,0.74722
600.715,65.0805,-4.05079,0.1225,0.74669
601.315,65.14016,-4.05299,0.1294,0.74616
601.915,65.20007,-4.05277,0.1247,0.74562
602.515,65.26003,-4.05013,0.1273,0.74509
603.115,65.32034,-4.05145,0.13215,0.74456
603.715,65.38056,-4.05145,0.12905,0.74402
604.315,65.4407,-4.05014,0.13232,0.74349
604.915,65.50075,-4.05144,0.13261,0.74296
605.515,65.56074,-4.05279,0.13077,0.74242
606.115,65.6207,-4.05105,0.13044,0.74189
606.715,65.68074,-4.05433,0.12926,0.74135
607.315,65.7408,-4.053,0.13118,0.74082
607.915,65.8009,-4.05156,0.12959,0.74028
608.515,65.86106,-4.05031,0.13167,0.73975
609.115,65.92096,-4.05156,0.12853,0.73921
609.715,65.98088,-4.05022,0.12639,0.73867
610.315,66.04088,-4.05167,0.12973,0.73814
610.915,66.10092,-4.05167,0.12658,0.7376
611.515,66.16121,-4.05029,0.1315,0.73706
612.115,66.22142,-4.05042,0.13083,0.73653
612.715,66.2816,-4.05101,0.13253,0.73599
613.315,66.3416,-4.05112,0.13255,0.73545
613.915,66.40173,-4.05101,0.12978,0.73491
614.515,66.462,-4.05101,0.13186,0.73438
615.115,66.5223,-4.05079,0.13155,0.73384
615.715,66.58234,-4.05102,0.13289,0.7333
616.315,66.6426,-4.05102,0.1326,0.73276
616.915,66.70277,-4.05097,0.13222,0.73222
617.515,66.7632,-4.05103,0.13446,0.73168
618.115,66.82347,-4.0497,0.13513,0.73114
618.715,66.88368,-4.04972,0.13365,0.7306
619.315,66.9439,-4.051,0.13159,0.73006
619.915,67.00384,-4.0497,0.1327,0.72952
620.515,67.06402,-4.0497,0.13274,0.72898
621.115,67.1243,-4.05093,0.1318,0.72844
621.715,67.18464,-4.05045,0.133,0.7279
622.315,67.24492,-4.05172,0.13391,0.72735
622.915,67.305,-4.05081,0.13174,0.72681
623.515,67.3651,-4.05041,0.13211,0.72627
624.115,67.42541,-4.05075,0.13351,0.72573
624.715,67.48578,-4.05036,0.13543,0.72518
625.315,67.5458,-4.05036,0.13407,0.72464
625.915,67.60569,-4.05036,0.13459,0.7241
626.515,67.66579,-4.05171,0.13448,0.72355
627.115,67.726,-4.05167,0.13436,0.72301
627.715,67.78613,-4.0502,0.13543,0.72247
628.315,67.84658,-4.05025,0.13366,0.72192
628.915,67.90669,-4.05026,0.13902,0.72138
629.515,67.96664,-4.04959,0.13757,0.72083
630.115,68.02662,-4.05001,0.13684,0.72029
630.715,68.08676,-4.04788,0.13528,0.71974
631.315,68.14697,-4.04864,0.13441,0.7192
631.915,68.20711,-4.05062,0.13489,0.71865
632.515,68.26729,-4.05068,0.13586,0.71811
633.115,68.32726,-4.05068,0.1338,0.71756
633.715,68.38736,-4.05068,0.13627,0.71701
634.315,68.44756,-4.05209,0.14159,0.71647
634.915,68.50761,-4.05365,0.13583,0.71592
635.515,68.56782,-4.04971,0.13561,0.71537
636.115,68.62795,-4.05133,0.13935,0.71482
636.715,68.68818,-4.04958,0.13431,0.71428
637.315,68.74846,-4.05089,0.13239,0.71373
637.915,68.8087,-4.04909,0.13508,0.71318
638.515,68.8689,-4.04707,0.13579,0.71263
639.115,68.92908,-4.0502,0.13741,0.71208
639.715,68.98914,-4.05293,0.13931,0.71153
640.315,69.04913,-4.05166,0.13941,0.71099
640.915,69.1093,-4.05298,0.14328,0.71044
641.515,69.1695,-4.052,0.1411,0.70989
642.115,69.22986,-4.052,0.14323,0.70934
642.715,69.29015,-4.05068,0.1407,0.70879
643.315,69.3506,-4.05035,0.13942,0.70824
643.915,69.41099,-4.05107,0.13976,0.70769
644.515,69.4713,-4.05123,0.14099,0.70714
645.115,69.53158,-4.05095,0.14075,0.70658
645.715,69.59156,-4.05183,0.13935,0.70603
646.315,69.65142,-4.05057,0.13942,0.70548
646.915,69.71176,-4.05057,0.14067,0.70493
647.515,69.77195,-4.05092,0.13736,0.70438
648.115,69.83285,-4.05189,0.13942,0.70383
648.715,69.89333,-4.05174,0.14049,0.70327
649.315,69.95404,-4.05057,0.13861,0.70272
649.715,69.99459,-4.04913,0.13695,0.70235