File: 01_Data/Polyester_Carpet_Medium_Pile/MCC/Polyester_Carpet_Medium_Pile_MCC_30K_min_211029_R3.txt
Sample ID:	C:\MCC\MCC Cal\Test\Polyester_Carpet_MedPile_MCC_30K_min_211029_R3.txt
Sample Weight (mg):	4.46
Heating Rate (C/s):	0.5
Combustor Temp (C):	900
N2 Flow Rate (cc/min):	80
O2 Flow Rate (cc/min):	20
Calibration File:	C:\MCC\MCC Cal\Coeff1 JN10440_30_210304.txt.txt
T Correction Coefficients:	0	1.024463	0
Time Shift (s):	14
*
Time (s)	Temperature (C)	N2 flow rate (cc/min)	O2 flow rate (cc/min)	Flow Rate (cc/min)	Oxygen (%)	HRR (W/g)	Heating rate (C/s)
0.000	107.834	79.995	19.996	102.895	20.070	0.081	0.006
2.000	107.832	79.995	19.999	102.900	20.069	0.159	-0.002
4.000	107.834	79.995	19.997	102.901	20.069	0.155	-0.010
6.000	107.837	79.994	19.996	102.913	20.066	0.395	-0.036
8.000	107.819	79.993	19.997	102.916	20.065	0.454	0.001
10.000	107.847	79.993	19.997	102.928	20.067	0.335	0.018
12.000	107.804	79.993	19.996	102.930	20.065	0.452	-0.016
14.000	107.849	79.994	19.996	102.933	20.066	0.358	0.018
16.000	107.801	79.995	19.997	102.946	20.061	0.747	-0.008
18.000	107.862	79.996	19.995	102.975	20.055	1.168	0.023
20.000	107.906	79.996	19.996	103.009	20.057	1.045	0.012
22.000	107.972	79.994	19.994	103.034	20.048	1.675	0.041
24.000	108.109	79.997	19.995	103.084	20.044	1.946	0.042
26.000	108.248	80.006	19.995	103.090	20.039	2.296	0.075
28.000	108.420	79.998	19.994	103.090	20.036	2.524	0.110
30.000	108.602	79.996	19.995	103.113	20.036	2.544	0.106
32.000	108.835	79.986	19.996	103.108	20.035	2.609	0.105
34.001	109.098	80.010	19.992	103.126	20.031	2.938	0.113
36.000	109.396	79.991	19.995	103.123	20.032	2.835	0.126
38.000	109.712	79.993	19.995	103.119	20.031	2.918	0.171
40.000	110.062	79.990	19.996	103.120	20.031	2.937	0.170
42.000	110.433	79.994	19.997	103.109	20.031	2.876	0.198
44.001	110.803	79.995	19.995	103.112	20.028	3.107	0.214
46.000	111.200	79.996	19.994	103.125	20.031	2.941	0.189
48.000	111.649	79.990	19.992	103.128	20.028	3.093	0.259
50.000	112.111	80.004	19.994	103.135	20.029	3.059	0.216
52.000	112.588	79.978	19.996	103.124	20.028	3.123	0.248
54.000	113.056	79.983	19.996	103.136	20.022	3.526	0.235
56.000	113.638	79.998	19.993	103.148	20.022	3.564	0.309
58.000	114.151	79.994	19.996	103.167	20.023	3.500	0.290
60.001	114.762	79.981	19.997	103.163	20.019	3.772	0.316
62.001	115.337	79.980	19.998	103.164	20.021	3.649	0.264
64.000	115.962	80.005	19.995	103.167	20.023	3.500	0.311
66.000	116.579	80.004	19.996	103.174	20.017	3.926	0.333
68.001	117.269	79.991	19.996	103.167	20.018	3.859	0.353
70.000	117.958	79.997	19.996	103.165	20.019	3.748	0.355
72.000	118.621	79.991	19.996	103.161	20.020	3.705	0.367
74.000	119.349	79.976	19.997	103.166	20.021	3.611	0.365
76.000	120.113	79.990	19.994	103.167	20.021	3.656	0.360
78.000	120.864	80.002	19.994	103.165	20.021	3.641	0.368
80.000	121.623	79.986	19.995	103.171	20.021	3.595	0.398
82.000	122.349	79.965	19.999	103.163	20.019	3.755	0.378
84.000	123.183	79.995	19.995	103.162	20.022	3.550	0.424
86.000	123.973	79.993	19.996	103.181	20.018	3.872	0.391
88.000	124.770	79.992	19.996	103.174	20.020	3.671	0.395
90.000	125.623	79.994	19.996	103.175	20.018	3.870	0.421
92.001	126.448	79.995	19.995	103.176	20.020	3.698	0.408
94.000	127.312	79.994	19.997	103.176	20.021	3.641	0.434
96.000	128.161	79.988	19.996	103.174	20.024	3.417	0.440
98.001	129.061	80.005	19.995	103.171	20.026	3.281	0.454
100.000	129.926	79.994	19.996	103.167	20.022	3.572	0.450
102.001	130.818	80.001	19.996	103.166	20.022	3.566	0.422
104.001	131.695	79.981	19.996	103.165	20.021	3.643	0.440
106.000	132.627	79.991	19.995	103.172	20.023	3.488	0.473
108.000	133.542	79.996	19.995	103.171	20.024	3.386	0.466
110.000	134.484	79.994	19.998	103.167	20.022	3.566	0.466
112.000	135.427	80.014	19.995	103.168	20.021	3.602	0.491
114.000	136.319	79.984	19.996	103.166	20.027	3.221	0.444
116.001	137.304	79.986	19.993	103.164	20.022	3.544	0.515
118.000	138.202	79.987	19.996	103.170	20.024	3.429	0.448
120.000	139.232	79.991	19.996	103.168	20.025	3.330	0.530
122.001	140.156	79.990	19.995	103.160	20.025	3.313	0.479
124.000	141.113	79.994	19.996	103.167	20.027	3.182	0.490
126.000	142.057	79.994	19.996	103.166	20.025	3.332	0.462
128.000	143.060	79.999	19.995	103.161	20.023	3.465	0.497
130.000	144.080	80.002	19.994	103.170	20.026	3.273	0.478
132.000	145.042	79.990	19.997	103.165	20.027	3.218	0.460
134.000	146.046	80.000	19.994	103.155	20.025	3.359	0.488
136.000	147.026	80.004	19.992	103.156	20.026	3.279	0.508
138.000	148.012	79.993	19.997	103.155	20.027	3.190	0.478
140.000	149.018	79.995	19.995	103.147	20.026	3.300	0.518
142.000	149.988	79.991	19.994	103.153	20.026	3.273	0.454
144.000	150.984	79.990	19.995	103.152	20.028	3.111	0.489
146.000	151.943	79.995	19.996	103.148	20.027	3.228	0.480
148.000	152.924	79.990	19.996	103.159	20.027	3.226	0.470
150.000	153.887	79.984	19.998	103.146	20.028	3.127	0.455
152.000	154.897	79.990	19.995	103.148	20.024	3.380	0.514
154.000	155.895	79.993	19.996	103.168	20.027	3.220	0.494
156.000	156.863	79.984	19.994	103.163	20.024	3.406	0.470
158.000	157.906	79.999	19.994	103.147	20.027	3.185	0.484
160.000	158.855	79.988	19.996	103.130	20.028	3.118	0.480
162.000	159.853	80.003	19.995	103.153	20.027	3.201	0.481
164.000	160.870	79.996	19.997	103.147	20.025	3.349	0.500
166.001	161.867	79.986	19.995	103.142	20.028	3.159	0.506
168.000	162.807	79.995	19.995	103.142	20.027	3.229	0.454
170.000	163.800	79.958	19.999	103.142	20.027	3.224	0.453
172.000	164.873	79.990	19.995	103.128	20.027	3.193	0.535
174.000	165.892	80.003	19.993	103.130	20.027	3.227	0.492
176.000	166.858	80.003	19.994	103.134	20.027	3.217	0.496
178.000	167.854	79.992	19.996	103.131	20.029	3.027	0.490
180.000	168.856	80.000	19.996	103.126	20.028	3.145	0.519
182.000	169.857	79.993	19.996	103.134	20.031	2.942	0.483
184.000	170.833	79.994	19.997	103.125	20.031	2.910	0.486
186.000	171.843	79.992	19.996	103.127	20.028	3.151	0.516
188.000	172.809	79.994	19.995	103.124	20.032	2.842	0.495
190.000	173.798	79.995	19.996	103.125	20.032	2.860	0.468
192.000	174.795	80.006	19.995	103.125	20.033	2.746	0.530
194.000	175.773	80.000	19.996	103.127	20.030	2.979	0.482
196.000	176.735	79.992	19.995	103.123	20.033	2.783	0.491
198.000	177.775	80.000	19.995	103.131	20.034	2.696	0.514
200.000	178.725	79.985	19.999	103.134	20.036	2.569	0.465
202.000	179.740	79.993	19.995	103.124	20.036	2.565	0.509
204.000	180.720	79.992	19.996	103.126	20.036	2.573	0.479
206.000	181.736	79.992	19.996	103.127	20.035	2.595	0.510
208.000	182.676	79.993	19.996	103.128	20.036	2.563	0.425
210.000	183.685	79.979	19.997	103.136	20.038	2.391	0.491
212.000	184.664	79.994	19.995	103.122	20.037	2.482	0.480
214.000	185.671	80.000	19.996	103.129	20.037	2.479	0.494
216.000	186.687	79.991	19.997	103.126	20.038	2.406	0.491
218.000	187.665	79.995	19.995	103.125	20.035	2.619	0.523
220.000	188.597	79.992	19.996	103.127	20.038	2.423	0.464
222.000	189.544	79.984	19.999	103.126	20.040	2.269	0.470
224.000	190.573	79.997	19.996	103.120	20.036	2.548	0.516
226.000	191.526	79.995	19.995	103.105	20.041	2.190	0.506
228.000	192.466	79.997	19.996	103.111	20.039	2.338	0.462
230.000	193.396	79.990	19.996	103.112	20.037	2.449	0.467
232.000	194.359	79.990	19.996	103.113	20.037	2.441	0.422
234.000	195.304	79.981	19.997	103.110	20.038	2.421	0.452
236.000	196.312	80.005	19.994	103.105	20.037	2.494	0.490
238.000	197.196	79.991	19.997	103.113	20.034	2.684	0.457
240.000	198.209	80.008	19.995	103.123	20.033	2.797	0.480
242.000	199.138	79.988	19.998	103.125	20.037	2.484	0.484
244.000	200.108	80.008	19.994	103.129	20.037	2.508	0.489
246.000	201.058	79.997	19.996	103.128	20.036	2.524	0.486
248.000	202.019	79.992	19.997	103.128	20.036	2.576	0.503
250.000	202.984	79.998	19.996	103.126	20.036	2.579	0.486
252.000	203.927	80.000	19.997	103.124	20.035	2.633	0.472
254.000	204.906	79.990	19.996	103.123	20.035	2.629	0.500
256.000	205.897	79.995	19.995	103.126	20.038	2.425	0.488
258.000	206.915	79.991	19.996	103.117	20.042	2.134	0.510
260.000	207.872	79.996	19.996	103.125	20.040	2.273	0.480
262.000	208.883	79.993	19.996	103.116	20.042	2.126	0.502
264.000	209.847	79.993	19.996	103.121	20.036	2.538	0.474
266.000	210.868	80.002	19.996	103.122	20.037	2.453	0.482
268.000	211.894	79.984	19.996	103.129	20.036	2.572	0.493
270.000	212.931	79.993	19.997	103.122	20.039	2.362	0.567
272.000	213.923	79.999	19.996	103.115	20.040	2.247	0.507
274.000	214.929	79.998	19.996	103.119	20.038	2.372	0.534
276.000	215.919	79.994	19.996	103.119	20.038	2.372	0.484
278.000	216.929	79.993	19.996	103.122	20.039	2.364	0.499
280.000	217.951	79.989	19.995	103.109	20.034	2.669	0.515
282.000	218.945	79.970	19.997	103.110	20.039	2.364	0.510
284.001	219.931	79.995	19.993	103.113	20.037	2.478	0.502
286.001	220.947	80.001	19.995	103.118	20.038	2.409	0.503
288.000	221.960	79.992	19.996	103.107	20.035	2.586	0.503
290.000	222.953	79.991	19.996	103.109	20.036	2.552	0.500
292.000	223.952	79.993	19.996	103.095	20.037	2.483	0.502
294.000	224.961	79.992	19.996	103.117	20.036	2.532	0.522
296.000	225.963	79.989	19.997	103.115	20.035	2.614	0.490
298.000	226.979	79.994	19.996	103.109	20.040	2.269	0.493
300.000	227.999	79.991	19.995	103.110	20.036	2.524	0.515
302.000	228.999	79.993	19.995	103.108	20.037	2.505	0.524
304.001	230.029	79.992	19.996	103.099	20.036	2.582	0.490
306.000	231.068	79.992	19.995	103.096	20.036	2.572	0.501
308.000	232.058	79.999	19.995	103.092	20.038	2.418	0.510
310.000	233.083	79.988	19.996	103.099	20.040	2.242	0.514
312.001	234.088	79.993	19.995	103.101	20.037	2.477	0.525
314.000	235.066	79.990	19.995	103.092	20.038	2.414	0.489
316.000	236.148	79.991	19.996	103.098	20.039	2.305	0.531
318.000	237.125	80.008	19.994	103.087	20.034	2.675	0.508
320.000	238.140	79.987	19.994	103.092	20.035	2.604	0.534
322.000	239.132	80.001	19.994	103.087	20.034	2.675	0.496
324.000	240.170	80.007	19.994	103.093	20.035	2.620	0.495
326.000	241.144	79.987	19.997	103.087	20.033	2.747	0.497
328.000	242.149	79.991	19.996	103.089	20.036	2.556	0.501
330.000	243.190	80.010	19.993	103.090	20.035	2.586	0.528
332.000	244.182	79.990	19.996	103.092	20.036	2.517	0.468
334.000	245.186	79.989	19.995	103.086	20.036	2.534	0.511
336.000	246.212	79.994	19.995	103.090	20.037	2.497	0.521
338.000	247.196	79.994	19.997	103.091	20.036	2.549	0.503
340.000	248.249	79.995	19.996	103.087	20.037	2.479	0.546
342.000	249.252	79.998	19.995	103.088	20.038	2.398	0.536
344.000	250.287	79.998	19.995	103.092	20.038	2.398	0.513
346.000	251.221	79.990	19.994	103.097	20.037	2.489	0.470
348.000	252.248	79.998	19.996	103.090	20.038	2.394	0.483
350.000	253.272	79.990	19.995	103.091	20.040	2.254	0.507
352.000	254.252	79.980	19.996	103.093	20.043	2.014	0.516
354.000	255.223	79.998	19.997	103.081	20.041	2.185	0.482
356.000	256.234	79.991	19.997	103.086	20.038	2.385	0.495
358.000	257.207	79.990	19.998	103.081	20.045	1.905	0.477
360.000	258.173	79.992	19.996	103.079	20.039	2.301	0.499
362.000	259.164	79.989	19.997	103.083	20.038	2.388	0.521
364.000	260.181	79.991	19.997	103.079	20.042	2.131	0.499
366.000	261.189	80.008	19.992	103.058	20.045	1.921	0.497
368.000	262.116	79.995	19.997	103.075	20.042	2.083	0.479
370.000	263.122	79.995	19.994	103.072	20.037	2.465	0.525
372.000	264.066	79.995	19.996	103.081	20.041	2.204	0.476
374.000	265.056	79.991	19.995	103.084	20.038	2.374	0.497
376.000	266.009	79.991	19.996	103.083	20.038	2.406	0.475
378.000	267.007	79.998	19.996	103.079	20.039	2.307	0.511
380.000	267.988	79.988	19.995	103.088	20.039	2.315	0.484
382.000	268.956	79.988	19.996	103.086	20.039	2.311	0.520
384.000	269.969	80.001	19.995	103.077	20.039	2.333	0.541
386.000	270.925	79.990	19.997	103.079	20.039	2.327	0.515
388.000	271.920	79.991	19.997	103.074	20.037	2.488	0.496
390.000	272.873	79.993	19.996	103.081	20.039	2.337	0.478
392.000	273.885	79.992	19.996	103.090	20.038	2.373	0.500
394.000	274.836	79.995	19.996	103.080	20.043	2.034	0.479
396.000	275.868	79.994	19.994	103.074	20.041	2.153	0.537
398.000	276.832	79.994	19.996	103.073	20.042	2.147	0.483
400.000	277.826	80.007	19.993	103.070	20.042	2.097	0.500
402.000	278.778	79.992	19.995	103.077	20.041	2.161	0.495
404.000	279.779	79.993	19.994	103.077	20.042	2.117	0.525
406.000	280.739	79.993	19.995	103.077	20.041	2.206	0.478
408.000	281.735	79.991	19.995	103.085	20.043	2.070	0.492
410.000	282.742	79.992	19.996	103.072	20.038	2.404	0.510
412.000	283.716	79.994	19.995	103.079	20.038	2.405	0.505
414.000	284.723	80.001	19.995	103.072	20.038	2.387	0.470
416.000	285.698	79.995	19.995	103.078	20.041	2.208	0.511
418.000	286.749	79.998	19.997	103.065	20.039	2.294	0.511
420.000	287.735	79.996	19.996	103.069	20.039	2.309	0.509
422.000	288.691	79.988	19.998	103.062	20.041	2.185	0.497
424.000	289.700	79.994	19.995	103.052	20.044	1.945	0.487
426.000	290.703	79.989	19.996	103.066	20.042	2.088	0.480
428.000	291.719	79.992	19.996	103.068	20.043	2.072	0.534
430.000	292.694	79.993	19.995	103.068	20.044	1.963	0.511
432.000	293.667	79.982	19.997	103.057	20.044	1.949	0.490
434.000	294.660	79.992	19.995	103.055	20.043	2.052	0.477
436.000	295.674	79.994	19.995	103.061	20.041	2.173	0.503
438.000	296.645	79.999	19.996	103.058	20.043	2.058	0.491
440.001	297.641	79.996	19.997	103.055	20.044	2.004	0.505
442.000	298.615	79.995	19.998	103.069	20.042	2.089	0.488
444.000	299.618	80.000	19.994	103.074	20.041	2.216	0.487
446.000	300.630	79.992	19.997	103.074	20.039	2.337	0.504
448.000	301.604	79.989	19.997	103.077	20.038	2.381	0.489
450.000	302.616	79.991	19.998	103.075	20.038	2.387	0.504
452.000	303.619	79.995	19.997	103.079	20.036	2.531	0.536
454.000	304.626	79.989	19.997	103.078	20.038	2.395	0.530
456.000	305.631	79.991	19.996	103.078	20.036	2.541	0.522
458.000	306.634	79.989	19.995	103.081	20.037	2.497	0.532
460.001	307.719	79.992	19.997	103.074	20.036	2.543	0.525
462.000	308.688	79.988	19.997	103.079	20.041	2.218	0.481
464.000	309.718	79.974	19.997	103.062	20.038	2.423	0.543
466.000	310.764	79.992	19.996	103.061	20.039	2.307	0.493
468.000	311.823	79.986	19.997	103.072	20.038	2.383	0.523
470.000	312.836	79.995	19.994	103.073	20.038	2.387	0.509
472.000	313.883	79.995	19.995	103.075	20.033	2.771	0.534
474.000	314.910	80.002	19.995	103.060	20.038	2.415	0.526
476.000	315.982	80.019	19.994	103.067	20.038	2.397	0.538
478.000	316.943	79.988	19.996	103.062	20.038	2.435	0.500
480.000	318.020	79.993	19.994	103.051	20.033	2.795	0.538
482.000	319.011	79.995	19.995	103.061	20.035	2.621	0.492
484.000	320.033	79.995	19.996	103.052	20.035	2.643	0.459
486.000	321.035	79.995	19.995	103.053	20.034	2.698	0.504
488.000	322.094	79.993	19.995	103.049	20.036	2.561	0.504
490.000	323.128	79.994	19.996	103.048	20.034	2.706	0.544
492.000	324.153	79.993	19.996	103.048	20.034	2.716	0.526
494.000	325.102	79.994	19.996	103.048	20.030	3.007	0.461
496.000	326.107	79.995	19.995	103.050	20.031	2.870	0.506
498.000	327.127	79.996	19.995	103.049	20.031	2.902	0.545
500.000	328.081	79.998	19.994	103.054	20.029	3.066	0.504
502.000	329.128	79.995	19.995	103.049	20.025	3.308	0.499
504.000	330.134	79.995	19.997	103.051	20.026	3.237	0.514
506.000	331.125	79.992	19.996	103.049	20.028	3.110	0.506
508.000	332.154	79.996	19.998	103.052	20.028	3.086	0.510
510.000	333.216	79.994	19.996	103.049	20.028	3.153	0.561
512.000	334.225	79.992	19.995	103.058	20.023	3.447	0.510
514.000	335.226	79.992	19.996	103.070	20.023	3.508	0.489
516.000	336.253	79.983	19.996	103.059	20.023	3.470	0.491
518.000	337.300	79.994	19.996	103.073	20.019	3.762	0.518
520.000	338.344	79.990	19.996	103.054	20.020	3.692	0.508
522.000	339.352	79.993	19.995	103.059	20.020	3.708	0.493
524.000	340.416	79.990	19.995	103.053	20.015	4.066	0.503
526.000	341.401	79.993	19.996	103.055	20.014	4.134	0.474
528.000	342.475	79.991	19.996	103.056	20.011	4.365	0.540
530.000	343.423	79.991	19.997	103.065	20.012	4.274	0.512
532.000	344.501	79.992	19.996	103.070	20.010	4.427	0.540
534.000	345.505	79.991	19.995	103.068	20.008	4.578	0.515
536.000	346.543	79.992	19.995	103.064	20.005	4.810	0.535
538.000	347.578	79.992	19.997	103.063	20.003	4.901	0.522
540.000	348.625	79.990	19.995	103.066	20.002	5.027	0.524
542.000	349.675	79.992	19.997	103.065	19.995	5.479	0.539
544.000	350.700	79.992	19.996	103.059	20.000	5.121	0.507
546.000	351.732	79.993	19.996	103.051	19.994	5.560	0.505
548.000	352.789	79.994	19.996	103.051	19.990	5.887	0.513
550.000	353.831	79.992	19.996	103.056	19.988	5.984	0.532
552.000	354.846	79.994	19.995	103.055	19.987	6.107	0.525
554.000	355.874	79.995	19.995	103.056	19.984	6.321	0.524
556.000	356.914	79.993	19.996	103.052	19.978	6.760	0.496
558.000	357.953	79.993	19.996	103.049	19.974	7.014	0.514
560.000	359.000	79.991	19.996	103.052	19.971	7.257	0.498
562.000	359.972	79.993	19.996	103.051	19.972	7.172	0.513
564.000	361.072	79.994	19.996	103.050	19.965	7.652	0.569
566.000	362.082	79.992	19.995	103.057	19.965	7.696	0.526
568.000	363.099	79.992	19.996	103.058	19.961	7.933	0.516
570.001	364.128	79.992	19.996	103.055	19.952	8.624	0.531
572.000	365.141	79.992	19.994	103.068	19.947	8.937	0.497
574.000	366.182	79.993	19.995	103.054	19.945	9.136	0.541
576.000	367.195	79.996	19.995	103.056	19.942	9.337	0.522
578.000	368.210	79.994	19.995	103.060	19.938	9.623	0.506
580.000	369.254	79.994	19.995	103.053	19.932	10.028	0.563
582.000	370.230	79.996	19.994	103.072	19.925	10.525	0.474
584.000	371.205	79.994	19.995	103.085	19.919	11.017	0.485
586.000	372.249	79.995	19.996	103.066	19.917	11.151	0.537
588.000	373.279	79.994	19.996	103.069	19.906	11.947	0.535
590.000	374.284	79.992	19.994	103.083	19.902	12.199	0.505
592.000	375.313	79.992	19.995	103.077	19.894	12.795	0.497
594.000	376.300	79.991	19.995	103.068	19.888	13.208	0.474
596.000	377.318	79.991	19.997	103.084	19.881	13.739	0.475
598.000	378.328	79.991	19.997	103.082	19.878	13.937	0.516
600.000	379.319	79.993	19.997	103.082	19.868	14.685	0.508
602.000	380.301	79.991	19.997	103.086	19.860	15.252	0.483
604.000	381.255	79.993	19.996	103.076	19.855	15.622	0.487
606.000	382.216	79.993	19.995	103.082	19.847	16.166	0.441
608.000	383.252	79.992	19.996	103.087	19.838	16.805	0.483
610.000	384.187	79.994	19.995	103.080	19.834	17.092	0.494
612.000	385.184	79.993	19.995	103.081	19.827	17.586	0.489
614.000	386.186	79.992	19.995	103.085	19.815	18.480	0.508
616.000	387.151	79.992	19.995	103.087	19.808	18.966	0.459
618.000	388.133	79.991	19.996	103.093	19.797	19.807	0.502
620.000	389.158	79.991	19.997	103.095	19.791	20.208	0.478
622.000	390.167	79.993	19.996	103.098	19.779	21.051	0.496
624.000	391.203	79.991	19.998	103.106	19.771	21.664	0.513
626.000	392.209	79.991	19.997	103.096	19.759	22.496	0.529
628.000	393.229	79.993	19.997	103.110	19.750	23.176	0.521
630.000	394.220	79.992	19.997	103.105	19.744	23.635	0.517
632.000	395.216	79.995	19.997	103.108	19.733	24.411	0.478
634.000	396.280	79.994	19.997	103.103	19.725	24.952	0.501
636.000	397.275	79.995	19.996	103.107	19.711	25.971	0.538
638.000	398.308	79.995	19.997	103.113	19.706	26.349	0.526
640.000	399.266	79.994	19.996	103.126	19.693	27.287	0.503
642.000	400.248	79.991	19.997	103.125	19.681	28.148	0.473
644.000	401.299	79.992	19.997	103.116	19.667	29.171	0.518
646.000	402.278	79.992	19.996	103.124	19.652	30.251	0.490
648.000	403.297	79.993	19.995	103.128	19.647	30.650	0.509
650.000	404.289	79.994	19.996	103.128	19.628	31.953	0.514
652.000	405.289	79.992	19.996	103.128	19.616	32.872	0.514
654.000	406.272	79.991	19.997	103.131	19.604	33.701	0.484
656.000	407.259	79.994	19.995	103.132	19.587	34.965	0.473
658.000	408.300	79.993	19.996	103.138	19.574	35.877	0.498
660.000	409.284	79.996	19.994	103.153	19.558	37.043	0.520
662.001	410.269	79.995	19.995	103.155	19.543	38.137	0.508
664.000	411.239	79.994	19.995	103.158	19.523	39.545	0.471
666.000	412.273	79.995	19.997	103.165	19.505	40.882	0.491
668.000	413.284	79.994	19.995	103.163	19.488	42.112	0.526
670.000	414.232	79.992	19.995	103.162	19.468	43.531	0.495
672.000	415.185	79.991	19.996	103.165	19.443	45.355	0.489
674.000	416.184	79.992	19.995	103.175	19.422	46.844	0.489
676.000	417.213	79.994	19.995	103.187	19.403	48.283	0.534
678.000	418.187	79.994	19.995	103.195	19.376	50.235	0.484
680.000	419.160	79.995	19.996	103.205	19.356	51.634	0.445
682.000	420.220	79.993	19.997	103.205	19.333	53.311	0.532
684.000	421.237	79.993	19.997	103.206	19.311	54.916	0.548
686.000	422.260	79.994	19.996	103.210	19.285	56.816	0.510
688.000	423.258	79.992	19.997	103.231	19.262	58.463	0.503
690.001	424.316	79.991	19.999	103.241	19.237	60.240	0.522
692.000	425.327	79.993	19.996	103.233	19.207	62.452	0.522
694.000	426.393	79.993	19.995	103.240	19.186	63.976	0.517
696.000	427.455	79.993	19.997	103.246	19.156	66.140	0.515
698.000	428.497	79.992	19.995	103.258	19.127	68.226	0.520
700.000	429.553	79.990	19.997	103.243	19.106	69.774	0.517
702.000	430.603	79.993	19.997	103.272	19.081	71.594	0.534
704.000	431.649	79.991	19.997	103.281	19.052	73.654	0.542
706.000	432.688	79.991	19.997	103.284	19.024	75.666	0.525
708.000	433.787	79.992	19.996	103.290	18.997	77.672	0.536
710.000	434.841	79.992	19.997	103.289	18.972	79.454	0.553
712.000	435.882	79.995	19.995	103.295	18.947	81.246	0.501
714.000	436.918	79.992	19.996	103.309	18.923	83.036	0.516
716.000	437.962	79.992	19.996	103.321	18.901	84.616	0.514
718.000	438.984	79.994	19.995	103.323	18.878	86.278	0.524
720.000	440.033	79.994	19.997	103.326	18.855	87.920	0.516
722.000	441.072	79.995	19.996	103.329	18.832	89.578	0.533
724.000	442.136	79.992	19.996	103.347	18.812	91.042	0.531
726.000	443.193	79.994	19.996	103.360	18.791	92.546	0.531
728.000	444.171	79.993	19.995	103.353	18.779	93.459	0.536
730.000	445.225	79.995	19.995	103.363	18.765	94.470	0.537
732.000	446.265	79.995	19.996	103.363	18.757	95.036	0.520
734.000	447.280	79.991	19.995	103.361	18.751	95.480	0.524
736.000	448.315	79.998	19.995	103.357	18.750	95.542	0.538
738.000	449.338	79.996	19.996	103.358	18.758	94.893	0.521
740.000	450.317	79.995	19.995	103.356	18.768	94.189	0.510
742.000	451.370	79.996	19.996	103.353	18.780	93.318	0.525
744.000	452.325	79.992	19.996	103.346	18.803	91.600	0.472
746.000	453.387	79.995	19.995	103.332	18.826	89.944	0.517
748.000	454.435	79.995	19.995	103.320	18.863	87.256	0.532
750.000	455.412	79.994	19.997	103.314	18.902	84.410	0.511
752.000	456.454	79.993	19.995	103.291	18.951	80.898	0.525
754.000	457.469	79.993	19.996	103.281	19.003	77.092	0.520
756.000	458.466	79.992	19.997	103.261	19.060	73.015	0.506
758.000	459.521	79.993	19.995	103.244	19.115	69.010	0.545
760.000	460.513	79.994	19.996	103.238	19.165	65.381	0.520
762.000	461.539	79.993	19.996	103.218	19.218	61.533	0.516
764.000	462.573	79.993	19.997	103.209	19.273	57.575	0.536
766.000	463.592	79.990	19.996	103.189	19.322	54.030	0.520
768.000	464.590	79.994	19.995	103.169	19.373	50.364	0.522
770.000	465.610	79.992	19.995	103.164	19.417	47.174	0.517
772.000	466.646	79.992	19.995	103.148	19.454	44.542	0.505
774.000	467.693	79.990	19.995	103.133	19.484	42.315	0.531
776.000	468.739	79.993	19.996	103.127	19.511	40.412	0.534
778.000	469.739	79.990	19.997	103.128	19.529	39.085	0.504
780.000	470.741	79.991	19.996	103.107	19.539	38.339	0.505
782.000	471.730	79.992	19.997	103.088	19.541	38.248	0.499
784.000	472.793	79.992	19.996	103.084	19.538	38.442	0.535
786.000	473.795	79.993	19.995	103.064	19.531	38.937	0.526
788.000	474.799	79.993	19.996	103.053	19.523	39.532	0.530
790.000	475.816	79.995	19.996	103.051	19.510	40.468	0.480
792.000	476.857	79.994	19.995	103.050	19.502	41.033	0.513
794.000	477.835	79.995	19.995	103.031	19.489	41.971	0.511
796.000	478.847	79.993	19.996	103.014	19.479	42.667	0.505
798.000	479.831	79.995	19.996	103.015	19.474	43.031	0.481
800.000	480.822	79.992	19.997	103.007	19.474	43.042	0.487
802.000	481.816	79.991	19.997	102.997	19.483	42.378	0.482
804.000	482.800	79.992	19.996	102.980	19.505	40.824	0.499
806.000	483.832	79.993	19.997	102.967	19.531	38.892	0.520
808.000	484.821	79.991	19.996	102.964	19.569	36.160	0.527
810.000	485.812	79.993	19.997	102.968	19.606	33.542	0.486
812.000	486.785	79.995	19.995	102.975	19.644	30.767	0.485
814.000	487.775	79.994	19.995	102.985	19.685	27.806	0.489
816.000	488.781	79.994	19.995	102.979	19.726	24.854	0.489
818.000	489.775	79.995	19.995	102.996	19.762	22.294	0.511
820.000	490.730	79.995	19.995	102.987	19.802	19.429	0.479
822.000	491.773	79.994	19.995	103.003	19.836	16.934	0.509
824.000	492.755	79.994	19.996	103.006	19.873	14.302	0.496
826.000	493.765	79.995	19.995	103.007	19.897	12.574	0.530
828.000	494.787	79.992	19.996	103.013	19.925	10.576	0.530
830.000	495.809	79.991	19.996	103.030	19.945	9.085	0.513
832.000	496.761	79.991	19.995	103.045	19.961	7.931	0.470
834.000	497.768	79.993	19.998	103.042	19.978	6.747	0.516
836.000	498.764	79.993	19.997	103.032	19.994	5.583	0.491
838.000	499.787	79.994	19.996	103.036	20.002	5.018	0.491
840.000	500.789	79.992	19.997	103.049	20.005	4.798	0.512
842.000	501.797	79.993	19.996	103.038	20.007	4.636	0.498
844.000	502.800	79.992	19.996	103.042	20.012	4.244	0.516
846.000	503.800	79.992	19.995	103.040	20.014	4.163	0.517
848.000	504.768	79.992	19.994	103.041	20.019	3.756	0.492
850.000	505.795	79.994	19.995	103.038	20.016	3.992	0.513
852.000	506.777	79.993	19.995	103.047	20.019	3.768	0.477
854.000	507.793	79.994	19.994	103.040	20.017	3.928	0.484
856.000	508.773	79.994	19.995	103.033	20.018	3.813	0.479
858.000	509.821	79.992	19.996	103.030	20.016	4.008	0.538
860.000	510.782	79.991	19.996	103.043	20.020	3.734	0.514
862.000	511.800	79.990	19.997	103.041	20.017	3.934	0.486
864.000	512.801	79.991	19.997	103.045	20.017	3.920	0.524
866.000	513.779	79.994	19.996	103.046	20.020	3.730	0.489
868.000	514.867	79.993	19.996	103.046	20.018	3.814	0.526
870.001	515.904	79.994	19.996	103.047	20.014	4.117	0.537
872.000	516.952	79.995	19.996	103.049	20.017	3.901	0.522
874.000	518.000	79.993	19.995	103.047	20.022	3.566	0.539
876.000	519.083	79.995	19.995	103.046	20.017	3.934	0.520
878.000	520.141	79.994	19.995	103.046	20.014	4.132	0.530
880.000	521.229	79.993	19.996	103.043	20.018	3.867	0.524
882.000	522.276	79.993	19.997	103.044	20.016	3.992	0.516
884.001	523.389	79.993	19.996	103.045	20.015	4.029	0.552
886.000	524.514	79.994	19.997	103.043	20.017	3.914	0.560
888.000	525.583	79.993	19.996	103.046	20.013	4.190	0.546
890.000	526.626	79.993	19.998	103.047	20.015	4.035	0.548
892.000	527.751	79.992	19.997	103.047	20.016	3.960	0.533
894.000	528.890	79.992	19.996	103.047	20.014	4.132	0.555
896.000	529.983	79.994	19.997	103.047	20.013	4.225	0.558
898.000	531.093	79.996	19.996	103.048	20.016	3.998	0.571
900.000	532.200	79.995	19.995	103.049	20.014	4.120	0.555
902.000	533.265	79.995	19.995	103.049	20.018	3.823	0.529
904.000	534.389	79.995	19.994	103.051	20.013	4.174	0.544
906.000	535.540	79.993	19.995	103.050	20.015	4.093	0.590
908.000	536.607	79.992	19.995	103.049	20.013	4.219	0.536
910.000	537.692	79.992	19.995	103.050	20.014	4.118	0.533
912.000	538.834	79.990	19.995	103.058	20.016	3.984	0.555
914.001	539.911	79.992	19.996	103.051	20.017	3.926	0.529
916.001	541.034	79.993	19.996	103.052	20.014	4.160	0.530
918.000	542.140	79.994	19.995	103.052	20.013	4.225	0.567
920.000	543.236	79.993	19.995	103.050	20.016	3.986	0.526
922.000	544.333	79.993	19.997	103.050	20.012	4.295	0.532
924.000	545.445	79.993	19.996	103.048	20.014	4.140	0.558
926.000	546.524	79.992	19.997	103.049	20.014	4.156	0.547
928.000	547.615	79.993	19.996	103.047	20.012	4.241	0.539
930.000	548.686	79.994	19.996	103.047	20.012	4.263	0.548
932.000	549.786	79.995	19.996	103.049	20.014	4.138	0.542
934.001	550.874	79.992	19.995	103.047	20.015	4.083	0.559
936.000	551.935	79.993	19.996	103.047	20.013	4.210	0.555
938.000	552.994	79.993	19.995	103.052	20.012	4.279	0.522
940.000	554.126	79.993	19.994	103.048	20.016	3.954	0.556
942.000	555.196	79.994	19.996	103.050	20.014	4.109	0.543
944.000	556.291	79.993	19.995	103.049	20.015	4.065	0.547
946.000	557.278	79.993	19.996	103.049	20.014	4.140	0.527
948.000	558.405	79.994	19.996	103.046	20.014	4.120	0.550
950.000	559.454	79.994	19.996	103.048	20.013	4.168	0.551
952.000	560.485	79.995	19.996	103.049	20.012	4.287	0.547
954.001	561.511	79.993	19.996	103.047	20.011	4.364	0.535
956.000	562.598	79.995	19.996	103.049	20.008	4.598	0.521
958.000	563.653	79.994	19.996	103.048	20.007	4.603	0.532
960.000	564.643	79.994	19.996	103.050	20.009	4.485	0.502
962.000	565.673	79.992	19.997	103.050	20.005	4.810	0.534
964.000	566.692	79.993	19.996	103.049	20.004	4.829	0.505
966.000	567.693	79.993	19.996	103.050	20.005	4.796	0.494
968.000	568.717	79.993	19.996	103.059	20.001	5.055	0.515
970.001	569.768	79.994	19.995	103.056	20.002	4.974	0.499
972.000	570.808	79.993	19.997	103.052	20.001	5.081	0.527
974.000	571.788	79.993	19.996	103.053	20.000	5.113	0.506
976.000	572.794	79.992	19.995	103.055	19.998	5.281	0.509
978.000	573.885	79.995	19.995	103.052	19.996	5.420	0.543
980.000	574.884	79.995	19.997	103.049	19.995	5.507	0.508
982.000	575.938	79.995	19.997	103.050	19.993	5.667	0.506
984.000	576.955	79.993	19.996	103.049	19.991	5.772	0.522
986.000	577.982	79.993	19.997	103.049	19.987	6.085	0.532
988.000	578.969	79.994	19.996	103.058	19.984	6.263	0.498
990.000	580.024	79.993	19.997	103.056	19.979	6.635	0.512
992.000	581.030	79.994	19.996	103.060	19.977	6.799	0.524
994.000	581.982	79.993	19.996	103.052	19.975	6.916	0.490
996.000	583.026	79.992	19.996	103.052	19.972	7.128	0.489
998.000	584.049	79.993	19.995	103.057	19.965	7.631	0.526
1000.000	585.041	79.993	19.996	103.070	19.962	7.872	0.483
1002.000	586.080	79.992	19.997	103.076	19.956	8.302	0.508
1004.000	587.061	79.994	19.996	103.084	19.949	8.822	0.474
1006.000	588.083	79.993	19.997	103.064	19.944	9.149	0.507
1008.000	589.083	79.994	19.996	103.071	19.937	9.660	0.513
1010.000	590.105	79.994	19.995	103.075	19.927	10.422	0.506
1012.000	591.134	79.993	19.997	103.079	19.917	11.135	0.500
1014.000	592.130	79.992	19.997	103.084	19.907	11.867	0.535
1016.000	593.177	79.993	19.996	103.088	19.894	12.794	0.506
1018.000	594.214	79.992	19.995	103.086	19.884	13.538	0.535
1020.000	595.247	79.991	19.996	103.090	19.871	14.412	0.497
1022.000	596.281	79.994	19.994	103.091	19.862	15.096	0.519
1024.000	597.287	79.992	19.996	103.090	19.849	16.043	0.510
1026.001	598.310	79.993	19.995	103.089	19.840	16.657	0.519
1028.000	599.319	79.994	19.994	103.093	19.829	17.465	0.491
1030.000	600.325	79.993	19.995	103.092	19.815	18.500	0.500
1032.000	601.324	79.993	19.995	103.096	19.804	19.267	0.515
1034.000	602.355	79.994	19.994	103.095	19.792	20.126	0.501
1036.000	603.375	79.994	19.996	103.095	19.783	20.772	0.522
1038.000	604.392	79.994	19.996	103.093	19.774	21.430	0.493
1040.001	605.410	79.993	19.995	103.102	19.766	21.997	0.527
1042.000	606.454	79.994	19.996	103.102	19.758	22.592	0.504
1044.000	607.470	79.993	19.995	103.104	19.748	23.326	0.556
1046.000	608.498	79.993	19.997	103.107	19.742	23.749	0.509
1048.001	609.495	79.993	19.996	103.097	19.742	23.768	0.488
1050.000	610.542	79.994	19.996	103.099	19.730	24.619	0.548
1052.000	611.561	79.995	19.996	103.100	19.731	24.561	0.502
1054.001	612.558	79.995	19.995	103.117	19.729	24.697	0.503
1056.001	613.600	79.995	19.996	103.108	19.732	24.498	0.508
1058.000	614.637	79.996	19.997	103.088	19.732	24.500	0.522
1060.001	615.646	79.995	19.995	103.097	19.735	24.248	0.496
1062.000	616.706	79.995	19.995	103.097	19.740	23.919	0.510
1064.001	617.652	79.995	19.997	103.087	19.752	23.045	0.473
1066.000	618.671	79.993	19.997	103.089	19.763	22.242	0.482
1068.000	619.686	79.992	19.997	103.086	19.779	21.078	0.488
1070.000	620.755	79.991	19.997	103.087	19.795	19.920	0.511
1072.000	621.764	79.994	19.995	103.083	19.815	18.482	0.507
1074.000	622.795	79.992	19.996	103.082	19.833	17.155	0.524
1076.000	623.796	79.992	19.996	103.080	19.861	15.186	0.525
1078.000	624.840	79.992	19.997	103.053	19.887	13.292	0.505
1080.000	625.808	79.993	19.996	103.051	19.913	11.390	0.503
1082.001	626.824	79.993	19.996	103.055	19.938	9.630	0.514
1084.000	627.876	79.993	19.995	103.050	19.963	7.780	0.527
1086.001	628.904	79.993	19.996	103.051	19.980	6.579	0.490
1088.000	629.847	79.993	19.996	103.050	19.991	5.799	0.507
1090.000	630.854	79.993	19.996	103.050	19.999	5.197	0.502
1092.002	631.851	79.993	19.995	103.047	20.008	4.540	0.471
1094.000	632.883	79.992	19.996	103.041	20.009	4.459	0.514
1096.001	633.933	79.993	19.995	103.040	20.012	4.245	0.503
1098.000	634.960	79.992	19.996	103.040	20.014	4.103	0.509
1100.001	635.938	79.991	19.995	103.036	20.018	3.865	0.502
1102.000	636.964	79.991	19.995	103.045	20.019	3.796	0.490
1104.000	637.962	79.993	19.995	103.048	20.019	3.738	0.481
1106.001	638.937	79.993	19.995	103.042	20.020	3.705	0.485
1108.001	639.983	79.994	19.996	103.044	20.021	3.596	0.506
1110.000	640.990	79.994	19.995	103.047	20.020	3.713	0.523
1112.000	641.991	79.994	19.995	103.043	20.023	3.494	0.525
1114.000	643.000	79.993	19.996	103.043	20.024	3.409	0.521
1116.000	643.946	79.996	19.996	103.046	20.022	3.532	0.468
1118.000	644.963	79.996	19.994	103.043	20.022	3.538	0.479
1120.000	645.958	79.993	19.997	103.042	20.019	3.796	0.509
1122.000	647.016	79.993	19.997	103.048	20.019	3.774	0.514
1124.000	648.002	79.995	19.995	103.048	20.019	3.756	0.505
1126.000	648.995	79.993	19.996	103.047	20.023	3.465	0.515
1128.001	650.011	79.994	19.996	103.047	20.017	3.940	0.502
1130.000	651.063	79.994	19.995	103.047	20.022	3.588	0.509
1132.000	652.020	79.996	19.995	103.046	20.024	3.403	0.498
1134.001	653.047	79.996	19.994	103.040	20.022	3.570	0.470
1136.001	654.084	79.995	19.996	103.042	20.021	3.647	0.505
1138.000	655.081	79.997	19.995	103.047	20.019	3.764	0.519
1140.000	656.092	79.994	19.997	103.048	20.022	3.575	0.492
1142.000	657.122	79.994	19.995	103.050	20.020	3.688	0.521
1144.001	658.151	79.994	19.995	103.048	20.025	3.361	0.503
1146.000	659.095	79.995	19.995	103.051	20.021	3.661	0.508
1148.001	660.172	79.992	19.997	103.052	20.020	3.706	0.498
1150.000	661.215	79.994	19.996	103.066	20.019	3.781	0.510
1152.000	662.188	79.992	19.998	103.079	20.018	3.821	0.483
1154.000	663.250	79.990	19.998	103.060	20.019	3.777	0.522
1156.001	664.245	79.993	19.996	103.055	20.022	3.574	0.494
1158.000	665.238	79.993	19.997	103.066	20.017	3.919	0.461
1160.000	666.244	79.994	19.997	103.077	20.019	3.778	0.500
1162.000	667.296	79.991	19.997	103.075	20.015	4.026	0.486
1164.001	668.261	79.992	19.996	103.070	20.014	4.105	0.466
1166.001	669.308	79.994	19.996	103.088	20.016	4.012	0.519
1168.000	670.341	79.993	19.995	103.090	20.015	4.051	0.477
1170.000	671.352	79.993	19.995	103.087	20.013	4.224	0.501
1172.001	672.405	79.994	19.996	103.086	20.015	4.081	0.511
1174.000	673.367	79.993	19.995	103.085	20.011	4.320	0.525
1176.000	674.427	79.992	19.996	103.086	20.013	4.231	0.507
1178.000	675.448	79.993	19.995	103.085	20.010	4.394	0.502
1180.000	676.467	79.993	19.996	103.095	20.013	4.184	0.500
1182.000	677.476	79.992	19.996	103.098	20.012	4.298	0.521
1184.000	678.478	79.994	19.996	103.112	20.010	4.386	0.502
1186.001	679.437	79.993	19.996	103.102	20.011	4.326	0.499
1188.000	680.455	79.995	19.997	103.102	20.013	4.174	0.484
1190.000	681.485	79.994	19.995	103.096	20.011	4.322	0.513
1192.000	682.463	79.995	19.995	103.107	20.012	4.284	0.517
1194.000	683.492	79.995	19.997	103.107	20.009	4.513	0.481
1196.000	684.485	79.995	19.995	103.092	20.005	4.749	0.488
1198.000	685.486	79.994	19.995	103.110	20.006	4.737	0.502
1200.001	686.575	79.993	19.995	103.114	20.004	4.852	0.616
1202.001	687.523	79.994	19.995	103.124	20.003	4.905	0.371
1204.001	688.501	79.994	19.994	103.127	20.003	4.893	0.484
1206.000	689.466	79.994	19.995	103.126	19.992	5.696	0.482
1208.000	690.514	79.993	19.997	103.127	20.001	5.092	0.484
1210.000	691.559	79.994	19.995	103.129	19.998	5.270	0.517
1212.000	692.529	79.995	19.995	103.136	20.002	5.025	0.526
1214.000	693.530	79.992	19.999	103.146	20.002	5.017	0.489
1216.000	694.595	79.996	19.995	103.140	20.006	4.700	0.513
1218.000	695.535	79.996	19.998	103.150	20.002	4.967	0.523
1220.000	696.600	79.994	19.991	103.155	20.000	5.161	0.970
1222.000	697.494	79.993	19.996	103.163	19.998	5.311	0.370
1224.000	698.572	79.990	19.995	103.149	20.002	5.008	0.454
1226.001	699.624	79.994	19.993	103.161	20.002	5.024	0.514
1228.000	700.594	79.990	19.998	103.167	19.999	5.188	0.493
1230.000	701.587	79.993	19.998	103.167	19.996	5.457	0.508
1232.000	702.638	79.992	19.997	103.168	19.999	5.228	0.495
1234.000	703.616	79.993	19.999	103.167	19.997	5.362	0.479
1236.000	704.563	79.993	19.994	103.166	19.994	5.604	0.537
1238.000	705.587	79.993	19.997	103.166	19.997	5.356	0.470
1240.000	706.526	79.995	19.997	103.172	19.996	5.433	0.471
1242.000	707.528	79.993	19.997	103.167	19.994	5.607	0.492
1244.000	708.505	79.993	19.994	103.170	19.994	5.587	0.489
1246.001	709.494	79.997	19.996	103.169	19.991	5.809	0.474
1248.000	710.491	79.992	19.998	103.178	19.992	5.733	0.514
1250.000	711.484	79.994	19.995	103.179	19.987	6.097	0.500
1252.000	712.451	79.990	20.002	103.180	19.991	5.780	0.486
1254.001	713.455	79.993	19.994	103.176	19.988	6.035	0.478
1256.001	714.462	79.992	19.995	103.184	19.989	5.923	0.511
1258.000	715.533	79.993	19.995	103.180	19.988	5.980	0.573
1260.000	716.484	79.994	19.996	103.197	19.988	6.018	0.498
1262.000	717.467	79.995	19.996	103.183	19.987	6.058	0.483
1264.000	718.459	79.991	19.998	103.173	19.991	5.807	0.505
1266.000	719.465	79.994	19.997	103.186	19.989	5.924	0.529
1268.000	720.463	79.997	19.994	103.188	19.989	5.946	0.485
1270.000	721.444	79.991	19.998	103.197	19.986	6.154	0.488
1272.000	722.478	79.998	19.991	103.181	19.988	5.994	0.498
1274.000	723.477	79.992	19.998	103.181	19.985	6.219	0.520
1276.000	724.455	79.991	20.003	103.179	19.987	6.105	0.526
1278.000	725.490	79.990	20.002	103.163	19.987	6.114	0.514
1280.000	726.513	79.996	19.996	103.164	19.991	5.822	0.529
1282.000	727.499	79.995	19.997	103.165	19.987	6.113	0.502
1284.000	728.516	79.994	19.992	103.156	19.988	5.982	0.503
1286.001	729.543	79.997	19.991	103.135	19.992	5.742	0.526
1288.000	730.535	79.995	19.991	103.132	19.997	5.378	0.522
1290.000	731.541	79.993	19.992	103.131	19.999	5.190	0.504
1292.001	732.534	79.990	19.996	103.098	20.002	5.021	0.483
1294.000	733.540	79.994	19.996	103.090	20.006	4.742	0.520
1296.000	734.579	80.002	19.989	103.073	20.007	4.660	0.497
1298.000	735.580	80.000	19.987	103.057	20.012	4.288	0.523
1300.000	736.609	79.994	19.998	103.049	20.016	4.013	0.479
1302.000	737.665	80.000	19.994	103.044	20.015	4.056	0.522
1304.000	738.751	79.992	20.000	103.025	20.020	3.710	0.557
1306.000	739.791	79.996	19.990	103.021	20.021	3.626	0.528
1308.001	740.848	79.993	19.992	103.029	20.019	3.769	0.515
1310.001	741.937	79.995	19.994	103.028	20.024	3.419	0.558
1312.000	743.001	79.990	19.994	103.018	20.019	3.789	0.535
1312.500	743.223	79.988	20.007	103.021	20.018	3.874	0.518