File: 01_Data/Overstuffed_Chair_Polyurethane_Foam/STA/N2/10K_min/Overstuffed_Chair_Polyurethane_Foam_STA_N2_10KData_220128_R1.csv
##Temp./Â°C,Time/min,DSC(subtr.)/(mW/mg),Mass(subtr.2)/%,Sensit./(uV/mW)
49.349,10.01,-0.001757585,99.97574,1.07447
49.949,10.7354,0.02212801,99.94213,1.07443
50.549,10.92343,0.04157377,99.97165,1.07438
51.149,11.06444,0.05840858,99.91942,1.07434
51.749,11.18305,0.07303799,99.94951,1.0743
52.349,11.28905,0.08506743,99.92015,1.07425
52.949,11.38623,0.09784015,99.9724,1.07421
53.549,11.47642,0.10533,99.97759,1.07416
54.149,11.56194,0.11299,99.9675,1.07411
54.749,11.644,0.12053,99.95773,1.07406
55.349,11.72206,0.12642,99.92942,1.07402
55.949,11.79911,0.13235,99.96785,1.07397
56.549,11.8742,0.13505,99.9534,1.07391
57.149,11.94857,0.14055,99.94185,1.07386
57.749,12.0207,0.14594,99.93091,1.07381
58.349,12.092,0.14622,99.9378,1.07376
58.949,12.16217,0.14785,99.9526,1.0737
59.549,12.23124,0.15245,99.99378,1.07365
60.149,12.29969,0.15264,99.95982,1.07359
60.749,12.36792,0.15628,99.95912,1.07354
61.349,12.4358,0.15907,99.96137,1.07348
61.949,12.50327,0.15982,99.9822,1.07342
62.549,12.56986,0.16098,99.95396,1.07336
63.149,12.63542,0.16099,99.9286,1.0733
63.749,12.70134,0.16327,99.9511,1.07324
64.349,12.76682,0.16369,99.9513,1.07318
64.949,12.83206,0.16376,99.9488,1.07312
65.549,12.89738,0.16466,99.933,1.07305
66.149,12.96246,0.16447,99.95488,1.07299
66.749,13.0273,0.1646,99.9825,1.07292
67.349,13.0921,0.16584,99.94858,1.07286
67.949,13.15659,0.16567,99.9481,1.07279
68.549,13.2209,0.16798,99.9808,1.07272
69.149,13.2851,0.16828,99.94873,1.07266
69.749,13.3491,0.16914,99.94852,1.07259
70.349,13.4131,0.16901,99.949,1.07252
70.949,13.4772,0.17115,99.9483,1.07245
71.549,13.54069,0.17182,99.92268,1.07237
72.149,13.6044,0.17272,99.91588,1.0723
72.749,13.6675,0.17076,99.94864,1.07223
73.349,13.7309,0.16845,99.9629,1.07215
73.949,13.7941,0.17054,99.92994,1.07208
74.549,13.8572,0.17246,99.91611,1.072
75.149,13.92029,0.17124,99.94846,1.07193
75.749,13.98335,0.17174,99.94852,1.07185
76.349,14.04604,0.17148,99.91821,1.07177
76.949,14.10854,0.17274,99.95007,1.07169
77.549,14.17063,0.1728,99.91583,1.07161
78.149,14.2327,0.17095,99.91359,1.07153
78.749,14.29486,0.17364,99.91368,1.07145
79.349,14.35694,0.17521,99.95137,1.07137
79.949,14.41893,0.17462,99.91584,1.07128
80.549,14.4807,0.17363,99.9158,1.0712
81.149,14.5426,0.17714,99.9159,1.07111
81.749,14.60423,0.17363,99.91598,1.07103
82.349,14.66595,0.17571,99.88345,1.07094
82.949,14.72741,0.17562,99.88201,1.07085
83.549,14.7888,0.17645,99.90791,1.07077
84.149,14.84975,0.17354,99.88311,1.07068
84.749,14.9106,0.1759,99.91583,1.07059
85.349,14.9712,0.17597,99.91586,1.07049
85.949,15.0321,0.17624,99.91584,1.0704
86.549,15.093,0.1767,99.91609,1.07031
87.149,15.1539,0.17723,99.9158,1.07022
87.749,15.21471,0.1783,99.88361,1.07012
88.349,15.27511,0.17772,99.9143,1.07003
88.949,15.3354,0.17728,99.91584,1.06993
89.549,15.39543,0.17896,99.90235,1.06984
90.149,15.4554,0.17722,99.90395,1.06974
90.749,15.51549,0.17915,99.92487,1.06964
91.349,15.57557,0.18026,99.91584,1.06954
91.949,15.6357,0.17876,99.916,1.06944
92.549,15.6958,0.17927,99.90682,1.06934
93.149,15.7558,0.17705,99.91603,1.06924
93.749,15.81546,0.17816,99.91434,1.06914
94.349,15.8751,0.17772,99.91586,1.06903
94.949,15.93457,0.17846,99.94976,1.06893
95.549,15.99404,0.17855,99.94851,1.06882
96.149,16.05363,0.17872,99.93128,1.06872
96.749,16.11307,0.17665,99.89941,1.06861
97.349,16.1725,0.17849,99.86369,1.0685
97.949,16.23179,0.17497,99.89975,1.0684
98.549,16.29099,0.1784,99.89975,1.06829
99.149,16.3498,0.17591,99.90751,1.06818
99.749,16.40879,0.1784,99.93212,1.06807
100.349,16.4676,0.18001,99.89904,1.06795
100.949,16.52635,0.17672,99.89894,1.06784
101.549,16.58541,0.17816,99.91556,1.06773
102.149,16.64416,0.17944,99.91338,1.06762
102.749,16.70306,0.17871,99.89975,1.0675
103.349,16.76191,0.17687,99.9124,1.06738
103.949,16.82079,0.17976,99.89976,1.06727
104.549,16.87969,0.17693,99.8995,1.06715
105.149,16.9385,0.17953,99.89947,1.06703
105.749,16.99704,0.17956,99.86445,1.06691
106.349,17.05556,0.1771,99.8995,1.06679
106.949,17.1141,0.17911,99.89978,1.06667
107.549,17.17268,0.17892,99.9322,1.06655
108.149,17.23125,0.17869,99.89965,1.06643
108.749,17.28966,0.17922,99.8994,1.06631
109.349,17.3481,0.1793,99.93199,1.06618
109.949,17.40655,0.17873,99.89862,1.06606
110.549,17.4651,0.17906,99.8995,1.06593
111.149,17.5234,0.18114,99.90847,1.06581
111.749,17.582,0.17892,99.93209,1.06568
112.349,17.64055,0.18002,99.93218,1.06555
112.949,17.69921,0.18066,99.93222,1.06542
113.549,17.758,0.17979,99.89964,1.06529
114.149,17.81654,0.17802,99.89711,1.06516
114.749,17.87508,0.17835,99.93061,1.06503
115.349,17.93362,0.17861,99.8997,1.0649
115.949,17.9924,0.17715,99.89975,1.06477
116.549,18.05074,0.17874,99.89975,1.06464
117.149,18.1094,0.17711,99.89997,1.0645
117.749,18.16777,0.17854,99.92042,1.06437
118.349,18.2264,0.17847,99.9001,1.06423
118.949,18.28484,0.17907,99.93219,1.06409
119.549,18.3434,0.1772,99.93218,1.06396
120.149,18.40193,0.17841,99.93216,1.06382
120.749,18.4602,0.17722,99.89973,1.06368
121.349,18.51885,0.17874,99.89975,1.06354
121.949,18.57731,0.17961,99.89975,1.0634
122.549,18.63575,0.17894,99.90148,1.06326
123.149,18.69395,0.17791,99.88341,1.06311
123.749,18.75157,0.17608,99.91803,1.06297
124.349,18.80969,0.17682,99.8995,1.06283
124.949,18.86821,0.17939,99.8995,1.06268
125.549,18.92719,0.17942,99.89955,1.06254
126.149,18.9859,0.17692,99.9323,1.06239
126.749,19.04397,0.17883,99.93167,1.06224
127.349,19.10184,0.17802,99.8995,1.06209
127.949,19.16001,0.17996,99.8995,1.06195
128.549,19.2183,0.17708,99.93221,1.0618
129.149,19.27659,0.17824,99.93346,1.06165
129.749,19.33474,0.17588,99.89798,1.06149
130.349,19.39286,0.1732,99.89941,1.06134
130.949,19.45095,0.17788,99.89975,1.06119
131.549,19.50907,0.17731,99.89975,1.06104
132.149,19.56717,0.17757,99.89975,1.06088
132.749,19.6253,0.17642,99.89962,1.06073
133.349,19.6834,0.17557,99.8995,1.06057
133.949,19.74157,0.17365,99.8995,1.06041
134.549,19.80007,0.17687,99.8995,1.06026
135.149,19.8585,0.17543,99.8784,1.0601
135.749,19.91684,0.17617,99.8991,1.05994
136.349,19.97514,0.17445,99.8995,1.05978
136.949,20.03323,0.17602,99.8992,1.05962
137.549,20.0916,0.17563,99.88319,1.05946
138.149,20.14966,0.17294,99.85125,1.05929
138.749,20.2078,0.17246,99.8552,1.05913
139.349,20.26569,0.17393,99.8968,1.05897
139.949,20.32357,0.17225,99.91583,1.0588
140.549,20.38149,0.17471,99.88257,1.05864
141.149,20.43938,0.17448,99.91577,1.05847
141.749,20.49735,0.17327,99.9049,1.0583
142.349,20.5552,0.17463,99.88316,1.05813
142.949,20.61267,0.17478,99.88269,1.05797
143.549,20.67035,0.17633,99.89134,1.0578
144.149,20.72804,0.17515,99.8913,1.05763
144.749,20.78579,0.17524,99.9235,1.05745
145.349,20.84384,0.17553,99.89523,1.05728
145.949,20.90152,0.17652,99.87496,1.05711
146.549,20.9592,0.17452,99.89152,1.05694
147.149,21.0166,0.17461,99.86529,1.05676
147.749,21.0741,0.17465,99.86708,1.05659
148.349,21.13168,0.17413,99.86708,1.05641
148.949,21.18939,0.17443,99.86678,1.05623
149.549,21.24701,0.17535,99.89747,1.05606
150.149,21.30472,0.17268,99.89975,1.05588
150.749,21.36225,0.17501,99.89975,1.0557
151.349,21.42002,0.17318,99.89976,1.05552
151.949,21.47778,0.17319,99.89155,1.05534
152.549,21.53577,0.17203,99.85875,1.05516
153.149,21.5935,0.17441,99.85804,1.05498
153.749,21.65113,0.17359,99.89132,1.05479
154.349,21.70883,0.17192,99.89134,1.05461
154.949,21.76644,0.17141,99.89134,1.05443
155.549,21.82402,0.17087,99.89134,1.05424
156.149,21.88178,0.17151,99.9258,1.05405
156.749,21.93929,0.17474,99.91722,1.05387
157.349,21.99706,0.17342,99.89158,1.05368
157.949,22.0547,0.17522,99.89158,1.05349
158.549,22.11221,0.17504,99.8916,1.0533
159.149,22.16999,0.17107,99.92426,1.05311
159.749,22.22755,0.17249,99.92434,1.05292
160.349,22.28515,0.17195,99.89192,1.05273
160.949,22.34271,0.17261,99.92546,1.05254
161.549,22.40023,0.17349,99.92424,1.05235
162.149,22.45782,0.1734,99.8917,1.05215
162.749,22.5155,0.17189,99.8903,1.05196
163.349,22.57315,0.17276,99.92398,1.05176
163.949,22.63087,0.17294,99.923,1.05157
164.549,22.68848,0.17202,99.90767,1.05137
165.149,22.74607,0.17167,99.9077,1.05117
165.749,22.80376,0.17399,99.89069,1.05097
166.349,22.86146,0.17208,99.89116,1.05077
166.949,22.9191,0.17299,99.89962,1.05057
167.549,22.97699,0.17146,99.88189,1.05037
168.149,23.03458,0.17161,99.87525,1.05017
168.749,23.09212,0.1709,99.87524,1.04997
169.349,23.14976,0.1711,99.8913,1.04977
169.949,23.20723,0.17129,99.89158,1.04956
170.549,23.26481,0.17399,99.89156,1.04936
171.149,23.32224,0.17501,99.85781,1.04915
171.749,23.37983,0.17501,99.85891,1.04895
172.349,23.4375,0.17478,99.90479,1.04874
172.949,23.49521,0.17533,99.90767,1.04853
173.549,23.55261,0.17501,99.90768,1.04833
174.149,23.60996,0.17441,99.89141,1.04812
174.749,23.66724,0.17528,99.875,1.04791
175.349,23.7245,0.17257,99.875,1.0477
175.949,23.78192,0.17335,99.88775,1.04748
176.549,23.8394,0.17706,99.8751,1.04727
177.149,23.89623,0.17412,99.87525,1.04706
177.749,23.9537,0.17506,99.87525,1.04685
178.349,24.01106,0.17533,99.87589,1.04663
178.949,24.06879,0.17693,99.88342,1.04642
179.549,24.12663,0.17646,99.88301,1.0462
180.149,24.18398,0.17578,99.9079,1.04598
180.749,24.24144,0.1755,99.9079,1.04577
181.349,24.29893,0.17552,99.9079,1.04555
181.949,24.35632,0.17503,99.9079,1.04533
182.549,24.41372,0.17494,99.9079,1.04511
183.149,24.47121,0.17747,99.87451,1.04489
183.749,24.52856,0.17615,99.87525,1.04467
184.349,24.58607,0.17907,99.87526,1.04445
184.949,24.64356,0.17844,99.85716,1.04422
185.549,24.70112,0.17849,99.85891,1.044
186.149,24.7588,0.17723,99.85891,1.04378
186.749,24.81617,0.17846,99.85955,1.04355
187.349,24.87356,0.17806,99.86584,1.04333
187.949,24.931,0.1781,99.8566,1.0431
188.549,24.98865,0.17692,99.88,1.04287
189.149,25.04636,0.17817,99.87139,1.04264
189.749,25.10418,0.17808,99.84801,1.04242
190.349,25.1617,0.17658,99.83617,1.04219
190.949,25.2192,0.1788,99.81559,1.04196
191.549,25.27678,0.17759,99.81559,1.04173
192.149,25.33444,0.17756,99.81451,1.04149
192.749,25.39209,0.17883,99.848,1.04126
193.349,25.4496,0.17733,99.848,1.04103
193.949,25.5069,0.17902,99.848,1.0408
194.549,25.56454,0.18015,99.8509,1.04056
195.149,25.6222,0.18048,99.84354,1.04033
195.749,25.67987,0.17955,99.8398,1.04009
196.349,25.73743,0.18233,99.848,1.03985
196.949,25.7947,0.18393,99.848,1.03962
197.549,25.85204,0.18554,99.84798,1.03938
198.149,25.90939,0.18488,99.7987,1.03914
198.749,25.96677,0.18387,99.79926,1.0389
199.349,26.02424,0.18399,99.79926,1.03866
199.949,26.08151,0.18512,99.79926,1.03842
200.549,26.1384,0.18525,99.79926,1.03817
201.149,26.19557,0.18658,99.79926,1.03793
201.749,26.2528,0.19018,99.7989,1.03769
202.349,26.3102,0.18838,99.81559,1.03744
202.949,26.3679,0.18948,99.81559,1.0372
203.549,26.4253,0.18942,99.81559,1.03695
204.149,26.4826,0.18963,99.81559,1.03671
204.749,26.53988,0.19041,99.8156,1.03646
205.349,26.59723,0.19033,99.77224,1.03621
205.949,26.6546,0.19255,99.75024,1.03596
206.549,26.7118,0.19353,99.75111,1.03572
207.149,26.76887,0.19624,99.76658,1.03547
207.749,26.8259,0.19695,99.7526,1.03521
208.349,26.8831,0.19856,99.73391,1.03496
208.949,26.94025,0.19675,99.73391,1.03471
209.549,26.99745,0.19796,99.76451,1.03446
210.149,27.05469,0.19992,99.7829,1.0342
210.749,27.11202,0.20189,99.7809,1.03395
211.349,27.16897,0.20162,99.75026,1.0337
211.949,27.22598,0.20329,99.71889,1.03344
212.549,27.28313,0.20436,99.68281,1.03318
213.149,27.34027,0.20575,99.6939,1.03293
213.749,27.39759,0.20832,99.71783,1.03267
214.349,27.45477,0.20834,99.71724,1.03241
214.949,27.51169,0.20958,99.6849,1.03215
215.549,27.5688,0.21223,99.65273,1.03189
216.149,27.62578,0.21229,99.63824,1.03163
216.749,27.683,0.21626,99.62822,1.03137
217.349,27.7401,0.2183,99.62822,1.03111
217.949,27.79706,0.21816,99.62822,1.03084
218.549,27.85394,0.22125,99.62822,1.03058
219.149,27.9108,0.22179,99.62822,1.03031
219.749,27.96775,0.22553,99.61966,1.03005
220.349,28.0248,0.22595,99.62005,1.02978
220.949,28.08199,0.22898,99.62005,1.02952
221.549,28.13905,0.22942,99.61989,1.02925
222.149,28.19598,0.23033,99.587,1.02898
222.749,28.253,0.23106,99.55461,1.02871
223.349,28.31008,0.2345,99.55464,1.02844
223.949,28.36719,0.23505,99.52204,1.02817
224.549,28.42444,0.23737,99.52204,1.0279
225.149,28.48162,0.23766,99.4948,1.02763
225.749,28.53867,0.23807,99.51393,1.02736
226.349,28.5957,0.23922,99.51411,1.02709
226.949,28.65267,0.24019,99.5141,1.02681
227.549,28.70976,0.24371,99.4816,1.02654
228.149,28.7668,0.24603,99.48139,1.02626
228.749,28.82385,0.24902,99.43381,1.02599
229.349,28.8809,0.24855,99.42451,1.02571
229.949,28.93791,0.25231,99.4252,1.02544
230.549,28.995,0.25402,99.38269,1.02516
231.149,29.05195,0.25759,99.38378,1.02488
231.749,29.109,0.25976,99.3513,1.0246
232.349,29.166,0.26242,99.34881,1.02432
232.949,29.22297,0.26467,99.29624,1.02404
233.549,29.2801,0.26508,99.28613,1.02376
234.149,29.33713,0.27001,99.25345,1.02348
234.749,29.39416,0.27196,99.22061,1.02319
235.349,29.451,0.27509,99.22067,1.02291
235.949,29.508,0.27992,99.1879,1.02263
236.549,29.56515,0.2821,99.15564,1.02234
237.149,29.62207,0.28368,99.12289,1.02206
237.749,29.67945,0.28848,99.12371,1.02177
238.349,29.7365,0.29369,99.04217,1.02148
238.949,29.79365,0.29609,99.01908,1.0212
239.549,29.85077,0.30128,99.0255,1.02091
240.149,29.9079,0.30372,99.01366,1.02062
240.749,29.9651,0.30756,98.93091,1.02033
241.349,30.02232,0.31047,98.90393,1.02004
241.949,30.07964,0.31732,98.85973,1.01975
242.549,30.1369,0.32031,98.82548,1.01946
243.149,30.194,0.32435,98.8108,1.01917
243.749,30.2511,0.33071,98.77834,1.01887
244.349,30.30824,0.33289,98.74297,1.01858
244.949,30.36533,0.33875,98.6953,1.01828
245.549,30.4225,0.34623,98.60826,1.01799
246.149,30.47976,0.35167,98.5775,1.01769
246.749,30.53674,0.35745,98.5082,1.0174
247.349,30.59368,0.36224,98.46844,1.0171
247.949,30.65085,0.37026,98.4366,1.0168
248.549,30.7081,0.37565,98.36699,1.0165
249.149,30.76567,0.38102,98.30561,1.01621
249.749,30.8232,0.38898,98.22494,1.01591
250.349,30.8807,0.39448,98.14836,1.01561
250.949,30.9379,0.40144,98.11703,1.0153
251.549,30.99522,0.40779,98.04697,1.015
252.149,31.0525,0.41359,98.0047,1.0147
252.749,31.1099,0.42222,97.91258,1.0144
253.349,31.1675,0.43163,97.813,1.01409
253.949,31.22485,0.43879,97.7576,1.01379
254.549,31.28205,0.44741,97.67044,1.01348
255.149,31.33955,0.45654,97.5633,1.01318
255.749,31.39694,0.46458,97.4842,1.01287
256.349,31.4543,0.47346,97.44089,1.01257
256.949,31.5119,0.48077,97.34224,1.01226
257.549,31.5693,0.48979,97.25139,1.01195
258.149,31.62655,0.50098,97.14056,1.01164
258.749,31.68395,0.50925,97.0124,1.01133
259.349,31.7413,0.52164,96.93036,1.01102
259.949,31.799,0.53258,96.84483,1.01071
260.549,31.8564,0.54355,96.7291,1.0104
261.149,31.9139,0.55303,96.60449,1.01008
261.749,31.9712,0.56436,96.48644,1.00977
262.349,32.0286,0.57475,96.37358,1.00946
262.949,32.0861,0.58924,96.2623,1.00914
263.549,32.14329,0.60059,96.12618,1.00883
264.149,32.20091,0.61411,95.99044,1.00851
264.749,32.25835,0.62745,95.82656,1.0082
265.349,32.31577,0.63947,95.71621,1.00788
265.949,32.37361,0.6538,95.56597,1.00756
266.549,32.4311,0.66625,95.4106,1.00724
267.149,32.48887,0.67884,95.2542,1.00692
267.749,32.54657,0.69633,95.07299,1.0066
268.349,32.6043,0.70985,94.92014,1.00628
268.949,32.66189,0.72649,94.73535,1.00596
269.549,32.71947,0.74028,94.57387,1.00564
270.149,32.77687,0.75683,94.3886,1.00532
270.749,32.83452,0.76732,94.2279,1.005
271.349,32.8922,0.78701,94.04047,1.00467
271.949,32.94995,0.80417,93.84276,1.00435
272.549,33.00776,0.81899,93.6516,1.00402
273.149,33.06544,0.83578,93.4426,1.0037
273.749,33.1231,0.85212,93.2416,1.00337
274.349,33.18075,0.86794,92.99848,1.00305
274.949,33.2384,0.88733,92.79782,1.00272
275.549,33.29623,0.90312,92.54912,1.00239
276.149,33.35393,0.91963,92.33658,1.00206
276.749,33.41166,0.93538,92.07438,1.00173
277.349,33.46952,0.95449,91.8464,1.0014
277.949,33.52715,0.97087,91.5702,1.00107
278.549,33.5848,0.98726,91.33396,1.00074
279.149,33.64244,1.00925,91.06479,1.00041
279.749,33.7001,1.02216,90.7765,1.00008
280.349,33.75809,1.03943,90.53153,0.99974
280.949,33.81604,1.05542,90.25594,0.99941
281.549,33.87382,1.07409,89.94089,0.99908
282.149,33.93172,1.08887,89.6164,0.99874
282.749,33.9895,1.106,89.32464,0.99841
283.349,34.04735,1.12307,89.02702,0.99807
283.949,34.10523,1.13794,88.7285,0.99773
284.549,34.16315,1.15615,88.40003,0.99739
285.149,34.2211,1.16978,88.10146,0.99706
285.749,34.27901,1.18718,87.7354,0.99672
286.349,34.3369,1.20163,87.37646,0.99638
286.949,34.39467,1.21314,87.04422,0.99604
287.549,34.4524,1.22645,86.71117,0.9957
288.149,34.51019,1.23762,86.35596,0.99536
288.749,34.56815,1.25124,86.0179,0.99501
289.349,34.62591,1.26254,85.64496,0.99467
289.949,34.68379,1.27229,85.25106,0.99433
290.549,34.74146,1.28059,84.89555,0.99399
291.149,34.79915,1.29117,84.50737,0.99364
291.749,34.85698,1.29734,84.13417,0.9933
292.349,34.9148,1.30466,83.73365,0.99295
292.949,34.97267,1.31121,83.38972,0.9926
293.549,35.0305,1.31451,83.01173,0.99226
294.149,35.08814,1.31353,82.60928,0.99191
294.749,35.14582,1.31171,82.23487,0.99156
295.349,35.2035,1.3073,81.86333,0.99121
295.949,35.26144,1.30044,81.46659,0.99086
296.549,35.3191,1.28795,81.10235,0.99051
297.149,35.3769,1.27207,80.73759,0.99016
297.749,35.4345,1.25068,80.35473,0.98981
298.349,35.49201,1.22623,79.98836,0.98946
298.949,35.5496,1.19494,79.5856,0.98911
299.549,35.6071,1.15286,79.27112,0.98875
300.149,35.66449,1.11273,78.93804,0.9884
300.749,35.7217,1.07201,78.63927,0.98805
301.349,35.7787,1.03376,78.34523,0.98769
301.949,35.83593,0.99678,78.05874,0.98734
302.549,35.893,0.96293,77.75997,0.98698
303.149,35.95024,0.93106,77.49185,0.98662
303.749,36.00742,0.89935,77.2449,0.98627
304.349,36.0646,0.86492,76.96928,0.98591
304.949,36.12175,0.82998,76.70658,0.98555
305.549,36.17892,0.79561,76.45857,0.98519
306.149,36.23605,0.75776,76.23773,0.98483
306.749,36.29315,0.72265,75.9831,0.98447
307.349,36.35022,0.6801,75.77101,0.98411
307.949,36.40739,0.64075,75.5796,0.98375
308.549,36.46484,0.60193,75.38642,0.98339
309.149,36.52213,0.56375,75.2008,0.98303
309.749,36.5794,0.52483,75.0343,0.98266
310.349,36.6366,0.49043,74.8815,0.9823
310.949,36.69343,0.46029,74.7833,0.98193
311.549,36.7507,0.43096,74.63212,0.98157
312.149,36.8076,0.40616,74.46247,0.9812
312.749,36.86468,0.38227,74.35468,0.98084
313.349,36.92203,0.3596,74.24356,0.98047
313.949,36.9792,0.34303,74.12769,0.9801
314.549,37.03663,0.3253,74.0259,0.97974
315.149,37.09388,0.3115,73.93182,0.97937
315.749,37.15113,0.29802,73.83335,0.979
316.349,37.20836,0.28648,73.7423,0.97863
316.949,37.26571,0.2773,73.66691,0.97826
317.549,37.32305,0.26853,73.58967,0.97789
318.149,37.38051,0.25957,73.52766,0.97752
318.749,37.4379,0.25383,73.4224,0.97714
319.349,37.49538,0.24686,73.3474,0.97677
319.949,37.5528,0.24073,73.27875,0.9764
320.549,37.61043,0.23811,73.21563,0.97602
321.149,37.66785,0.23204,73.15386,0.97565
321.749,37.7254,0.22812,73.0693,0.97528
322.349,37.78302,0.22055,72.99661,0.9749
322.949,37.84069,0.21749,72.94085,0.97452
323.549,37.89828,0.21443,72.88915,0.97415
324.149,37.95551,0.20827,72.8142,0.97377
324.749,38.013,0.20601,72.74367,0.97339
325.349,38.0706,0.20389,72.65181,0.97301
325.949,38.1284,0.20395,72.5786,0.97264
326.549,38.18643,0.19986,72.54346,0.97226
327.149,38.24425,0.19733,72.49073,0.97188
327.749,38.30171,0.19794,72.43143,0.9715
328.349,38.35929,0.19636,72.3619,0.97111
328.949,38.41687,0.19334,72.24552,0.97073
329.549,38.47461,0.19088,72.18311,0.97035
330.149,38.53252,0.19019,72.17572,0.96997
330.749,38.59049,0.187,72.09139,0.96958
331.349,38.64829,0.18706,72.01754,0.9692
331.949,38.70628,0.18845,71.9546,0.96882
332.549,38.76437,0.185,71.90047,0.96843
333.149,38.82244,0.18778,71.84599,0.96805
333.749,38.88065,0.18633,71.76079,0.96766
334.349,38.9388,0.18763,71.69707,0.96727
334.949,38.99671,0.18962,71.6503,0.96688
335.549,39.0548,0.19002,71.57486,0.9665
336.149,39.1128,0.19115,71.5386,0.96611
336.749,39.17093,0.1933,71.46667,0.96572
337.349,39.22898,0.19502,71.36748,0.96533
337.949,39.287,0.19535,71.28241,0.96494
338.549,39.3449,0.1995,71.20476,0.96455
339.149,39.4029,0.20313,71.12663,0.96416
339.749,39.46071,0.20614,71.04426,0.96377
340.349,39.51859,0.20705,70.96214,0.96337
340.949,39.57648,0.2141,70.86921,0.96298
341.549,39.63452,0.21778,70.77896,0.96259
342.149,39.69257,0.22018,70.65732,0.96219
342.749,39.75053,0.22524,70.49472,0.9618
343.349,39.80854,0.23317,70.4399,0.9614
343.949,39.86632,0.23772,70.342,0.96101
344.549,39.92427,0.24494,70.23052,0.96061
345.149,39.98215,0.24971,70.1016,0.96022
345.749,40.03989,0.25598,69.96709,0.95982
346.349,40.09779,0.26345,69.8494,0.95942
346.949,40.1558,0.27071,69.6931,0.95902
347.549,40.21397,0.27758,69.54893,0.95862
348.149,40.27212,0.28432,69.3536,0.95823
348.749,40.3301,0.29339,69.187,0.95783
349.349,40.388,0.30054,69.0331,0.95743
349.949,40.44591,0.31044,68.8694,0.95702
350.549,40.5039,0.32063,68.69103,0.95662
351.149,40.5619,0.33321,68.47131,0.95622
351.749,40.61997,0.34121,68.2726,0.95582
352.349,40.67799,0.35243,68.04255,0.95542
352.949,40.73624,0.36659,67.81121,0.95501
353.549,40.79422,0.37675,67.56411,0.95461
354.149,40.85202,0.38954,67.3126,0.9542
354.749,40.90994,0.40014,67.05379,0.9538
355.349,40.96797,0.41513,66.7708,0.95339
355.949,41.02612,0.42763,66.48807,0.95299
356.549,41.08424,0.44284,66.11864,0.95258
357.149,41.14249,0.45755,65.81958,0.95217
357.749,41.20082,0.47227,65.48147,0.95176
358.349,41.259,0.49239,65.0975,0.95136
358.949,41.31728,0.50424,64.71818,0.95095
359.549,41.3755,0.52086,64.30955,0.95054
360.149,41.43385,0.53798,63.87555,0.95013
360.749,41.49221,0.55423,63.41587,0.94972
361.349,41.5506,0.57096,62.9773,0.94931
361.949,41.6092,0.58721,62.50046,0.9489
362.549,41.66762,0.60926,61.99839,0.94848
363.149,41.7261,0.62782,61.4718,0.94807
363.749,41.7846,0.64609,60.9144,0.94766
364.349,41.84299,0.66513,60.31859,0.94724
364.949,41.90148,0.68321,59.6892,0.94683
365.549,41.95939,0.70251,59.06991,0.94642
366.149,42.01791,0.72438,58.3864,0.946
366.749,42.07634,0.74402,57.7164,0.94559
367.349,42.1351,0.76332,57.016,0.94517
367.949,42.19388,0.78444,56.2697,0.94475
368.549,42.25245,0.80228,55.4857,0.94434
369.149,42.3113,0.82141,54.67123,0.94392
369.749,42.36977,0.84169,53.83024,0.9435
370.349,42.42828,0.85988,52.93739,0.94308
370.949,42.48689,0.87615,52.05341,0.94266
371.549,42.54544,0.89257,51.07509,0.94224
372.149,42.60415,0.90971,50.1631,0.94182
372.749,42.66258,0.92615,49.14369,0.9414
373.349,42.7209,0.94069,48.16485,0.94098
373.949,42.7795,0.95339,47.07665,0.94056
374.549,42.838,0.96629,46.07589,0.94014
375.149,42.89666,0.97559,44.92369,0.93972
375.749,42.9552,0.98913,43.8376,0.93929
376.349,43.01363,0.99667,42.66441,0.93887
376.949,43.07197,1.00104,41.53685,0.93845
377.549,43.13038,1.00724,40.3608,0.93802
378.149,43.1889,1.01031,39.16714,0.9376
378.749,43.24739,1.00824,37.96368,0.93717
379.349,43.30588,1.00828,36.71652,0.93675
379.949,43.36423,1.00461,35.4936,0.93632
380.549,43.42256,0.9995,34.21772,0.93589
381.149,43.48103,0.99093,33.0279,0.93546
381.749,43.53954,0.98139,31.74721,0.93504
382.349,43.59813,0.97004,30.5175,0.93461
382.949,43.65659,0.95489,29.2711,0.93418
383.549,43.71476,0.93973,28.08183,0.93375
384.149,43.7731,0.92193,26.8297,0.93332
384.749,43.83148,0.9024,25.6787,0.93289
385.349,43.88991,0.8782,24.49802,0.93246
385.949,43.9483,0.85465,23.33351,0.93203
386.549,44.0064,0.82834,22.22939,0.9316
387.149,44.06452,0.79851,21.0992,0.93116
387.749,44.12234,0.76798,20.0612,0.93073
388.349,44.18035,0.73594,18.9969,0.9303
388.949,44.2385,0.70217,18.01595,0.92987
389.549,44.29658,0.67262,17.02385,0.92943
390.149,44.3549,0.63824,16.11563,0.929
390.749,44.41291,0.60467,15.2101,0.92856
391.349,44.47094,0.57459,14.3826,0.92813
391.949,44.52898,0.54046,13.609,0.92769
392.549,44.58718,0.50411,12.8011,0.92725
393.149,44.64524,0.47209,12.11858,0.92682
393.749,44.70319,0.4419,11.43661,0.92638
394.349,44.76115,0.41168,10.7941,0.92594
394.949,44.81903,0.38093,10.15944,0.9255
395.549,44.87703,0.35415,9.60625,0.92506
396.149,44.9352,0.32863,9.04503,0.92463
396.749,44.99335,0.30262,8.56962,0.92419
397.349,45.05141,0.28072,8.09426,0.92375
397.949,45.10947,0.25967,7.65512,0.9233
398.549,45.1676,0.24016,7.2674,0.92286
399.149,45.22575,0.21813,6.83876,0.92242
399.749,45.28399,0.20079,6.4819,0.92198
400.349,45.3423,0.18188,6.16506,0.92154
400.949,45.4005,0.1663,5.87394,0.9211
401.549,45.4589,0.15128,5.59196,0.92065
402.149,45.51732,0.13984,5.32628,0.92021
402.749,45.5756,0.12608,5.07102,0.91976
403.349,45.63386,0.11571,4.87318,0.91932
403.949,45.692,0.10612,4.65428,0.91887
404.549,45.75026,0.09702942,4.51287,0.91843
405.149,45.8086,0.08556892,4.27719,0.91798
405.749,45.86677,0.07781703,4.10341,0.91754
406.349,45.92519,0.07070768,3.94928,0.91709
406.949,45.98363,0.0631174,3.82922,0.91664
407.549,46.04218,0.05653626,3.72928,0.91619
408.149,46.10065,0.04844154,3.5981,0.91575
408.749,46.15907,0.04169583,3.4842,0.9153
409.349,46.2174,0.03527734,3.34694,0.91485
409.949,46.27583,0.03292671,3.2418,0.9144
410.549,46.33419,0.02552143,3.15922,0.91395
411.149,46.39271,0.02230599,3.09886,0.9135
411.749,46.4513,0.01774987,3.03111,0.91305
412.349,46.5099,0.01281527,2.98213,0.9126
412.949,46.56821,0.01122575,2.9507,0.91214
413.549,46.6267,0.008771858,2.87958,0.91169
414.149,46.6851,0.006630409,2.84827,0.91124
414.749,46.7436,0.002154486,2.77737,0.91079
415.349,46.80222,0.00121108,2.73519,0.91033
415.949,46.8608,7.587055e-05,2.66455,0.90988
416.549,46.9194,-0.004036135,2.63191,0.90942
417.149,46.97811,-0.00333857,2.60135,0.90897
417.749,47.03638,-0.005484554,2.56813,0.90852
418.349,47.09469,-0.00835256,2.56663,0.90806
418.949,47.15327,-0.00790775,2.53184,0.9076
419.549,47.2119,-0.008363381,2.53226,0.90715
420.149,47.2709,-0.0108883,2.49127,0.90669
420.749,47.32932,-0.01113467,2.46881,0.90623
421.349,47.388,-0.01106784,2.44923,0.90578
421.949,47.4467,-0.01180448,2.40284,0.90532
422.549,47.50586,-0.01406909,2.37019,0.90486
423.149,47.5645,-0.0119139,2.33846,0.9044
423.749,47.62316,-0.0123886,2.33862,0.90394
424.349,47.6815,-0.01221677,2.3384,0.90348
424.949,47.7401,-0.01359207,2.29754,0.90302
425.549,47.7988,-0.0118416,2.27339,0.90256
426.149,47.85753,-0.01256354,2.2654,0.9021
426.749,47.91605,-0.009175144,2.24914,0.90164
427.349,47.97449,-0.009486201,2.24901,0.90117
427.949,48.03294,-0.00568819,2.2401,0.90071
428.549,48.09174,-0.002353635,2.20824,0.90025
429.149,48.15023,-0.000192909,2.21652,0.89979
429.749,48.20885,0.00323161,2.21658,0.89932
430.349,48.26745,0.004919903,2.20354,0.89886
430.949,48.3262,0.008564917,2.16793,0.8984
431.549,48.38511,0.007832191,2.13519,0.89793
432.149,48.44358,0.009064074,2.13515,0.89747
432.749,48.50226,0.008617221,2.13515,0.897
433.349,48.56084,0.00871648,2.13513,0.89653
433.949,48.61947,0.01350834,2.1512,0.89607
434.549,48.67821,0.01562917,2.15124,0.8956
435.149,48.73689,0.01481127,2.15119,0.89513
435.749,48.79571,0.01703565,2.11867,0.89467
436.349,48.85451,0.01567913,2.11851,0.8942
436.949,48.91336,0.01327896,2.08605,0.89373
437.549,48.97205,0.01217525,2.08614,0.89326
438.149,49.0306,0.01230648,2.08614,0.89279
438.749,49.0895,0.01099803,2.08611,0.89232
439.349,49.14824,0.007286904,2.0701,0.89185
439.949,49.20725,0.00737874,2.0698,0.89138
440.549,49.26566,0.00476064,2.0698,0.89091
441.149,49.3244,0.00357834,2.06354,0.89044
441.749,49.3832,-0.0002985428,2.04529,0.88997
442.349,49.44223,-0.005353234,2.0453,0.8895
442.949,49.5015,-0.004183823,2.0453,0.88903
443.549,49.56093,-0.007692465,2.0453,0.88855
444.149,49.62025,-0.01109354,2.0453,0.88808
444.749,49.67938,-0.01270666,2.0453,0.88761
445.349,49.7385,-0.01627395,2.04502,0.88713
445.949,49.79748,-0.01295437,2.03616,0.88666
446.549,49.8566,-0.01717491,2.03738,0.88618
447.149,49.9156,-0.01749686,2.03738,0.88571
447.749,49.97457,-0.01871196,2.03738,0.88523
448.349,50.0336,-0.02080228,2.03738,0.88476
448.949,50.09259,-0.02046571,2.0284,0.88428
449.549,50.15167,-0.02293758,2.02921,0.88381
450.149,50.21075,-0.02449453,2.02921,0.88333
450.749,50.2697,-0.02608485,2.02921,0.88285
451.349,50.32861,-0.02676551,2.02921,0.88237
451.949,50.38725,-0.02938967,2.02551,0.8819
452.549,50.44643,-0.03030961,1.99656,0.88142
453.149,50.5058,-0.02828473,2.01248,0.88094
453.749,50.56495,-0.03101419,2.01287,0.88046
454.349,50.62423,-0.03190113,2.01287,0.87998
454.949,50.68327,-0.02796575,2.01284,0.8795
455.549,50.7423,-0.0304524,1.98005,0.87902
456.149,50.80149,-0.03147822,1.9789,0.87854
456.749,50.86067,-0.03304177,1.92335,0.87806
457.349,50.91982,-0.03351929,1.95595,0.87758
457.949,50.97899,-0.03460854,1.94776,0.8771
458.549,51.03824,-0.03308987,1.94777,0.87661
459.149,51.09733,-0.03585468,1.94777,0.87613
459.749,51.15643,-0.0348396,1.94777,0.87565
460.349,51.21565,-0.03638865,1.94777,0.87517
460.949,51.275,-0.03641324,1.94777,0.87468
461.549,51.3344,-0.03756622,1.94777,0.8742
462.149,51.39354,-0.036761,1.94778,0.87372
462.749,51.45262,-0.03689183,1.91896,0.87323
463.349,51.51153,-0.03546979,1.9151,0.87275
463.949,51.57054,-0.0384143,1.91509,0.87226
464.549,51.6294,-0.03736721,1.94791,0.87178
465.149,51.68845,-0.03716447,1.94777,0.87129
465.749,51.7474,-0.03768993,1.94778,0.8708
466.349,51.8063,-0.03974444,1.92299,0.87032
466.949,51.86528,-0.04044704,1.9151,0.86983
467.549,51.9246,-0.03959231,1.9151,0.86934
468.149,51.98365,-0.04030524,1.9151,0.86886
468.749,52.04268,-0.03952181,1.9151,0.86837
469.349,52.10168,-0.04137679,1.9151,0.86788
469.949,52.16075,-0.04295509,1.9151,0.86739
470.549,52.21985,-0.04179417,1.9151,0.8669
471.149,52.27881,-0.04333618,1.9151,0.86641
471.749,52.33788,-0.04116037,1.89589,0.86592
472.349,52.39698,-0.04298402,1.88268,0.86543
472.949,52.4563,-0.04531271,1.88268,0.86494
473.549,52.5156,-0.04304644,1.91739,0.86445
474.149,52.57484,-0.04515784,1.91534,0.86396
474.749,52.6342,-0.04387726,1.88029,0.86347
475.349,52.69322,-0.04732194,1.88268,0.86298
475.949,52.7522,-0.0457719,1.88322,0.86249
476.549,52.8113,-0.04829442,1.8501,0.86199
477.149,52.87055,-0.0475352,1.8827,0.8615
477.749,52.92991,-0.05042406,1.88267,0.86101
478.349,52.9893,-0.04806783,1.89901,0.86052
478.949,53.0486,-0.04975052,1.8828,0.86002
479.549,53.10793,-0.0471025,1.88239,0.85953
480.149,53.16725,-0.05116435,1.84995,0.85903
480.749,53.2265,-0.0512812,1.85,0.85854
481.349,53.28556,-0.04923561,1.85,0.85804
481.949,53.3447,-0.05381933,1.85,0.85755
482.549,53.40365,-0.05064498,1.85,0.85705
483.149,53.46304,-0.05152524,1.84998,0.85656
483.749,53.52228,-0.05274941,1.81647,0.85606
484.349,53.58191,-0.0553081,1.84553,0.85556
484.949,53.64124,-0.05169022,1.85816,0.85507
485.549,53.7006,-0.05639061,1.85817,0.85457
486.149,53.76002,-0.05638708,1.85812,0.85407
486.749,53.8193,-0.05619865,1.8094,0.85358
487.349,53.8784,-0.05837596,1.8094,0.85308
487.949,53.93764,-0.06217883,1.8094,0.85258
488.549,53.99677,-0.06029868,1.8094,0.85208
489.149,54.05602,-0.06100771,1.8094,0.85158
489.749,54.11557,-0.06058917,1.8094,0.85108
490.349,54.17499,-0.06182874,1.8094,0.85058
490.949,54.2346,-0.0622521,1.80952,0.85008
491.549,54.2938,-0.06371934,1.79294,0.84958
492.149,54.3528,-0.0633393,1.79307,0.84908
492.749,54.4121,-0.06540232,1.78266,0.84858
493.349,54.47146,-0.06694166,1.79315,0.84808
493.949,54.53085,-0.06708212,1.79307,0.84758
494.549,54.59004,-0.06977267,1.79307,0.84708
495.149,54.64929,-0.06560957,1.79307,0.84657
495.749,54.7086,-0.06835975,1.79314,0.84607
496.349,54.76789,-0.06927019,1.76861,0.84557
496.949,54.82714,-0.07077329,1.76856,0.84507
497.549,54.8863,-0.07104044,1.76342,0.84456
498.149,54.9455,-0.07389599,1.76065,0.84406
498.749,55.0047,-0.07377636,1.76065,0.84355
499.349,55.06378,-0.07435479,1.76016,0.84305
499.949,55.1228,-0.07543239,1.72796,0.84255
500.549,55.1822,-0.07744222,1.72797,0.84204
501.149,55.24134,-0.08069028,1.72797,0.84154
501.749,55.30066,-0.08253189,1.72782,0.84103
502.349,55.3597,-0.08522196,1.76064,0.84053
502.949,55.4189,-0.08559211,1.72793,0.84002
503.549,55.478,-0.08741225,1.72797,0.83951
504.149,55.53714,-0.08954533,1.72797,0.83901
504.749,55.5962,-0.09153281,1.72797,0.8385
505.349,55.65535,-0.09234298,1.72797,0.83799
505.949,55.7147,-0.09487545,1.72797,0.83749
506.549,55.77406,-0.09814708,1.728,0.83698
507.149,55.8334,-0.10098,1.7436,0.83647
507.749,55.89284,-0.10106,1.72195,0.83596
508.349,55.9523,-0.10078,1.71139,0.83545
508.949,56.01174,-0.1042,1.72021,0.83494
509.549,56.07102,-0.10221,1.71955,0.83444
510.149,56.13038,-0.10623,1.71955,0.83393
510.749,56.1898,-0.104,1.71955,0.83342
511.349,56.24935,-0.10807,1.71955,0.83291
511.949,56.309,-0.10827,1.71955,0.8324
512.549,56.36857,-0.1101,1.71955,0.83189
513.149,56.42807,-0.10696,1.71955,0.83138
513.749,56.4877,-0.11146,1.71955,0.83086
514.349,56.54714,-0.11228,1.71955,0.83035
514.949,56.60663,-0.10947,1.71955,0.82984
515.549,56.66626,-0.10895,1.71955,0.82933
516.149,56.72585,-0.11122,1.71955,0.82882
516.749,56.7855,-0.11117,1.71955,0.82831
517.349,56.8452,-0.11145,1.69775,0.82779
517.949,56.9048,-0.1142,1.68944,0.82728
518.549,56.9643,-0.11302,1.70448,0.82677
519.149,57.0239,-0.11431,1.66253,0.82625
519.749,57.0835,-0.11276,1.66262,0.82574
520.349,57.1431,-0.11613,1.6513,0.82523
520.949,57.20259,-0.11636,1.64629,0.82471
521.549,57.26211,-0.11862,1.64622,0.8242
522.149,57.3218,-0.11865,1.67892,0.82368
522.749,57.38156,-0.11565,1.70628,0.82317
523.349,57.44132,-0.11832,1.71146,0.82265
523.949,57.5008,-0.11695,1.64622,0.82214
524.549,57.56049,-0.12164,1.69636,0.82162
525.149,57.6202,-0.12166,1.71161,0.82111
525.749,57.6798,-0.11809,1.67896,0.82059
526.349,57.73989,-0.12161,1.67896,0.82007
526.949,57.79965,-0.12602,1.67896,0.81956
527.549,57.85937,-0.12164,1.67896,0.81904
528.149,57.91891,-0.1221,1.67896,0.81852
528.749,57.9786,-0.12501,1.67056,0.818
529.349,58.03815,-0.12285,1.67079,0.81749
529.949,58.0979,-0.12586,1.67079,0.81697
530.549,58.15759,-0.12465,1.67079,0.81645
531.149,58.21742,-0.12369,1.67079,0.81593
531.749,58.27721,-0.12554,1.67078,0.81541
532.349,58.33706,-0.12329,1.68817,0.8149
532.949,58.39686,-0.12565,1.68713,0.81438
533.549,58.4564,-0.12385,1.68713,0.81386
534.149,58.51616,-0.12477,1.68713,0.81334
534.749,58.57591,-0.12278,1.67223,0.81282
535.349,58.63585,-0.12417,1.66438,0.8123
535.949,58.69591,-0.12409,1.64627,0.81178
536.549,58.7558,-0.12669,1.67783,0.81126
537.149,58.8156,-0.12659,1.67896,0.81074
537.749,58.87556,-0.12874,1.67896,0.81021
538.349,58.9354,-0.1284,1.67896,0.80969
538.949,58.99516,-0.13029,1.67472,0.80917
539.549,59.05491,-0.12706,1.67323,0.80865
540.149,59.1149,-0.12718,1.64627,0.80813
540.749,59.17475,-0.12604,1.63875,0.80761
541.349,59.2346,-0.13086,1.64482,0.80708
541.949,59.29439,-0.12877,1.64653,0.80656
542.549,59.35415,-0.13055,1.64581,0.80604
543.149,59.41409,-0.12765,1.65446,0.80551
543.749,59.4739,-0.1293,1.65445,0.80499
544.349,59.53375,-0.12894,1.65362,0.80447
544.949,59.59349,-0.13096,1.6517,0.80394
545.549,59.6532,-0.13074,1.65442,0.80342
546.149,59.7131,-0.12991,1.62132,0.8029
546.749,59.77295,-0.13042,1.6302,0.80237
547.349,59.83268,-0.12961,1.62876,0.80185
547.949,59.89265,-0.12883,1.65472,0.80132
548.549,59.95222,-0.12927,1.6547,0.8008
549.149,60.012,-0.12991,1.6547,0.80027
549.749,60.07164,-0.12751,1.65476,0.79975
550.349,60.13151,-0.129,1.62206,0.79922
550.949,60.1913,-0.13006,1.62193,0.79869
551.549,60.25131,-0.1291,1.64652,0.79817
552.149,60.31103,-0.12921,1.64653,0.79764
552.749,60.37076,-0.13198,1.61292,0.79712
553.349,60.4304,-0.13105,1.61386,0.79659
553.949,60.49,-0.13095,1.61386,0.79606
554.549,60.54981,-0.13363,1.62178,0.79553
555.149,60.6098,-0.12946,1.62178,0.79501
555.749,60.6695,-0.12673,1.62178,0.79448
556.349,60.72956,-0.12975,1.62179,0.79395
556.949,60.78943,-0.13092,1.58942,0.79342
557.549,60.8495,-0.13086,1.58936,0.7929
558.149,60.9097,-0.13253,1.58912,0.79237
558.749,60.9696,-0.13351,1.62207,0.79184
559.349,61.0295,-0.13122,1.58936,0.79131
559.949,61.0893,-0.13157,1.60417,0.79078
560.549,61.14914,-0.13165,1.62203,0.79025
561.149,61.20906,-0.13106,1.62203,0.78972
561.749,61.2691,-0.12835,1.62203,0.78919
562.349,61.3292,-0.12745,1.62134,0.78866
562.949,61.3893,-0.13023,1.63812,0.78813
563.549,61.44927,-0.13074,1.63799,0.7876
564.149,61.50909,-0.12927,1.60538,0.78707
564.749,61.5689,-0.13066,1.57297,0.78654
565.349,61.62882,-0.13061,1.60562,0.78601
565.949,61.6887,-0.12802,1.60569,0.78548
566.549,61.7486,-0.12516,1.60566,0.78495
567.149,61.80843,-0.1285,1.57297,0.78442
567.749,61.8683,-0.12574,1.57302,0.78389
568.349,61.9281,-0.127,1.57302,0.78336
568.949,61.98775,-0.12908,1.57302,0.78282
569.549,62.04756,-0.12497,1.57302,0.78229
570.149,62.10735,-0.12643,1.57302,0.78176
570.749,62.1673,-0.12309,1.57302,0.78123
571.349,62.2271,-0.12204,1.57302,0.78069
571.949,62.28679,-0.12453,1.57302,0.78016
572.549,62.34658,-0.12369,1.57302,0.77963
573.149,62.4065,-0.1238,1.57302,0.7791
573.749,62.46637,-0.12367,1.57302,0.77856
574.349,62.52638,-0.12216,1.57302,0.77803
574.949,62.5861,-0.1209,1.57302,0.77749
575.549,62.646,-0.1217,1.57311,0.77696
576.149,62.7057,-0.12048,1.54088,0.77643
576.749,62.76551,-0.1206,1.54059,0.77589
577.349,62.82538,-0.12176,1.54059,0.77536
577.949,62.8854,-0.12185,1.54059,0.77482
578.549,62.94526,-0.12065,1.54059,0.77429
579.149,63.00535,-0.11733,1.54059,0.77375
579.749,63.0653,-0.12016,1.54059,0.77322
580.349,63.1253,-0.11658,1.54395,0.77268
580.949,63.1854,-0.11804,1.5565,0.77215
581.549,63.24534,-0.11904,1.58136,0.77161
582.149,63.30546,-0.11961,1.58119,0.77108
582.749,63.36541,-0.11602,1.57235,0.77054
583.349,63.42539,-0.11479,1.5651,0.77001
583.949,63.4854,-0.11761,1.5651,0.76947
584.549,63.5454,-0.11525,1.56464,0.76893
585.149,63.6055,-0.11826,1.54878,0.7684
585.749,63.6657,-0.11642,1.55768,0.76786
586.349,63.7258,-0.11639,1.55693,0.76732
586.949,63.786,-0.1155,1.55733,0.76679
587.549,63.84619,-0.11543,1.53245,0.76625
588.149,63.9065,-0.11382,1.53242,0.76571
588.749,63.96651,-0.11379,1.53242,0.76518
589.349,64.02671,-0.11111,1.53242,0.76464
589.949,64.08694,-0.1089,1.53242,0.7641
590.549,64.1473,-0.11,1.53242,0.76356
591.149,64.20759,-0.1078,1.53242,0.76302
591.749,64.268,-0.1106,1.53242,0.76249
592.349,64.32861,-0.10867,1.53243,0.76195
592.949,64.38917,-0.10796,1.54011,0.76141
593.549,64.44973,-0.1079,1.55696,0.76087
594.149,64.5099,-0.1073,1.55693,0.76033
594.749,64.56968,-0.10726,1.55693,0.75979
595.349,64.62975,-0.10567,1.55696,0.75925
595.949,64.68997,-0.10305,1.48099,0.75872
596.549,64.75052,-0.10172,1.275,0.75818
597.149,64.8113,-0.09837783,1.19311,0.75764
597.749,64.87159,-0.10074,1.27989,0.7571
598.349,64.93169,-0.09952017,1.37524,0.75656
598.949,64.99178,-0.09958192,1.41283,0.75602
599.549,65.0517,-0.0994948,1.44529,0.75548
600.149,65.11161,-0.1015,1.44577,0.75494
600.749,65.17143,-0.10285,1.47826,0.7544
601.349,65.23121,-0.09925556,1.56446,0.75386
601.949,65.2911,-0.10122,1.63042,0.75332
602.549,65.35086,-0.10172,1.6301,0.75278
603.149,65.41072,-0.09991486,1.59754,0.75223
603.749,65.47062,-0.10061,1.56511,0.75169
604.349,65.5303,-0.09878031,1.53239,0.75115
604.949,65.5903,-0.09881261,1.53242,0.75061
605.549,65.65016,-0.09619446,1.51577,0.75007
606.149,65.71016,-0.09853256,1.5,0.74953
606.749,65.77006,-0.09530857,1.49998,0.74899
607.349,65.83004,-0.0920754,1.48372,0.74845
607.949,65.8901,-0.10049,1.51609,0.7479
608.549,65.9499,-0.09703821,1.49978,0.74736
609.149,66.00953,-0.09407094,1.49974,0.74682
609.749,66.06935,-0.09635143,1.46706,0.74628
610.349,66.1293,-0.09046526,1.43474,0.74573
610.949,66.1896,-0.09679789,1.40228,0.74519
611.549,66.2495,-0.09368914,1.40198,0.74465
612.149,66.30923,-0.0921687,1.40868,0.74411
612.749,66.36917,-0.09258499,1.42649,0.74356
613.349,66.4291,-0.09537596,1.39393,0.74302
613.949,66.48907,-0.09668207,1.47039,0.74248
614.549,66.54907,-0.09345268,1.5401,0.74194
615.149,66.60903,-0.09199472,1.57459,0.74139
615.749,66.66886,-0.09493162,1.60843,0.74085
616.349,66.72876,-0.09471219,1.64255,0.74031
616.949,66.78867,-0.09585815,1.73035,0.73976
617.549,66.84862,-0.09414072,1.76392,0.73922
618.149,66.90861,-0.09448566,1.73151,0.73867
618.749,66.96858,-0.09113707,1.66194,0.73813
619.349,67.02863,-0.08933539,1.59507,0.73759
619.949,67.0887,-0.08944921,1.54029,0.73704
620.549,67.14878,-0.09176743,1.54054,0.7365
621.149,67.20876,-0.09018143,1.57459,0.73595
621.749,67.2689,-0.09151348,1.54059,0.73541
622.349,67.329,-0.08641779,1.54122,0.73486
622.949,67.38914,-0.08670003,1.50793,0.73432
623.549,67.44915,-0.0874405,1.50791,0.73378
624.149,67.50928,-0.0898565,1.47533,0.73323
624.749,67.56942,-0.09007535,1.47549,0.73269
625.349,67.62958,-0.08836638,1.47549,0.73214
625.949,67.68975,-0.08723784,1.47548,0.7316
626.549,67.7498,-0.08701746,1.48341,0.73105
627.149,67.81009,-0.08712368,1.48341,0.73051
627.749,67.8704,-0.08780075,1.48341,0.72996
628.349,67.9306,-0.08867827,1.45166,0.72941
628.949,67.99101,-0.08896971,1.47524,0.72887
629.549,68.05127,-0.08762701,1.47523,0.72832
630.149,68.1118,-0.08715131,1.45128,0.72778
630.749,68.17232,-0.08850082,1.45085,0.72723
631.349,68.233,-0.08981527,1.45889,0.72669
631.949,68.29371,-0.0885414,1.45891,0.72614
632.549,68.35426,-0.09004494,1.45691,0.72559
633.149,68.4149,-0.08819241,1.49158,0.72505
633.749,68.47539,-0.08692916,1.49159,0.7245
634.349,68.5359,-0.09124695,1.49159,0.72395
634.949,68.59646,-0.08936825,1.49159,0.72341
635.549,68.65692,-0.09144677,1.49159,0.72286
636.149,68.71729,-0.08723156,1.49171,0.72231
636.749,68.7778,-0.08646662,1.44623,0.72177
637.349,68.8382,-0.08544252,1.42624,0.72122
637.949,68.89875,-0.08805561,1.42624,0.72067
638.549,68.95921,-0.086361,1.42624,0.72013
639.149,69.01975,-0.08533853,1.44248,0.71958
639.749,69.08018,-0.08324244,1.44258,0.71903
640.349,69.14061,-0.08576597,1.44257,0.71849
640.949,69.20091,-0.08534528,1.44257,0.71794
641.549,69.26111,-0.08819877,1.40936,0.71739
642.149,69.32162,-0.08812008,1.42649,0.71684
642.749,69.38195,-0.08913024,1.42682,0.7163
643.349,69.44248,-0.08751954,1.41831,0.71575
643.949,69.50282,-0.08943261,1.41831,0.7152
644.549,69.5632,-0.08706251,1.41831,0.71465
645.149,69.62344,-0.08798889,1.41831,0.71411
645.749,69.68372,-0.08699831,1.41829,0.71356
646.349,69.74401,-0.08908629,1.44242,0.71301
646.949,69.80425,-0.08702902,1.44282,0.71246
647.549,69.86447,-0.08810262,1.44338,0.71191
648.149,69.92484,-0.08549181,1.44965,0.71137
648.749,69.9854,-0.08744394,1.44282,0.71082
648.849,69.99563,-0.08607338,1.44282,0.71073