File: 01_Data/Overstuffed_Chair_Polyurethane_Foam/STA/N2/10K_min/Overstuffed_Chair_Polyurethane_Foam_STA_N2_10KData_220203_R3.csv
##Temp./Â°C,Time/min,DSC(subtr.2)/(mW/mg),Mass(subtr.2)/%,Sensit./(uV/mW)
49.367,10.01,0.00815125,99.30332,1.07447
49.867,10.6922,0.02787777,99.2307,1.07443
50.367,10.86749,0.05100647,99.25135,1.0744
50.867,10.9959,0.06946897,99.2494,1.07436
51.367,11.1038,0.08763091,99.2343,1.07432
51.867,11.19965,0.10376,99.22516,1.07429
52.367,11.28685,0.11718,99.2076,1.07425
52.867,11.36777,0.13034,99.21219,1.07421
53.367,11.44403,0.14129,99.22573,1.07417
53.867,11.517,0.15064,99.20573,1.07413
54.367,11.58721,0.15996,99.19957,1.07409
54.867,11.6549,0.16675,99.1926,1.07405
55.367,11.72045,0.1727,99.20251,1.07401
55.867,11.78415,0.18131,99.2141,1.07397
56.367,11.84667,0.18491,99.2081,1.07393
56.867,11.90824,0.19261,99.20254,1.07389
57.367,11.96868,0.19581,99.1828,1.07384
57.867,12.02899,0.20153,99.20264,1.0738
58.367,12.0881,0.20268,99.1665,1.07376
58.867,12.14653,0.20885,99.1658,1.07371
59.367,12.20455,0.21152,99.16591,1.07367
59.867,12.26173,0.21497,99.1663,1.07362
60.367,12.3182,0.21503,99.18339,1.07357
60.867,12.37469,0.21894,99.16636,1.07352
61.367,12.43093,0.22037,99.17272,1.07348
61.867,12.4873,0.22292,99.18029,1.07343
62.367,12.54306,0.22633,99.16632,1.07338
62.867,12.59876,0.22456,99.1668,1.07333
63.367,12.6541,0.22814,99.17231,1.07328
63.867,12.70911,0.23034,99.16598,1.07323
64.367,12.76409,0.22823,99.1669,1.07318
64.867,12.819,0.2299,99.17433,1.07313
65.367,12.8737,0.23245,99.16787,1.07307
65.867,12.92817,0.23329,99.15348,1.07302
66.367,12.9823,0.23427,99.14464,1.07297
66.867,13.03664,0.23736,99.16717,1.07291
67.367,13.0908,0.23501,99.13258,1.07286
67.867,13.14519,0.23615,99.1326,1.0728
68.367,13.19936,0.23809,99.15601,1.07274
68.867,13.253,0.23918,99.1326,1.07269
69.367,13.30675,0.24053,99.1142,1.07263
69.867,13.36021,0.2417,99.13261,1.07257
70.367,13.41358,0.24374,99.1327,1.07251
70.867,13.46698,0.24254,99.13144,1.07246
71.367,13.51994,0.24392,99.13265,1.0724
71.867,13.573,0.24436,99.1211,1.07234
72.367,13.6258,0.24775,99.11579,1.07228
72.867,13.6784,0.24577,99.08428,1.07221
73.367,13.731,0.24782,99.09931,1.07215
73.867,13.7836,0.24964,99.09196,1.07209
74.367,13.8362,0.24819,99.09652,1.07203
74.867,13.8885,0.24916,99.13266,1.07196
75.367,13.94089,0.2507,99.10563,1.0719
75.867,13.99281,0.25233,99.09904,1.07183
76.367,14.0448,0.25176,99.0993,1.07177
76.867,14.09666,0.25286,99.13189,1.0717
77.367,14.14848,0.25453,99.11533,1.07164
77.867,14.2003,0.25305,99.13216,1.07157
78.367,14.25252,0.25494,99.09956,1.0715
78.867,14.3045,0.25429,99.13257,1.07143
79.367,14.3564,0.2545,99.09984,1.07136
79.867,14.4083,0.25425,99.0857,1.07129
80.367,14.4596,0.2576,99.09894,1.07122
80.867,14.511,0.25739,99.099,1.07115
81.367,14.56238,0.25651,99.0996,1.07108
81.867,14.6136,0.25654,99.0655,1.07101
82.367,14.66492,0.25509,99.0656,1.07094
82.867,14.71589,0.25889,99.06322,1.07087
83.367,14.76697,0.25786,99.06546,1.07079
83.867,14.818,0.26191,99.06527,1.07072
84.367,14.869,0.26051,99.03195,1.07064
84.867,14.91995,0.2627,99.03182,1.07057
85.367,14.9708,0.2613,99.0638,1.07049
85.867,15.0217,0.26257,99.03515,1.07042
86.367,15.0722,0.26284,99.06554,1.07034
86.867,15.12274,0.26341,99.0486,1.07026
87.367,15.17314,0.26526,99.06529,1.07018
87.867,15.2234,0.2649,99.04816,1.0701
88.367,15.2738,0.26496,99.03179,1.07003
88.867,15.32434,0.26648,99.03751,1.06995
89.367,15.37475,0.26703,99.03165,1.06987
89.867,15.4249,0.26842,99.02529,1.06978
90.367,15.4753,0.26631,98.997,1.0697
90.867,15.52527,0.26592,99.03197,1.06962
91.367,15.57526,0.2674,99.03188,1.06954
91.867,15.625,0.2684,99.01018,1.06945
92.367,15.6747,0.26796,98.9983,1.06937
92.867,15.72436,0.26829,99.03209,1.06929
93.367,15.77421,0.26909,99.03188,1.0692
93.867,15.8243,0.26667,99.03401,1.06912
94.367,15.8746,0.26858,99.03125,1.06903
94.867,15.92441,0.2696,99.0219,1.06894
95.367,15.97401,0.27136,98.99808,1.06886
95.867,16.02346,0.27145,99.0321,1.06877
96.367,16.0728,0.27136,99.03189,1.06868
96.867,16.12228,0.26892,99.03197,1.06859
97.367,16.17166,0.27038,98.9983,1.0685
97.867,16.22114,0.27187,98.99861,1.06841
98.367,16.27056,0.27484,99.03189,1.06832
98.867,16.32016,0.2731,98.99818,1.06823
99.367,16.3696,0.27096,99.01504,1.06814
99.867,16.41919,0.2728,99.01505,1.06804
100.367,16.46859,0.27381,99.00926,1.06795
100.867,16.51771,0.27427,98.98165,1.06786
101.367,16.56701,0.27653,98.9816,1.06776
101.867,16.61618,0.27407,98.97899,1.06767
102.367,16.66552,0.27411,98.94736,1.06757
102.867,16.71477,0.27516,98.9656,1.06748
103.367,16.76406,0.27405,98.96432,1.06738
103.867,16.813,0.27582,98.9644,1.06728
104.367,16.86225,0.27551,98.99837,1.06719
104.867,16.91141,0.278,98.9982,1.06709
105.367,16.96047,0.27524,98.96418,1.06699
105.867,17.0095,0.27954,98.9648,1.06689
106.367,17.05842,0.27667,98.9636,1.06679
106.867,17.1073,0.27698,98.96504,1.06669
107.367,17.15606,0.27727,98.9648,1.06659
107.867,17.20497,0.2791,98.96475,1.06649
108.367,17.254,0.27959,98.93179,1.06639
108.867,17.30292,0.27926,98.93088,1.06628
109.367,17.35199,0.2789,98.96536,1.06618
109.867,17.40105,0.27921,98.96454,1.06608
110.367,17.45,0.28264,98.96454,1.06597
110.867,17.49922,0.28171,98.9648,1.06587
111.367,17.54818,0.28142,98.965,1.06576
111.867,17.59724,0.28063,98.9648,1.06566
112.367,17.6461,0.28062,98.9648,1.06555
112.867,17.6949,0.28102,98.96314,1.06544
113.367,17.74369,0.28216,98.98173,1.06533
113.867,17.79274,0.28133,98.95185,1.06523
114.367,17.8417,0.28204,98.9648,1.06512
114.867,17.8905,0.28234,98.9648,1.06501
115.367,17.9394,0.28179,98.9575,1.0649
115.867,17.98828,0.28137,98.9649,1.06479
116.367,18.03705,0.28164,98.9646,1.06468
116.867,18.08597,0.28184,98.95559,1.06456
117.367,18.13489,0.28231,98.93253,1.06445
117.867,18.18365,0.28369,98.96475,1.06434
118.367,18.2326,0.2834,98.96455,1.06423
118.867,18.28133,0.28279,98.94805,1.06411
119.367,18.3303,0.28462,98.9311,1.064
119.867,18.3792,0.28412,98.9311,1.06388
120.367,18.42822,0.28466,98.9312,1.06377
120.867,18.47727,0.28503,98.96424,1.06365
121.367,18.52617,0.28526,98.931,1.06353
121.867,18.57486,0.28343,98.9311,1.06342
122.367,18.62356,0.28398,98.931,1.0633
122.867,18.6723,0.28283,98.96495,1.06318
123.367,18.721,0.28569,98.9648,1.06306
123.867,18.77003,0.28235,98.9648,1.06294
124.367,18.81889,0.28153,98.93082,1.06282
124.867,18.86731,0.2837,98.898,1.0627
125.367,18.91599,0.28455,98.93006,1.06258
125.867,18.96469,0.28423,98.9311,1.06246
126.367,19.01352,0.28219,98.9004,1.06234
126.867,19.06263,0.28357,98.89754,1.06221
127.367,19.11119,0.28576,98.91417,1.06209
127.867,19.15987,0.2835,98.92274,1.06197
128.367,19.20836,0.28452,98.89793,1.06184
128.867,19.25696,0.28703,98.89747,1.06172
129.367,19.3057,0.28743,98.88834,1.06159
129.867,19.35422,0.28673,98.89769,1.06146
130.367,19.4027,0.28683,98.89826,1.06134
130.867,19.45134,0.28582,98.93109,1.06121
131.367,19.49961,0.28645,98.9311,1.06108
131.867,19.5481,0.28772,98.90533,1.06095
132.367,19.59646,0.28869,98.89763,1.06082
132.867,19.64485,0.2891,98.89095,1.0607
133.367,19.69329,0.28793,98.86244,1.06056
133.867,19.74186,0.28744,98.89771,1.06043
134.367,19.79048,0.28891,98.8977,1.0603
134.867,19.83919,0.28977,98.89766,1.06017
135.367,19.88779,0.29197,98.9319,1.06004
135.867,19.9361,0.28793,98.90255,1.05991
136.367,19.98441,0.28963,98.89486,1.05977
136.867,20.03276,0.28785,98.88088,1.05964
137.367,20.08118,0.29118,98.88087,1.0595
137.867,20.12953,0.28702,98.88122,1.05937
138.367,20.17813,0.2888,98.88036,1.05923
138.867,20.22655,0.29075,98.9102,1.0591
139.367,20.27494,0.28959,98.91368,1.05896
139.867,20.3233,0.28922,98.8809,1.05882
140.367,20.37164,0.28936,98.88087,1.05869
140.867,20.4199,0.28959,98.88087,1.05855
141.367,20.46817,0.29162,98.88087,1.05841
141.867,20.51628,0.29328,98.88087,1.05827
142.367,20.56448,0.29096,98.88067,1.05813
142.867,20.6127,0.29143,98.88741,1.05799
143.367,20.66082,0.29399,98.88088,1.05785
143.867,20.70918,0.2943,98.88087,1.05771
144.367,20.7575,0.29372,98.88087,1.05756
144.867,20.80561,0.29304,98.88087,1.05742
145.367,20.85377,0.29345,98.8809,1.05728
145.867,20.902,0.29517,98.89271,1.05713
146.367,20.95,0.29443,98.8806,1.05699
146.867,20.9983,0.29427,98.84719,1.05684
147.367,21.04635,0.29295,98.8472,1.0567
147.867,21.09433,0.29245,98.883,1.05655
148.367,21.14207,0.29287,98.84773,1.05641
148.867,21.1901,0.29354,98.84719,1.05626
149.367,21.2381,0.29605,98.8472,1.05611
149.867,21.2861,0.29381,98.87986,1.05596
150.367,21.33434,0.29339,98.88101,1.05581
150.867,21.3825,0.29681,98.83779,1.05566
151.367,21.43048,0.29633,98.83878,1.05552
151.867,21.4786,0.29535,98.85381,1.05536
152.367,21.52661,0.29577,98.85562,1.05521
152.867,21.5744,0.29441,98.85561,1.05506
153.367,21.62227,0.29469,98.85803,1.05491
153.867,21.6704,0.29714,98.8887,1.05476
154.367,21.71823,0.29531,98.85561,1.0546
154.867,21.76612,0.29327,98.85561,1.05445
155.367,21.81395,0.29533,98.85509,1.0543
155.867,21.86185,0.29611,98.82223,1.05414
156.367,21.9097,0.29561,98.82995,1.05399
156.867,21.95775,0.29545,98.85559,1.05383
157.367,22.0056,0.2968,98.85561,1.05367
157.867,22.05341,0.29535,98.85561,1.05352
158.367,22.1012,0.29811,98.86689,1.05336
158.867,22.14892,0.29685,98.85511,1.0532
159.367,22.1968,0.29997,98.85561,1.05304
159.867,22.24466,0.29999,98.8556,1.05288
160.367,22.2924,0.30039,98.82902,1.05273
160.867,22.34017,0.29936,98.79681,1.05257
161.367,22.3878,0.30014,98.7958,1.0524
161.867,22.43571,0.30088,98.83069,1.05224
162.367,22.4836,0.30001,98.83061,1.05208
162.867,22.53155,0.29964,98.83062,1.05192
163.367,22.5795,0.30004,98.83123,1.05176
163.867,22.6275,0.30165,98.79573,1.05159
164.367,22.67543,0.3015,98.83044,1.05143
164.867,22.72334,0.30069,98.83036,1.05127
165.367,22.77113,0.30206,98.83035,1.0511
165.867,22.81899,0.30085,98.82934,1.05093
166.367,22.867,0.29946,98.83063,1.05077
166.867,22.9146,0.2996,98.8387,1.0506
167.367,22.96246,0.29956,98.83878,1.05044
167.867,23.01037,0.29868,98.83877,1.05027
168.367,23.0583,0.30221,98.8315,1.0501
168.867,23.10639,0.30198,98.83031,1.04993
169.367,23.15431,0.30096,98.84785,1.04976
169.867,23.2022,0.29983,98.84719,1.04959
170.367,23.25007,0.30415,98.84719,1.04942
170.867,23.29802,0.30316,98.8137,1.04925
171.367,23.346,0.30329,98.8138,1.04908
171.867,23.39402,0.30257,98.8138,1.04891
172.367,23.44179,0.30166,98.8138,1.04874
172.867,23.4893,0.30039,98.8138,1.04856
173.367,23.53699,0.30232,98.81465,1.04839
173.867,23.5848,0.30202,98.80537,1.04822
174.367,23.63274,0.30417,98.80533,1.04804
174.867,23.68086,0.30453,98.82248,1.04787
175.367,23.729,0.30245,98.82219,1.04769
175.867,23.77686,0.30387,98.82219,1.04751
176.367,23.82498,0.30393,98.8224,1.04734
176.867,23.87295,0.30539,98.79765,1.04716
177.367,23.92083,0.30307,98.80673,1.04698
177.867,23.9688,0.30587,98.82194,1.0468
178.367,24.01677,0.305,98.81095,1.04663
178.867,24.06471,0.30658,98.79669,1.04645
179.367,24.11281,0.30463,98.79682,1.04627
179.867,24.16079,0.30434,98.80513,1.04609
180.367,24.20854,0.30418,98.80511,1.04591
180.867,24.25628,0.30508,98.82512,1.04572
181.367,24.30397,0.30352,98.83038,1.04554
181.867,24.35171,0.30324,98.82724,1.04536
182.367,24.3995,0.30541,98.79694,1.04518
182.867,24.4474,0.30439,98.79694,1.04499
183.367,24.49532,0.30597,98.79694,1.04481
183.867,24.54318,0.30518,98.79694,1.04463
184.367,24.59085,0.30455,98.79694,1.04444
184.867,24.63851,0.30581,98.797,1.04425
185.367,24.68618,0.30851,98.7623,1.04407
185.867,24.73382,0.30555,98.79603,1.04388
186.367,24.78156,0.30565,98.7967,1.0437
186.867,24.82922,0.30679,98.7967,1.04351
187.367,24.87695,0.30812,98.7967,1.04332
187.867,24.92476,0.30716,98.79664,1.04313
188.367,24.9724,0.3087,98.76734,1.04294
188.867,25.02008,0.30796,98.7633,1.04275
189.367,25.06762,0.30757,98.79809,1.04256
189.867,25.11538,0.31006,98.78313,1.04237
190.367,25.1629,0.30904,98.7801,1.04218
190.867,25.21057,0.30774,98.78001,1.04199
191.367,25.25831,0.30935,98.738,1.0418
191.867,25.3061,0.30859,98.73801,1.0416
192.367,25.3534,0.30921,98.73801,1.04141
192.867,25.4011,0.31048,98.73815,1.04122
193.367,25.4487,0.30957,98.77173,1.04102
193.867,25.49634,0.31009,98.77325,1.04083
194.367,25.54419,0.31019,98.7464,1.04063
194.867,25.59195,0.31006,98.74643,1.04044
195.367,25.6399,0.3102,98.74643,1.04024
195.867,25.6876,0.31123,98.74643,1.04004
196.367,25.73532,0.31235,98.74643,1.03985
196.867,25.78286,0.31121,98.74629,1.03965
197.367,25.83063,0.31417,98.73799,1.03945
197.867,25.87825,0.31251,98.7308,1.03925
198.367,25.9261,0.30967,98.72969,1.03905
198.867,25.97394,0.31281,98.69365,1.03885
199.367,26.02184,0.31374,98.72145,1.03865
199.867,26.06975,0.31435,98.72143,1.03845
200.367,26.11769,0.31432,98.72143,1.03825
200.867,26.16545,0.31386,98.72143,1.03805
201.367,26.21312,0.31427,98.72143,1.03784
201.867,26.2608,0.31447,98.72144,1.03764
202.367,26.3084,0.31398,98.68929,1.03744
202.867,26.3561,0.31378,98.68775,1.03723
203.367,26.40375,0.31589,98.68776,1.03703
203.867,26.45167,0.31665,98.68776,1.03682
204.367,26.4993,0.31585,98.68776,1.03662
204.867,26.54712,0.31494,98.68778,1.03641
205.367,26.595,0.31738,98.66078,1.03621
205.867,26.6427,0.31656,98.654,1.036
206.367,26.69043,0.31609,98.65401,1.03579
206.867,26.7382,0.31851,98.66252,1.03558
207.367,26.786,0.31608,98.66237,1.03537
207.867,26.83369,0.3192,98.67885,1.03517
208.367,26.8815,0.31805,98.67934,1.03496
208.867,26.92929,0.32002,98.67934,1.03475
209.367,26.9772,0.32108,98.67934,1.03453
209.867,27.025,0.32042,98.67609,1.03432
210.367,27.07282,0.32227,98.6627,1.03411
210.867,27.12055,0.32313,98.646,1.0339
211.367,27.168,0.32296,98.6459,1.03369
211.867,27.2156,0.32354,98.64439,1.03347
212.367,27.26312,0.3272,98.6712,1.03326
212.867,27.31075,0.32722,98.6712,1.03305
213.367,27.35835,0.32731,98.6712,1.03283
213.867,27.4061,0.32817,98.64611,1.03262
214.367,27.4535,0.32859,98.63749,1.0324
214.867,27.50115,0.33067,98.6375,1.03219
215.367,27.5486,0.3327,98.6375,1.03197
215.867,27.59628,0.33371,98.63768,1.03175
216.367,27.6439,0.33543,98.60338,1.03153
216.867,27.69153,0.33788,98.57039,1.03132
217.367,27.73899,0.33701,98.57015,1.0311
217.867,27.78665,0.33878,98.57019,1.03088
218.367,27.8342,0.33998,98.6083,1.03066
218.867,27.8815,0.34099,98.6207,1.03044
219.367,27.92902,0.34261,98.62049,1.03022
219.867,27.97675,0.34067,98.56049,1.03
220.367,28.0241,0.34117,98.5339,1.02978
220.867,28.07193,0.3423,98.51963,1.02955
221.367,28.11955,0.34429,98.51942,1.02933
221.867,28.16715,0.34385,98.52793,1.02911
222.367,28.21495,0.34538,98.5444,1.02889
222.867,28.2628,0.34605,98.5449,1.02866
223.367,28.3107,0.34751,98.54507,1.02844
223.867,28.3585,0.34808,98.5116,1.02821
224.367,28.4063,0.34972,98.51148,1.02799
224.867,28.45405,0.34854,98.51255,1.02776
225.367,28.50181,0.35034,98.47799,1.02753
225.867,28.54944,0.35274,98.47806,1.02731
226.367,28.5971,0.3533,98.47806,1.02708
226.867,28.645,0.35465,98.4563,1.02685
227.367,28.69268,0.35609,98.4292,1.02662
227.867,28.7405,0.35768,98.41071,1.02639
228.367,28.7885,0.35887,98.41071,1.02616
228.867,28.8364,0.36046,98.41072,1.02593
229.367,28.8842,0.3632,98.40545,1.0257
229.867,28.93201,0.36654,98.3771,1.02547
230.367,28.9798,0.36636,98.3772,1.02524
230.867,29.0276,0.36945,98.36022,1.02501
231.367,29.07537,0.36985,98.35969,1.02478
231.867,29.1232,0.37106,98.31047,1.02455
232.367,29.17093,0.37459,98.30995,1.02431
232.867,29.21838,0.37594,98.31002,1.02408
233.367,29.26615,0.37642,98.27526,1.02384
233.867,29.31386,0.37757,98.24112,1.02361
234.367,29.3617,0.38082,98.20912,1.02337
234.867,29.40958,0.38236,98.20918,1.02314
235.367,29.4577,0.38464,98.20917,1.0229
235.867,29.5055,0.38714,98.2217,1.02267
236.367,29.5534,0.39008,98.20923,1.02243
236.867,29.60122,0.38922,98.19795,1.02219
237.367,29.6491,0.3922,98.14287,1.02195
237.867,29.69711,0.39433,98.14568,1.02171
238.367,29.7451,0.3981,98.0749,1.02148
238.867,29.79304,0.40215,98.07485,1.02124
239.367,29.8409,0.40536,98.07287,1.021
239.867,29.88862,0.40753,98.0527,1.02076
240.367,29.93658,0.40979,98.0329,1.02051
240.867,29.98435,0.41158,98.03421,1.02027
241.367,30.03237,0.41524,97.97521,1.02003
241.867,30.0803,0.41681,97.9484,1.01979
242.367,30.1281,0.42279,97.9341,1.01955
242.867,30.17565,0.42711,97.90092,1.0193
243.367,30.2234,0.42868,97.86516,1.01906
243.867,30.2712,0.4338,97.8313,1.01882
244.367,30.3192,0.43592,97.8315,1.01857
244.867,30.3671,0.44074,97.82823,1.01833
245.367,30.41494,0.44537,97.8048,1.01808
245.867,30.46255,0.45031,97.73675,1.01783
246.367,30.51025,0.45484,97.72742,1.01759
246.867,30.558,0.45812,97.69434,1.01734
247.367,30.6058,0.46524,97.66126,1.01709
247.867,30.6535,0.46965,97.64241,1.01684
248.367,30.70115,0.47462,97.58416,1.0166
248.867,30.7487,0.47784,97.53834,1.01635
249.367,30.7964,0.48493,97.4871,1.0161
249.867,30.8438,0.48789,97.45097,1.01585
250.367,30.89156,0.49507,97.41811,1.0156
250.867,30.9392,0.4992,97.384,1.01535
251.367,30.9869,0.50226,97.35077,1.01509
251.867,31.03449,0.50886,97.31249,1.01484
252.367,31.0822,0.51413,97.25846,1.01459
252.867,31.12985,0.51882,97.20767,1.01434
253.367,31.1775,0.52366,97.17075,1.01408
253.867,31.22515,0.52973,97.12541,1.01383
254.367,31.27301,0.5356,97.05389,1.01358
254.867,31.3207,0.54095,97.00009,1.01332
255.367,31.3685,0.54817,96.92013,1.01307
255.867,31.4162,0.5527,96.8771,1.01281
256.367,31.4639,0.5591,96.79414,1.01256
256.867,31.5116,0.56516,96.74651,1.0123
257.367,31.55917,0.5692,96.70009,1.01204
257.867,31.6068,0.58128,96.6328,1.01179
258.367,31.65437,0.58638,96.55346,1.01153
258.867,31.7019,0.59424,96.51521,1.01127
259.367,31.74966,0.59943,96.44449,1.01101
259.867,31.79723,0.60848,96.39056,1.01075
260.367,31.8449,0.61598,96.3177,1.01049
260.867,31.89248,0.62061,96.24175,1.01023
261.367,31.9401,0.62785,96.19165,1.00997
261.867,31.9879,0.63542,96.10915,1.00971
262.367,32.0355,0.64135,96.0051,1.00945
262.867,32.08336,0.65469,95.914,1.00919
263.367,32.13114,0.66,95.81309,1.00892
263.867,32.17842,0.66879,95.7316,1.00866
264.367,32.22588,0.67727,95.64854,1.0084
264.867,32.2735,0.68728,95.55804,1.00813
265.367,32.32121,0.69613,95.45429,1.00787
265.867,32.36915,0.70697,95.36731,1.00761
266.367,32.41745,0.71519,95.2631,1.00734
266.867,32.46522,0.72686,95.17791,1.00707
267.367,32.51285,0.73692,95.02845,1.00681
267.867,32.5606,0.74629,94.90867,1.00654
268.367,32.60838,0.75567,94.8039,1.00627
268.867,32.65607,0.76786,94.7106,1.00601
269.367,32.70373,0.77773,94.5846,1.00574
269.867,32.75156,0.78959,94.4558,1.00547
270.367,32.7994,0.80039,94.35709,1.0052
270.867,32.84737,0.8125,94.2379,1.00493
271.367,32.89533,0.82146,94.0851,1.00466
271.867,32.9433,0.83459,93.96,1.00439
272.367,32.99105,0.84679,93.83898,1.00412
272.867,33.0389,0.86022,93.7128,1.00385
273.367,33.08671,0.87223,93.54077,1.00358
273.867,33.13462,0.8838,93.39164,1.00331
274.367,33.18249,0.89901,93.2118,1.00304
274.867,33.2303,0.91069,93.07732,1.00276
275.367,33.278,0.92448,92.95263,1.00249
275.867,33.32608,0.93523,92.78347,1.00222
276.367,33.3739,0.94872,92.62139,1.00194
276.867,33.4217,0.96364,92.42792,1.00167
277.367,33.46965,0.97522,92.259,1.00139
277.867,33.51768,0.98917,92.0719,1.00112
278.367,33.56573,1.00202,91.89965,1.00084
278.867,33.61384,1.01513,91.72986,1.00057
279.367,33.66174,1.02963,91.53984,1.00029
279.867,33.70973,1.04491,91.35795,1.00001
280.367,33.75775,1.05525,91.1639,0.99973
280.867,33.8056,1.06826,90.9733,0.99946
281.367,33.8536,1.08418,90.77118,0.99918
281.867,33.90148,1.09598,90.55982,0.9989
282.367,33.94932,1.11171,90.3602,0.99862
282.867,33.99742,1.12535,90.11502,0.99834
283.367,34.04552,1.13836,89.91609,0.99806
283.867,34.09368,1.15522,89.65048,0.99778
284.367,34.142,1.16712,89.42324,0.9975
284.867,34.19004,1.18372,89.22425,0.99722
285.367,34.23788,1.19607,88.98779,0.99693
285.867,34.28603,1.20891,88.76212,0.99665
286.367,34.3341,1.22551,88.48854,0.99637
286.867,34.38214,1.23857,88.271,0.99608
287.367,34.43034,1.25235,88.0115,0.9958
287.867,34.47849,1.26399,87.74632,0.99552
288.367,34.52667,1.27959,87.45681,0.99523
288.867,34.5749,1.2912,87.1882,0.99495
289.367,34.62324,1.3071,86.88991,0.99466
289.867,34.6716,1.31705,86.63518,0.99438
290.367,34.71974,1.33011,86.33279,0.99409
290.867,34.76785,1.34251,86.04736,0.9938
291.367,34.81601,1.35562,85.7769,0.99352
291.867,34.86404,1.36532,85.50211,0.99323
292.367,34.91223,1.37982,85.1844,0.99294
292.867,34.9604,1.38725,84.8793,0.99265
293.367,35.00828,1.39795,84.57372,0.99236
293.867,35.05655,1.40876,84.26057,0.99207
294.367,35.10464,1.41897,83.9837,0.99178
294.867,35.15273,1.42975,83.68263,0.99149
295.367,35.20105,1.43791,83.36449,0.9912
295.867,35.2492,1.44435,83.07989,0.99091
296.367,35.29736,1.45054,82.75878,0.99062
296.867,35.3454,1.45558,82.43574,0.99033
297.367,35.39347,1.45869,82.10898,0.99004
297.867,35.4416,1.4614,81.81188,0.98974
298.367,35.48977,1.4615,81.46945,0.98945
298.867,35.5379,1.45871,81.13575,0.98916
299.367,35.58615,1.45497,80.86659,0.98886
299.867,35.63426,1.44262,80.503,0.98857
300.367,35.6823,1.43291,80.18327,0.98827
300.867,35.73021,1.41769,79.91114,0.98798
301.367,35.7781,1.39588,79.5685,0.98768
301.867,35.8258,1.36841,79.2754,0.98739
302.367,35.87369,1.33515,78.9892,0.98709
302.867,35.9216,1.30064,78.718,0.98679
303.367,35.9694,1.26515,78.46896,0.98649
303.867,36.0172,1.23029,78.20688,0.9862
304.367,36.06504,1.19394,77.9402,0.9859
304.867,36.1128,1.16022,77.65346,0.9856
305.367,36.1605,1.12603,77.4105,0.9853
305.867,36.2081,1.09381,77.17996,0.985
306.367,36.25573,1.06139,76.95445,0.9847
306.867,36.3035,1.02609,76.70476,0.9844
307.367,36.35116,0.99375,76.5206,0.9841
307.867,36.39894,0.96053,76.31152,0.9838
308.367,36.44668,0.93059,76.09009,0.9835
308.867,36.49412,0.8996,75.87392,0.9832
309.367,36.5418,0.86466,75.7083,0.98289
309.867,36.5895,0.83492,75.49344,0.98259
310.367,36.6372,0.80863,75.35189,0.98229
310.867,36.68509,0.77489,75.15706,0.98198
311.367,36.73263,0.74937,75.0031,0.98168
311.867,36.78028,0.71868,74.85211,0.98138
312.367,36.8279,0.69152,74.6824,0.98107
312.867,36.87567,0.66662,74.54863,0.98077
313.367,36.92346,0.64177,74.40778,0.98046
313.867,36.97116,0.61943,74.2598,0.98015
314.367,37.019,0.59568,74.16149,0.97985
314.867,37.0668,0.57828,74.0115,0.97954
315.367,37.1145,0.56005,73.86488,0.97923
315.867,37.1622,0.54346,73.74041,0.97893
316.367,37.21,0.52445,73.6837,0.97862
316.867,37.25772,0.5111,73.5642,0.97831
317.367,37.30547,0.49833,73.4775,0.978
317.867,37.3534,0.48608,73.36931,0.97769
318.367,37.4014,0.47296,73.26563,0.97738
318.867,37.44924,0.46252,73.1708,0.97707
319.367,37.4972,0.45352,73.04585,0.97676
319.867,37.545,0.44382,72.97886,0.97645
320.367,37.59282,0.43717,72.89913,0.97614
320.867,37.64069,0.42992,72.80237,0.97583
321.367,37.6886,0.42336,72.7218,0.97551
321.867,37.73661,0.41563,72.6392,0.9752
322.367,37.78465,0.40947,72.58117,0.97489
322.867,37.83272,0.40189,72.5013,0.97458
323.367,37.88075,0.39634,72.452,0.97426
323.867,37.92877,0.39161,72.3642,0.97395
324.367,37.9769,0.38442,72.2889,0.97363
324.867,38.02497,0.38199,72.21005,0.97332
325.367,38.07293,0.37619,72.15247,0.973
325.867,38.12058,0.37497,72.11586,0.97269
326.367,38.16858,0.36901,71.9925,0.97237
326.867,38.21654,0.36715,71.91905,0.97205
327.367,38.26462,0.36404,71.86847,0.97174
327.867,38.31309,0.36164,71.7922,0.97142
328.367,38.36124,0.35526,71.75926,0.9711
328.867,38.4093,0.35607,71.67461,0.97078
329.367,38.45733,0.35256,71.64067,0.97047
329.867,38.50544,0.3487,71.58444,0.97015
330.367,38.55344,0.34943,71.5127,0.96983
330.867,38.6014,0.34582,71.43313,0.96951
331.367,38.6494,0.34618,71.34801,0.96919
331.867,38.69744,0.34552,71.29486,0.96887
332.367,38.7455,0.34209,71.2334,0.96855
332.867,38.79363,0.33951,71.19258,0.96823
333.367,38.84173,0.33976,71.12836,0.9679
333.867,38.89002,0.33914,71.08165,0.96758
334.367,38.9383,0.33648,70.9996,0.96726
334.867,38.98652,0.33466,70.9393,0.96694
335.367,39.0347,0.33703,70.86886,0.96661
335.867,39.08289,0.33557,70.81347,0.96629
336.367,39.13105,0.33605,70.77713,0.96597
336.867,39.17928,0.33722,70.7057,0.96564
337.367,39.22749,0.33669,70.65442,0.96532
337.867,39.27572,0.3386,70.5792,0.96499
338.367,39.3239,0.33961,70.45819,0.96467
338.867,39.37207,0.34011,70.38678,0.96434
339.367,39.42038,0.34167,70.32288,0.96402
339.867,39.46877,0.34457,70.29294,0.96369
340.367,39.51702,0.34776,70.23631,0.96336
340.867,39.56525,0.34842,70.14877,0.96304
341.367,39.61354,0.3512,70.06357,0.96271
341.867,39.6617,0.35416,69.97318,0.96238
342.367,39.71006,0.35626,69.8784,0.96205
342.867,39.7585,0.36111,69.78725,0.96172
343.367,39.80681,0.36602,69.68494,0.96139
343.867,39.8551,0.3671,69.59309,0.96106
344.367,39.90344,0.37139,69.50444,0.96073
344.867,39.9516,0.3766,69.40038,0.9604
345.367,40,0.38133,69.25723,0.96007
345.867,40.04834,0.38516,69.16879,0.95974
346.367,40.0968,0.39172,69.04733,0.95941
346.867,40.14535,0.39743,68.90485,0.95908
347.367,40.1937,0.40423,68.78222,0.95875
347.867,40.242,0.41003,68.65991,0.95841
348.367,40.29048,0.41299,68.51177,0.95808
348.867,40.33902,0.41841,68.35576,0.95775
349.367,40.38749,0.42725,68.19346,0.95741
349.867,40.43615,0.43441,68.02766,0.95708
350.367,40.4846,0.44165,67.88327,0.95674
350.867,40.53294,0.44962,67.7355,0.95641
351.367,40.58153,0.45541,67.55956,0.95607
351.867,40.6301,0.46288,67.35422,0.95574
352.367,40.67861,0.47414,67.17144,0.9554
352.867,40.72718,0.47839,67.01626,0.95507
353.367,40.7757,0.49064,66.80508,0.95473
353.867,40.82415,0.4997,66.55896,0.95439
354.367,40.87272,0.50963,66.31243,0.95406
354.867,40.92142,0.51947,66.08591,0.95372
355.367,40.97005,0.52854,65.82933,0.95338
355.867,41.01869,0.53909,65.57485,0.95304
356.367,41.06745,0.55066,65.3149,0.9527
356.867,41.11593,0.55972,65.07778,0.95236
357.367,41.1644,0.5716,64.78764,0.95202
357.867,41.21307,0.58114,64.4806,0.95168
358.367,41.26147,0.59389,64.18342,0.95134
358.867,41.3101,0.60396,63.85069,0.951
359.367,41.35879,0.61701,63.54515,0.95066
359.867,41.4074,0.62929,63.20253,0.95032
360.367,41.4562,0.64068,62.81175,0.94998
360.867,41.50496,0.65297,62.4131,0.94964
361.367,41.55361,0.66635,62.04115,0.94929
361.867,41.60192,0.67884,61.6551,0.94895
362.367,41.65062,0.6918,61.2269,0.94861
362.867,41.69935,0.70528,60.7885,0.94826
363.367,41.7479,0.71775,60.34601,0.94792
363.867,41.79681,0.73327,59.8979,0.94758
364.367,41.84576,0.74287,59.42485,0.94723
364.867,41.89435,0.75865,58.9276,0.94689
365.367,41.94325,0.77227,58.3989,0.94654
365.867,41.992,0.78838,57.82976,0.9462
366.367,42.04079,0.80068,57.30449,0.94585
366.867,42.0897,0.81626,56.74748,0.9455
367.367,42.1384,0.82967,56.1653,0.94516
367.867,42.1872,0.84031,55.53532,0.94481
368.367,42.23588,0.85551,54.90857,0.94446
368.867,42.2846,0.86935,54.28504,0.94412
369.367,42.33338,0.87988,53.64161,0.94377
369.867,42.38203,0.89483,52.961,0.94342
370.367,42.4309,0.90762,52.24935,0.94307
370.867,42.47957,0.91961,51.53937,0.94272
371.367,42.5282,0.93195,50.80784,0.94237
371.867,42.5769,0.94531,50.04865,0.94202
372.367,42.62556,0.95453,49.25246,0.94167
372.867,42.6742,0.96687,48.47067,0.94132
373.367,42.72287,0.97586,47.70645,0.94097
373.867,42.7714,0.98664,46.89626,0.94062
374.367,42.82009,0.99544,46.06726,0.94027
374.867,42.86869,1.00318,45.17071,0.93992
375.367,42.91744,1.01149,44.32908,0.93956
375.867,42.96622,1.01614,43.4452,0.93921
376.367,43.0149,1.02237,42.53337,0.93886
376.867,43.06357,1.02845,41.59292,0.9385
377.367,43.11221,1.03098,40.6449,0.93815
377.867,43.16063,1.0354,39.7577,0.9378
378.367,43.20926,1.03493,38.817,0.93744
378.867,43.25784,1.03518,37.86016,0.93709
379.367,43.30639,1.03516,36.86889,0.93673
379.867,43.355,1.03005,35.93128,0.93638
380.367,43.40355,1.02682,35.01403,0.93602
380.867,43.45207,1.02165,34.0319,0.93567
381.367,43.50062,1.01547,33.04627,0.93531
381.867,43.54919,1.00724,32.07,0.93495
382.367,43.59779,0.99665,31.0877,0.9346
382.867,43.6465,0.989,30.15373,0.93424
383.367,43.69502,0.97541,29.1749,0.93388
383.867,43.7436,0.96233,28.1865,0.93352
384.367,43.79197,0.94724,27.21862,0.93316
384.867,43.84036,0.93258,26.314,0.93281
385.367,43.88884,0.91625,25.38532,0.93245
385.867,43.93741,0.89776,24.5039,0.93209
386.367,43.98594,0.87917,23.58774,0.93173
386.867,44.03451,0.85932,22.69645,0.93137
387.367,44.0829,0.83647,21.8047,0.93101
387.867,44.1312,0.81501,20.95498,0.93065
388.367,44.17954,0.79337,20.1172,0.93029
388.867,44.22786,0.76938,19.2766,0.92992
389.367,44.27623,0.74746,18.50092,0.92956
389.867,44.32479,0.7213,17.74276,0.9292
390.367,44.37322,0.6979,16.98735,0.92884
390.867,44.42178,0.67264,16.25831,0.92848
391.367,44.47035,0.64733,15.5335,0.92811
391.867,44.51872,0.62181,14.8499,0.92775
392.367,44.56718,0.59518,14.2103,0.92739
392.867,44.61545,0.57051,13.58603,0.92702
393.367,44.66372,0.54569,12.94978,0.92666
393.867,44.7121,0.52511,12.35627,0.92629
394.367,44.76047,0.49836,11.80763,0.92593
394.867,44.80897,0.47358,11.32494,0.92556
395.367,44.8573,0.45082,10.79407,0.9252
395.867,44.9056,0.4321,10.28244,0.92483
396.367,44.954,0.4092,9.77254,0.92447
396.867,45.0024,0.38924,9.35557,0.9241
397.367,45.05059,0.36995,8.92476,0.92373
397.867,45.09899,0.35145,8.47792,0.92337
398.367,45.14748,0.33263,8.09779,0.923
398.867,45.19599,0.3149,7.75574,0.92263
399.367,45.24474,0.29729,7.41561,0.92226
399.867,45.29331,0.28176,7.06693,0.92189
400.367,45.34171,0.26984,6.74727,0.92152
400.867,45.3902,0.25412,6.42138,0.92116
401.367,45.43833,0.24111,6.15855,0.92079
401.867,45.48688,0.22875,5.89436,0.92042
402.367,45.5355,0.2144,5.62838,0.92005
402.867,45.58413,0.20482,5.39613,0.91968
403.367,45.63293,0.19346,5.16716,0.91931
403.867,45.68155,0.18065,4.9315,0.91894
404.367,45.72984,0.17253,4.72475,0.91856
404.867,45.7783,0.16549,4.5081,0.91819
405.367,45.82698,0.15408,4.33019,0.91782
405.867,45.8756,0.1461,4.1288,0.91745
406.367,45.9245,0.1377,3.97487,0.91708
406.867,45.97327,0.1304,3.80807,0.9167
407.367,46.02211,0.12193,3.66073,0.91633
407.867,46.07091,0.11774,3.55548,0.91596
408.367,46.11959,0.11046,3.4129,0.91558
408.867,46.16838,0.10263,3.30033,0.91521
409.367,46.217,0.09883155,3.18733,0.91483
409.867,46.26565,0.09415588,3.12017,0.91446
410.367,46.3144,0.09155498,3.01986,0.91409
410.867,46.3632,0.08426917,2.92886,0.91371
411.367,46.41193,0.07791714,2.80767,0.91333
411.867,46.4609,0.07402827,2.69727,0.91296
412.367,46.50979,0.07103508,2.63445,0.91258
412.867,46.5586,0.06690617,2.58785,0.91221
413.367,46.6075,0.06416085,2.50348,0.91183
413.867,46.6563,0.06008843,2.44903,0.91145
414.367,46.70517,0.05691987,2.39379,0.91107
414.867,46.75412,0.05495072,2.31601,0.9107
415.367,46.80295,0.05274049,2.25531,0.91032
415.867,46.85191,0.05154799,2.20479,0.90994
416.367,46.90088,0.05146173,2.18852,0.90956
416.867,46.9497,0.04585914,2.16161,0.90918
417.367,46.99843,0.04613389,2.12748,0.9088
417.867,47.04707,0.04527785,2.09556,0.90843
418.367,47.09565,0.04528887,2.01836,0.90805
418.867,47.14438,0.04319435,1.98472,0.90767
419.367,47.19313,0.04121377,1.94646,0.90729
419.867,47.24191,0.0429046,1.9116,0.9069
420.367,47.29081,0.03834244,1.91234,0.90652
420.867,47.3394,0.03968633,1.87951,0.90614
421.367,47.3878,0.0374945,1.85871,0.90576
421.867,47.43649,0.03550112,1.84424,0.90538
422.367,47.48534,0.03633113,1.81151,0.905
422.867,47.5342,0.0376283,1.8185,0.90462
423.367,47.58362,0.03762922,1.794,0.90423
423.867,47.63255,0.03853195,1.76101,0.90385
424.367,47.68144,0.03696415,1.75954,0.90347
424.867,47.73032,0.03655917,1.73593,0.90308
425.367,47.77921,0.03663725,1.73601,0.9027
425.867,47.82806,0.036586,1.7018,0.90232
426.367,47.8769,0.0364686,1.7023,0.90193
426.867,47.92565,0.03676093,1.70225,0.90155
427.367,47.97449,0.03886754,1.66927,0.90116
427.867,48.02341,0.04103062,1.66859,0.90078
428.367,48.07232,0.04096467,1.6396,0.90039
428.867,48.12122,0.04044111,1.6352,0.9
429.367,48.17008,0.04500578,1.6352,0.89962
429.867,48.21867,0.04801042,1.58467,0.89923
430.367,48.26743,0.04940259,1.56692,0.89885
430.867,48.31615,0.04977011,1.56781,0.89846
431.367,48.365,0.05074951,1.53276,0.89807
431.867,48.41387,0.05228905,1.57004,0.89768
432.367,48.4628,0.05706677,1.53443,0.8973
432.867,48.5118,0.05471897,1.53444,0.89691
433.367,48.56072,0.05730211,1.53444,0.89652
433.867,48.60978,0.05950897,1.53444,0.89613
434.367,48.6588,0.0592814,1.53441,0.89574
434.867,48.70766,0.0570859,1.50107,0.89535
435.367,48.7567,0.05746764,1.50076,0.89496
435.867,48.8056,0.05726366,1.50076,0.89457
436.367,48.8547,0.0522238,1.50137,0.89418
436.867,48.9039,0.05109956,1.48402,0.89379
437.367,48.95292,0.04873581,1.44079,0.8934
437.867,49.0022,0.04519409,1.44207,0.89301
438.367,49.05135,0.04514446,1.41515,0.89262
438.867,49.1005,0.04214616,1.41684,0.89223
439.367,49.14966,0.04218801,1.42489,0.89184
439.867,49.19896,0.03783811,1.43367,0.89145
440.367,49.24815,0.03850508,1.43367,0.89105
440.867,49.2973,0.03760536,1.43367,0.89066
441.367,49.34645,0.03314025,1.43343,0.89027
441.867,49.39567,0.03203137,1.4252,0.88988
442.367,49.44482,0.02799676,1.42521,0.88948
442.867,49.494,0.02354473,1.39398,0.88909
443.367,49.5434,0.02298881,1.40239,0.8887
443.867,49.59258,0.0216624,1.40842,0.8883
444.367,49.64188,0.01899029,1.40842,0.88791
444.867,49.69121,0.0189606,1.40845,0.88751
445.367,49.74044,0.01772667,1.39195,0.88712
445.867,49.78982,0.01360001,1.39184,0.88672
446.367,49.83907,0.01334972,1.39184,0.88633
446.867,49.8884,0.01019456,1.39184,0.88593
447.367,49.9377,0.01280788,1.39184,0.88554
447.867,49.987,0.01233323,1.39197,0.88514
448.367,50.03622,0.0112963,1.37537,0.88474
448.867,50.0854,0.01042445,1.375,0.88435
449.367,50.13447,0.008185484,1.37495,0.88395
449.867,50.1834,0.008064484,1.34199,0.88355
450.367,50.23242,0.008854778,1.3413,0.88316
450.867,50.28152,0.00735507,1.34955,0.88276
451.367,50.33079,0.005084364,1.37492,0.88236
451.867,50.3802,0.003982256,1.37474,0.88196
452.367,50.42988,0.002843509,1.37474,0.88156
452.867,50.47902,0.001035895,1.38149,0.88116
453.367,50.52831,0.000863947,1.38521,0.88077
453.867,50.57736,-0.00281854,1.34974,0.88037
454.367,50.62632,-0.00528166,1.34975,0.87997
454.867,50.67575,-0.006664466,1.34482,0.87957
455.367,50.72461,-0.00665082,1.34132,0.87917
455.867,50.77388,-0.007045385,1.34105,0.87877
456.367,50.82315,-0.009586951,1.30825,0.87837
456.867,50.87222,-0.00676387,1.29399,0.87796
457.367,50.92177,-0.01029067,1.27423,0.87756
457.867,50.97122,-0.01119202,1.27424,0.87716
458.367,51.0205,-0.01005575,1.27412,0.87676
458.867,51.06982,-0.01038033,1.3079,0.87636
459.367,51.11912,-0.01165234,1.30798,0.87596
459.867,51.1682,-0.01259379,1.27418,0.87555
460.367,51.21747,-0.01360655,1.27424,0.87515
460.867,51.26672,-0.01382468,1.27428,0.87475
461.367,51.31599,-0.01281851,1.30713,0.87435
461.867,51.36542,-0.01607357,1.30766,0.87394
462.367,51.41475,-0.01417284,1.29671,0.87354
462.867,51.4641,-0.01466895,1.27424,0.87314
463.367,51.51344,-0.01759239,1.27424,0.87273
463.867,51.56252,-0.01503208,1.27424,0.87233
464.367,51.61176,-0.01763369,1.27424,0.87192
464.867,51.6609,-0.01565267,1.27423,0.87152
465.367,51.71005,-0.01652931,1.24887,0.87111
465.867,51.7592,-0.01901265,1.24056,0.87071
466.367,51.8085,-0.01848684,1.24058,0.8703
466.867,51.85774,-0.01961577,1.25821,0.8699
467.367,51.9071,-0.0199543,1.2574,0.86949
467.867,51.95641,-0.02187069,1.2574,0.86908
468.367,52.00575,-0.01979299,1.2574,0.86868
468.867,52.055,-0.02486953,1.2574,0.86827
469.367,52.10413,-0.02024226,1.25712,0.86786
469.867,52.15327,-0.02273435,1.22433,0.86746
470.367,52.20256,-0.02193682,1.22365,0.86705
470.867,52.25177,-0.02126544,1.24059,0.86664
471.367,52.3011,-0.02111872,1.24159,0.86623
471.867,52.3504,-0.02339675,1.27398,0.86583
472.367,52.39963,-0.02520634,1.29827,0.86542
472.867,52.44895,-0.02543159,1.27425,0.86501
473.367,52.49824,-0.02792954,1.25323,0.8646
473.867,52.5475,-0.02725388,1.24047,0.86419
474.367,52.5968,-0.02782075,1.2751,0.86378
474.867,52.64603,-0.02771543,1.27556,0.86337
475.367,52.6953,-0.02829005,1.24045,0.86296
475.867,52.74448,-0.02953915,1.21457,0.86255
476.367,52.79367,-0.03014746,1.20688,0.86214
476.867,52.84287,-0.03145653,1.20689,0.86173
477.367,52.8922,-0.03233418,1.20689,0.86132
477.867,52.94164,-0.03283124,1.20689,0.86091
478.367,52.99123,-0.03349634,1.20689,0.8605
478.867,53.04093,-0.0333704,1.20688,0.86009
479.367,53.0905,-0.03266113,1.1806,0.85968
479.867,53.13994,-0.03578979,1.17321,0.85927
480.367,53.18951,-0.03713005,1.17321,0.85885
480.867,53.239,-0.0380327,1.17321,0.85844
481.367,53.28845,-0.03545234,1.1732,0.85803
481.867,53.33795,-0.0371801,1.15771,0.85762
482.367,53.3875,-0.03962063,1.15663,0.8572
482.867,53.43685,-0.04000743,1.15663,0.85679
483.367,53.4864,-0.04088009,1.15663,0.85638
483.867,53.53584,-0.03978739,1.15663,0.85596
484.367,53.58531,-0.04129983,1.15663,0.85555
484.867,53.63471,-0.04196915,1.15663,0.85514
485.367,53.68407,-0.04138467,1.15663,0.85472
485.867,53.7334,-0.04253595,1.15663,0.85431
486.367,53.78255,-0.04462122,1.15664,0.85389
486.867,53.832,-0.04319173,1.15394,0.85348
487.367,53.88123,-0.04633051,1.13979,0.85306
487.867,53.9305,-0.04478465,1.13978,0.85265
488.367,53.97987,-0.04520005,1.16511,0.85223
488.867,54.0291,-0.04615967,1.16513,0.85182
489.367,54.0784,-0.04659216,1.13133,0.8514
489.867,54.12778,-0.04871665,1.13138,0.85098
490.367,54.17715,-0.05269277,1.13138,0.85057
490.867,54.22654,-0.05058315,1.13138,0.85015
491.367,54.2759,-0.04989143,1.13138,0.84973
491.867,54.3252,-0.0512541,1.13156,0.84932
492.367,54.37463,-0.05102744,1.09753,0.8489
492.867,54.42399,-0.0504572,1.0977,0.84848
493.367,54.47345,-0.05416435,1.0977,0.84806
493.867,54.52285,-0.05300563,1.0977,0.84765
494.367,54.5722,-0.05574455,1.0977,0.84723
494.867,54.62171,-0.05499237,1.0977,0.84681
495.367,54.67108,-0.05583992,1.09772,0.84639
495.867,54.72039,-0.05650723,1.08934,0.84597
496.367,54.76976,-0.05587211,1.08929,0.84555
496.867,54.8191,-0.05557175,1.08957,0.84513
497.367,54.8684,-0.05695111,1.10582,0.84471
497.867,54.9178,-0.05858187,1.10608,0.8443
498.367,54.9673,-0.0606208,1.0729,0.84388
498.867,55.0167,-0.06193618,1.0759,0.84346
499.367,55.0662,-0.06197133,1.10634,0.84304
499.867,55.1157,-0.06309742,1.10644,0.84261
500.367,55.1651,-0.06604384,1.09818,0.84219
500.867,55.2148,-0.06588305,1.09812,0.84177
501.367,55.26441,-0.06668904,1.06411,0.84135
501.867,55.3141,-0.06670414,1.06429,0.84093
502.367,55.3639,-0.06743318,1.06429,0.84051
502.867,55.41356,-0.06800857,1.06429,0.84009
503.367,55.4632,-0.07202851,1.06429,0.83967
503.867,55.5128,-0.07215406,1.06429,0.83924
504.367,55.5625,-0.07254741,1.06429,0.83882
504.867,55.61234,-0.07543201,1.06412,0.8384
505.367,55.6621,-0.07407691,1.0309,0.83798
505.867,55.71204,-0.07508748,1.03053,0.83755
506.367,55.7619,-0.07332494,1.0553,0.83713
506.867,55.8116,-0.07665879,1.05587,0.83671
507.367,55.8612,-0.07644255,1.05587,0.83629
507.867,55.9108,-0.07655646,1.05587,0.83586
508.367,55.9604,-0.07734461,1.05587,0.83544
508.867,56.01,-0.07808228,1.05587,0.83501
509.367,56.05981,-0.0797369,1.02274,0.83459
509.867,56.1094,-0.08150052,1.02245,0.83417
510.367,56.159,-0.08273286,1.02243,0.83374
510.867,56.2088,-0.08174238,0.98888,0.83332
511.367,56.2584,-0.08284603,1.02286,0.83289
511.867,56.308,-0.08511386,1.02245,0.83247
512.367,56.35764,-0.08477067,1.02244,0.83204
512.867,56.4071,-0.08845897,1.03321,0.83162
513.367,56.4567,-0.08953353,1.06169,0.83119
513.867,56.5063,-0.08808524,1.06429,0.83076
514.367,56.55596,-0.08958463,1.06429,0.83034
514.867,56.60566,-0.08890457,1.06438,0.82991
515.367,56.6554,-0.08939964,1.0312,0.82949
515.867,56.7051,-0.09257469,1.00559,0.82906
516.367,56.75465,-0.09294611,1.00551,0.82863
516.867,56.80415,-0.09092215,1.031,0.8282
517.367,56.85383,-0.09473258,1.02991,0.82778
517.867,56.90347,-0.09723982,1.03901,0.82735
518.367,56.9531,-0.09367485,1.03819,0.82692
518.867,57.0029,-0.09490541,1.0728,0.82649
519.367,57.05239,-0.09780925,1.07259,0.82607
519.867,57.10196,-0.09825853,1.06518,0.82564
520.367,57.1516,-0.09682895,1.03059,0.82521
520.867,57.2014,-0.0981919,1.01078,0.82478
521.367,57.2512,-0.0988715,0.99691,0.82435
521.867,57.30105,-0.09789433,1.02244,0.82392
522.367,57.35077,-0.09775548,1.03896,0.8235
522.867,57.40042,-0.10194,1.03903,0.82307
523.367,57.4501,-0.10099,1.03903,0.82264
523.867,57.49966,-0.10155,1.03903,0.82221
524.367,57.5494,-0.10368,1.02302,0.82178
524.867,57.5991,-0.1036,0.99692,0.82135
525.367,57.6488,-0.10489,0.99694,0.82092
525.867,57.6986,-0.10447,0.99694,0.82049
526.367,57.74835,-0.10644,0.99694,0.82006
526.867,57.79825,-0.10472,0.99694,0.81963
527.367,57.848,-0.1051,0.99694,0.8192
527.867,57.89776,-0.10778,0.99694,0.81877
528.367,57.9474,-0.10561,0.99694,0.81833
528.867,57.99714,-0.10685,0.99694,0.8179
529.367,58.04674,-0.10368,0.99694,0.81747
529.867,58.0965,-0.10646,0.99694,0.81704
530.367,58.1463,-0.10662,0.99694,0.81661
530.867,58.1961,-0.1052,0.99694,0.81618
531.367,58.24596,-0.10749,0.99707,0.81574
531.867,58.29563,-0.10811,0.98076,0.81531
532.367,58.3454,-0.10986,0.98035,0.81488
532.867,58.3952,-0.10879,0.98035,0.81445
533.367,58.445,-0.10803,0.98035,0.81401
533.867,58.49476,-0.10728,0.98052,0.81358
534.367,58.5446,-0.10851,0.9465,0.81315
534.867,58.5944,-0.10958,0.95679,0.81271
535.367,58.6441,-0.10789,0.98035,0.81228
535.867,58.69396,-0.10902,0.98035,0.81185
536.367,58.74377,-0.11096,0.98035,0.81141
536.867,58.7934,-0.10955,0.98035,0.81098
537.367,58.84316,-0.11022,0.98035,0.81055
537.867,58.8929,-0.10922,0.98035,0.81011
538.367,58.94271,-0.10861,0.96908,0.80968
538.867,58.9926,-0.10946,0.96352,0.80924
539.367,59.04241,-0.11044,0.96353,0.80881
539.867,59.09211,-0.10644,0.9848,0.80837
540.367,59.14181,-0.10976,0.97882,0.80794
540.867,59.1915,-0.10854,0.96344,0.8075
541.367,59.2411,-0.10937,0.98273,0.80707
541.867,59.2908,-0.10998,0.99697,0.80663
542.367,59.34045,-0.10829,0.96347,0.8062
542.867,59.3901,-0.10967,0.96352,0.80576
543.367,59.4399,-0.10951,0.96352,0.80532
543.867,59.48955,-0.10802,0.96352,0.80489
544.367,59.5393,-0.11113,0.96352,0.80445
544.867,59.58894,-0.10909,0.96352,0.80402
545.367,59.6385,-0.10952,0.96325,0.80358
545.867,59.68821,-0.10999,0.93856,0.80314
546.367,59.7378,-0.10764,0.93852,0.80271
546.867,59.7873,-0.10751,0.93852,0.80227
547.367,59.83671,-0.11039,0.93852,0.80183
547.867,59.8864,-0.10785,0.93852,0.80139
548.367,59.9361,-0.10775,0.93852,0.80096
548.867,59.986,-0.10847,0.93852,0.80052
549.367,60.03617,-0.10714,0.93852,0.80008
549.867,60.0862,-0.10799,0.93852,0.79964
550.367,60.13595,-0.10748,0.93695,0.7992
550.867,60.1857,-0.10693,0.9638,0.79877
551.367,60.23548,-0.10681,0.96377,0.79833
551.867,60.2852,-0.10627,0.96377,0.79789
552.367,60.33492,-0.10818,0.96377,0.79745
552.867,60.3845,-0.10904,0.94699,0.79701
553.367,60.4343,-0.10878,0.93851,0.79657
553.867,60.484,-0.10668,0.93833,0.79613
554.367,60.53397,-0.10714,0.93004,0.79569
554.867,60.584,-0.10742,0.93006,0.79526
555.367,60.63405,-0.10967,0.90217,0.79482
555.867,60.68394,-0.1098,0.92666,0.79438
556.367,60.7338,-0.11087,0.93011,0.79394
556.867,60.78366,-0.10953,0.9301,0.7935
557.367,60.83355,-0.11307,0.9301,0.79306
557.867,60.88345,-0.11091,0.9301,0.79262
558.367,60.93343,-0.11121,0.9301,0.79218
558.867,60.98341,-0.10882,0.93011,0.79173
559.367,61.033,-0.11139,0.92782,0.79129
559.867,61.083,-0.11265,0.92168,0.79085
560.367,61.13281,-0.11216,0.91959,0.79041
560.867,61.18261,-0.11215,0.91466,0.78997
561.367,61.23267,-0.1134,0.88771,0.78953
561.867,61.2826,-0.1125,0.90489,0.78909
562.367,61.33249,-0.11241,0.92155,0.78865
562.867,61.38234,-0.11501,0.92143,0.78821
563.367,61.43224,-0.11201,0.92143,0.78776
563.867,61.4821,-0.11256,0.92077,0.78732
564.367,61.53199,-0.11097,0.86994,0.78688
564.867,61.5819,-0.1107,0.87118,0.78644
565.367,61.63182,-0.11304,0.87032,0.786
565.867,61.6815,-0.1133,0.9046,0.78555
566.367,61.7312,-0.11654,0.90459,0.78511
566.867,61.781,-0.11455,0.90492,0.78467
567.367,61.8308,-0.11436,0.88802,0.78423
567.867,61.88064,-0.11618,0.88801,0.78378
568.367,61.9304,-0.11455,0.88801,0.78334
568.867,61.9801,-0.11731,0.88801,0.7829
569.367,62.03,-0.11467,0.88801,0.78245
569.867,62.0799,-0.11622,0.88801,0.78201
570.367,62.1301,-0.11305,0.88801,0.78157
570.867,62.18,-0.11486,0.92143,0.78112
571.367,62.22994,-0.11292,0.92143,0.78068
571.867,62.2799,-0.11549,0.92143,0.78023
572.367,62.32983,-0.11379,0.90478,0.77979
572.867,62.37979,-0.11791,0.9046,0.77935
573.367,62.43,-0.11469,0.89643,0.7789
573.867,62.4802,-0.11453,0.89649,0.77846
574.367,62.5303,-0.11505,0.86275,0.77801
574.867,62.5804,-0.1202,0.86276,0.77757
575.367,62.6304,-0.11756,0.86276,0.77712
575.867,62.68029,-0.11901,0.86276,0.77668
576.367,62.73033,-0.11715,0.86276,0.77623
576.867,62.7803,-0.11331,0.88829,0.77579
577.367,62.8305,-0.11748,0.88802,0.77534
577.867,62.8807,-0.11822,0.86261,0.7749
578.367,62.93094,-0.11718,0.86276,0.77445
578.867,62.9813,-0.1194,0.86276,0.77401
579.367,63.03147,-0.11663,0.86276,0.77356
579.867,63.08164,-0.11893,0.86276,0.77311
580.367,63.1316,-0.11782,0.86276,0.77267
580.867,63.1816,-0.11559,0.86276,0.77222
581.367,63.2316,-0.11409,0.86276,0.77178
581.867,63.2815,-0.11872,0.90715,0.77133
582.367,63.3316,-0.11746,0.90485,0.77088
582.867,63.3816,-0.11853,0.90189,0.77044
583.367,63.43167,-0.11652,0.87142,0.76999
583.867,63.48169,-0.11746,0.88445,0.76954
584.367,63.53171,-0.11633,0.83635,0.7691
584.867,63.5817,-0.11609,0.87119,0.76865
585.367,63.6316,-0.11474,0.90497,0.7682
585.867,63.6816,-0.11347,0.90485,0.76776
586.367,63.73157,-0.1184,0.90485,0.76731
586.867,63.7815,-0.1172,0.90478,0.76686
587.367,63.83141,-0.11717,0.89639,0.76641
587.867,63.88142,-0.11376,0.89643,0.76597
588.367,63.93147,-0.11249,0.89648,0.76552
588.867,63.9816,-0.11524,0.86291,0.76507
589.367,64.03164,-0.11313,0.86297,0.76462
589.867,64.0817,-0.11621,0.89656,0.76417
590.367,64.13176,-0.11648,0.89646,0.76373
590.867,64.18189,-0.11469,0.862,0.76328
591.367,64.23212,-0.11759,0.86226,0.76283
591.867,64.28233,-0.11678,0.87899,0.76238
592.367,64.33255,-0.11792,0.8964,0.76193
592.867,64.3828,-0.11576,0.89643,0.76148
593.367,64.43284,-0.11495,0.89643,0.76103
593.867,64.4827,-0.11778,0.89643,0.76059
594.367,64.53274,-0.11425,0.89644,0.76014
594.867,64.58272,-0.11651,0.86971,0.75969
595.367,64.63275,-0.11433,0.87118,0.75924
595.867,64.68279,-0.11492,0.87137,0.75879
596.367,64.7329,-0.11355,0.90451,0.75834
596.867,64.7829,-0.11386,0.90485,0.75789
597.367,64.833,-0.11541,0.90485,0.75744
597.867,64.88294,-0.11307,0.90265,0.75699
598.367,64.93276,-0.11508,0.89642,0.75654
598.867,64.98286,-0.11314,0.89695,0.75609
599.367,65.03296,-0.11287,0.88803,0.75564
599.867,65.0831,-0.11657,0.88794,0.75519
600.367,65.13345,-0.11438,0.86318,0.75474
600.867,65.18353,-0.11201,0.86276,0.75429
601.367,65.23363,-0.1101,0.86276,0.75384
601.867,65.28385,-0.11153,0.86277,0.75339
602.367,65.33411,-0.11361,0.82663,0.75294
602.867,65.3844,-0.11213,0.84919,0.75249
603.367,65.43471,-0.11245,0.86277,0.75204
603.867,65.4849,-0.11343,0.86281,0.75159
604.367,65.535,-0.11519,0.88829,0.75114
604.867,65.5852,-0.11061,0.87144,0.75069
605.367,65.63532,-0.11173,0.87144,0.75023
605.867,65.68549,-0.10767,0.86381,0.74978
606.367,65.73563,-0.1129,0.83784,0.74933
606.867,65.78574,-0.11122,0.82954,0.74888
607.367,65.83572,-0.11093,0.82934,0.74843
607.867,65.88586,-0.11057,0.82934,0.74798
608.367,65.93607,-0.11026,0.828,0.74753
608.867,65.98639,-0.10904,0.86308,0.74707
609.367,66.03679,-0.10959,0.86547,0.74662
609.867,66.08699,-0.10914,0.82933,0.74617
610.367,66.13714,-0.10871,0.82934,0.74572
610.867,66.18718,-0.1111,0.82967,0.74527
611.367,66.23722,-0.10742,0.86282,0.74481
611.867,66.28742,-0.10839,0.86301,0.74436
612.367,66.33768,-0.10816,0.86301,0.74391
612.867,66.3879,-0.10674,0.86301,0.74346
613.367,66.43817,-0.10939,0.86509,0.74301
613.867,66.4884,-0.1091,0.83777,0.74255
614.367,66.5385,-0.10737,0.83776,0.7421
614.867,66.58877,-0.10783,0.83012,0.74165
615.367,66.63888,-0.10346,0.83067,0.74119
615.867,66.6892,-0.10166,0.79563,0.74074
616.367,66.7394,-0.10123,0.82922,0.74029
616.867,66.7898,-0.10387,0.82877,0.73984
617.367,66.84013,-0.10057,0.86278,0.73938
617.867,66.89047,-0.10368,0.82905,0.73893
618.367,66.94079,-0.10662,0.8632,0.73848
618.867,66.991,-0.10286,0.82936,0.73802
619.367,67.04114,-0.1083,0.82934,0.73757
619.867,67.09131,-0.10592,0.8624,0.73712
620.367,67.14153,-0.10298,0.82896,0.73666
620.867,67.19185,-0.10463,0.82908,0.73621
621.367,67.24229,-0.10221,0.82908,0.73576
621.867,67.29268,-0.10123,0.82927,0.7353
622.367,67.34303,-0.10639,0.86241,0.73485
622.867,67.39321,-0.1066,0.84614,0.73439
623.367,67.44344,-0.10603,0.82932,0.73394
623.867,67.49372,-0.10193,0.82917,0.73349
624.367,67.54385,-0.10344,0.82992,0.73303
624.867,67.59392,-0.10519,0.82923,0.73258
625.367,67.64412,-0.10223,0.8047,0.73212
625.867,67.69419,-0.10311,0.82049,0.73167
626.367,67.7445,-0.1031,0.82067,0.73122
626.867,67.7949,-0.10056,0.81843,0.73076
627.367,67.84523,-0.10055,0.8543,0.73031
627.867,67.8955,-0.10095,0.82149,0.72985
628.367,67.94561,-0.10352,0.82092,0.7294
628.867,67.99579,-0.09692356,0.82092,0.72894
629.367,68.04609,-0.10063,0.82092,0.72849
629.867,68.09636,-0.10053,0.82092,0.72803
630.367,68.14672,-0.10152,0.82092,0.72758
630.867,68.19694,-0.10098,0.82439,0.72712
631.367,68.2469,-0.1008,0.85457,0.72667
631.867,68.297,-0.09783791,0.85459,0.72621
632.367,68.34706,-0.09988514,0.85461,0.72576
632.867,68.39712,-0.0965729,0.83669,0.7253
633.367,68.44713,-0.09516862,0.82092,0.72485
633.867,68.4973,-0.0973284,0.82092,0.72439
634.367,68.54745,-0.09694848,0.82092,0.72394
634.867,68.59751,-0.10035,0.82082,0.72348
635.367,68.64765,-0.09860462,0.84637,0.72303
635.867,68.6981,-0.09976671,0.84617,0.72257
636.367,68.74854,-0.09832679,0.84569,0.72212
636.867,68.79887,-0.0977582,0.82088,0.72166
637.367,68.84915,-0.09709298,0.82092,0.7212
637.867,68.8993,-0.0969658,0.82092,0.72075
638.367,68.94954,-0.09947482,0.82092,0.72029
638.867,68.99975,-0.09786819,0.82092,0.71984
639.367,69.0502,-0.09764683,0.82092,0.71938
639.867,69.10044,-0.09995654,0.82092,0.71893
640.367,69.1507,-0.10002,0.81218,0.71847
640.867,69.20092,-0.098945,0.81248,0.71801
641.367,69.25108,-0.09948483,0.82814,0.71756
641.867,69.30135,-0.09903206,0.82066,0.7171
642.367,69.35152,-0.09703447,0.82066,0.71664
642.867,69.40182,-0.09785041,0.82066,0.71619
643.367,69.45174,-0.09856626,0.82071,0.71573
643.867,69.50194,-0.0978739,0.80446,0.71528
644.367,69.55218,-0.09631936,0.80408,0.71482
644.867,69.60248,-0.09682476,0.80408,0.71436
645.367,69.65312,-0.0970355,0.80408,0.71391
645.867,69.70345,-0.09720145,0.80408,0.71345
646.367,69.7538,-0.09891835,0.80408,0.71299
646.867,69.80409,-0.10078,0.80408,0.71254
647.367,69.85436,-0.09957871,0.80408,0.71208
647.867,69.90465,-0.10269,0.80408,0.71162
648.367,69.95491,-0.10115,0.80408,0.71117
648.767,69.99509,-0.10284,0.80408,0.7108