File: 01_Data/PE_Batting_82B/MCC/PE_Batting_82B_MCC_30K_min_220309_R3.txt
Sample ID:	C:\MCC\MCC Cal\Test\PE_batting_82B_MCC_30K_min_220309_R3.txt
Sample Weight (mg):	4.1
Heating Rate (C/s):	0.5
Combustor Temp (C):	900
N2 Flow Rate (cc/min):	80
O2 Flow Rate (cc/min):	20
Calibration File:	C:\MCC\MCC Cal\Coeff1 JN10440_30_210304.txt.txt
T Correction Coefficients:	0	1.024463	0
Time Shift (s):	14
*
Time (s)	Temperature (C)	N2 flow rate (cc/min)	O2 flow rate (cc/min)	Flow Rate (cc/min)	Oxygen (%)	HRR (W/g)	Heating rate (C/s)
0.000	106.988	80.007	19.993	103.710	19.985	0.281	0.007
2.000	106.982	80.007	19.994	103.699	19.983	0.431	-0.033
4.000	106.954	80.006	19.993	103.707	19.983	0.396	0.000
6.000	106.960	80.008	19.994	103.709	19.984	0.316	-0.028
8.002	106.996	80.008	19.994	103.708	19.985	0.253	0.020
10.000	106.977	80.007	19.993	103.706	19.981	0.555	-0.017
12.001	106.991	80.008	19.993	103.701	19.983	0.374	0.019
14.000	106.981	80.010	19.993	103.703	19.982	0.514	-0.002
16.000	106.970	80.009	19.993	103.738	19.978	0.806	0.003
18.000	106.996	80.009	19.993	103.745	19.979	0.747	-0.003
20.000	107.007	80.008	19.993	103.750	19.974	1.089	-0.023
22.000	107.070	80.007	19.994	103.765	19.973	1.240	0.066
24.000	107.091	80.008	19.992	103.778	19.971	1.345	0.035
26.000	107.171	80.008	19.994	103.796	19.972	1.306	0.048
28.000	107.276	80.009	19.992	103.818	19.967	1.663	0.046
30.000	107.390	80.009	19.992	103.813	19.964	1.910	0.054
32.000	107.527	80.009	19.992	103.836	19.963	2.012	0.085
34.000	107.661	80.009	19.993	103.863	19.957	2.450	0.087
36.000	107.824	80.010	19.993	103.884	19.952	2.900	0.068
38.000	108.104	80.008	19.993	103.905	19.955	2.602	0.124
40.000	108.343	80.008	19.994	103.906	19.949	3.097	0.131
42.001	108.600	80.008	19.994	103.904	19.949	3.095	0.126
44.000	108.910	80.008	19.993	103.905	19.951	2.955	0.147
46.000	109.272	80.007	19.993	103.918	19.949	3.129	0.185
48.000	109.644	80.007	19.994	103.941	19.941	3.738	0.176
50.001	110.051	80.007	19.992	103.934	19.939	3.912	0.217
52.000	110.461	80.007	19.994	103.944	19.946	3.367	0.213
54.000	110.876	80.005	19.993	103.940	19.943	3.598	0.217
56.000	111.349	80.006	19.994	103.930	19.941	3.760	0.252
58.001	111.791	80.006	19.994	103.925	19.941	3.716	0.217
60.001	112.336	80.007	19.994	103.943	19.942	3.633	0.265
62.000	112.860	80.006	19.993	103.930	19.940	3.784	0.265
64.000	113.383	80.007	19.995	103.945	19.939	3.888	0.279
66.000	114.005	80.007	19.995	103.943	19.942	3.625	0.314
68.000	114.587	80.006	19.994	103.945	19.940	3.819	0.326
70.001	115.173	80.006	19.994	103.945	19.939	3.856	0.285
72.002	115.836	80.007	19.995	103.944	19.936	4.161	0.350
74.001	116.449	80.007	19.995	103.943	19.939	3.856	0.332
76.000	117.043	80.007	19.994	103.944	19.941	3.773	0.307
78.000	117.730	80.005	19.994	103.948	19.937	4.026	0.337
80.001	118.450	80.007	19.994	103.944	19.937	4.061	0.370
82.001	119.114	80.007	19.993	103.945	19.940	3.848	0.329
84.001	119.827	80.006	19.993	103.951	19.937	4.085	0.347
86.001	120.549	80.007	19.993	103.948	19.936	4.112	0.341
88.000	121.266	80.006	19.993	103.947	19.937	4.020	0.346
90.000	122.060	80.008	19.993	103.947	19.937	4.075	0.365
92.000	122.793	80.008	19.993	103.963	19.940	3.850	0.375
94.000	123.601	80.010	19.993	103.950	19.937	4.061	0.400
96.001	124.399	80.009	19.993	103.964	19.938	3.992	0.440
98.001	125.146	80.009	19.994	103.976	19.934	4.280	0.388
100.000	125.953	80.008	19.994	103.965	19.936	4.097	0.388
102.001	126.776	80.008	19.993	103.975	19.936	4.149	0.408
104.000	127.607	80.007	19.992	103.962	19.935	4.173	0.378
106.001	128.466	80.008	19.994	103.964	19.937	4.084	0.443
108.000	129.326	80.008	19.993	103.970	19.931	4.544	0.436
110.000	130.196	80.008	19.993	103.974	19.932	4.479	0.440
112.000	131.007	80.008	19.993	103.966	19.934	4.300	0.380
114.000	131.919	80.008	19.992	103.959	19.935	4.232	0.432
116.000	132.816	80.009	19.992	103.973	19.933	4.407	0.460
118.000	133.699	80.008	19.992	103.984	19.931	4.509	0.417
120.001	134.610	80.009	19.992	103.981	19.931	4.538	0.464
122.000	135.490	80.010	19.992	103.979	19.930	4.588	0.442
124.000	136.410	80.010	19.992	103.970	19.931	4.555	0.446
126.000	137.332	80.010	19.992	103.975	19.930	4.598	0.473
128.000	138.260	80.009	19.993	103.967	19.929	4.690	0.466
130.000	139.214	80.007	19.993	103.977	19.930	4.624	0.454
132.000	140.145	80.007	19.993	103.981	19.929	4.661	0.470
134.000	141.098	80.007	19.994	103.984	19.930	4.628	0.463
136.000	142.066	80.008	19.994	103.967	19.928	4.742	0.455
138.000	143.030	80.008	19.994	103.969	19.930	4.611	0.478
140.000	144.035	80.006	19.994	103.954	19.929	4.679	0.494
142.000	145.011	80.008	19.994	103.955	19.931	4.563	0.497
144.000	145.978	80.008	19.994	103.961	19.929	4.685	0.468
146.000	146.969	80.008	19.993	103.951	19.927	4.816	0.500
148.000	147.958	80.008	19.993	103.958	19.927	4.805	0.479
150.000	148.956	80.007	19.993	103.971	19.928	4.774	0.486
152.000	149.945	80.007	19.993	103.958	19.928	4.754	0.510
154.000	150.919	80.008	19.993	103.951	19.931	4.532	0.496
156.000	151.892	80.006	19.995	103.947	19.931	4.493	0.503
158.000	152.899	80.008	19.994	103.957	19.931	4.539	0.501
160.000	153.878	80.007	19.994	103.948	19.932	4.486	0.480
162.000	154.905	80.007	19.994	103.946	19.930	4.613	0.515
164.000	155.864	80.006	19.994	103.947	19.930	4.617	0.495
166.000	156.855	80.006	19.994	103.946	19.932	4.449	0.485
168.000	157.926	80.006	19.994	103.948	19.931	4.556	0.509
170.000	158.938	80.005	19.993	103.947	19.928	4.746	0.510
172.000	159.941	80.007	19.994	103.945	19.928	4.754	0.499
174.000	160.893	80.008	19.993	103.945	19.933	4.386	0.467
176.000	161.947	80.006	19.994	103.948	19.932	4.447	0.471
178.000	162.895	80.009	19.994	103.945	19.934	4.296	0.488
180.000	163.927	80.010	19.992	103.946	19.935	4.192	0.488
182.000	164.946	80.008	19.992	103.940	19.933	4.348	0.521
184.000	165.969	80.008	19.992	103.943	19.934	4.296	0.535
186.000	166.951	80.009	19.993	103.946	19.933	4.375	0.487
188.000	167.969	80.008	19.992	103.948	19.933	4.379	0.527
190.000	168.986	80.008	19.994	103.948	19.934	4.315	0.517
192.000	170.006	80.007	19.994	103.943	19.931	4.521	0.495
194.000	171.055	80.008	19.993	103.942	19.933	4.357	0.530
196.000	172.040	80.008	19.993	103.945	19.933	4.366	0.507
198.000	173.039	80.009	19.993	103.941	19.932	4.435	0.514
200.000	174.013	80.010	19.994	103.943	19.930	4.607	0.505
202.001	175.040	80.008	19.993	103.931	19.932	4.409	0.492
204.000	176.039	80.010	19.992	103.941	19.928	4.725	0.517
206.000	177.000	80.010	19.994	103.936	19.928	4.769	0.491
208.000	178.044	80.010	19.993	103.931	19.930	4.625	0.504
210.000	179.012	80.010	19.993	103.922	19.931	4.529	0.531
212.000	179.957	80.008	19.993	103.923	19.929	4.688	0.493
214.000	180.975	80.008	19.993	103.933	19.929	4.712	0.527
216.000	182.010	80.008	19.994	103.922	19.935	4.245	0.497
218.000	182.967	80.007	19.993	103.937	19.931	4.543	0.490
220.000	183.973	80.006	19.992	103.933	19.929	4.718	0.533
222.000	184.955	80.008	19.991	103.932	19.929	4.692	0.526
224.000	186.008	80.009	19.993	103.919	19.927	4.845	0.519
226.000	186.990	80.007	19.994	103.918	19.926	4.886	0.498
228.000	187.993	80.008	19.993	103.916	19.925	4.977	0.496
230.000	188.999	80.007	19.994	103.916	19.925	5.025	0.484
232.000	189.981	80.009	19.993	103.918	19.921	5.306	0.488
234.000	190.955	80.008	19.994	103.917	19.926	4.940	0.504
236.000	191.925	80.008	19.992	103.918	19.926	4.925	0.498
238.000	192.903	80.007	19.994	103.911	19.921	5.331	0.477
240.000	193.901	80.008	19.994	103.909	19.923	5.120	0.502
242.000	194.939	80.007	19.994	103.909	19.922	5.252	0.553
244.000	195.868	80.008	19.993	103.910	19.920	5.366	0.468
246.000	196.834	80.005	19.994	103.912	19.917	5.623	0.443
248.001	197.833	80.006	19.993	103.913	19.919	5.466	0.495
250.000	198.801	80.007	19.993	103.913	19.915	5.828	0.468
252.000	199.788	80.007	19.993	103.920	19.915	5.764	0.488
254.000	200.770	80.007	19.994	103.914	19.915	5.790	0.474
256.000	201.778	80.008	19.993	103.912	19.913	5.941	0.506
258.000	202.779	80.009	19.993	103.911	19.910	6.194	0.478
260.000	203.753	80.008	19.994	103.915	19.907	6.390	0.468
262.000	204.733	80.008	19.994	103.908	19.906	6.477	0.488
264.000	205.717	80.008	19.994	103.909	19.907	6.460	0.493
266.000	206.723	80.006	19.994	103.907	19.905	6.587	0.462
268.000	207.704	80.008	19.994	103.906	19.898	7.101	0.493
270.000	208.710	80.008	19.994	103.906	19.896	7.316	0.520
272.000	209.702	80.009	19.994	103.907	19.894	7.446	0.514
274.000	210.684	80.007	19.993	103.912	19.892	7.606	0.512
276.000	211.658	80.008	19.995	103.913	19.891	7.690	0.488
278.000	212.695	80.009	19.994	103.916	19.884	8.212	0.474
280.000	213.659	80.009	19.993	103.908	19.884	8.213	0.488
282.000	214.626	80.010	19.993	103.916	19.878	8.679	0.469
284.000	215.612	80.010	19.993	103.912	19.878	8.688	0.468
286.001	216.609	80.010	19.993	103.914	19.872	9.209	0.508
288.000	217.606	80.010	19.992	103.910	19.869	9.461	0.494
290.000	218.639	80.010	19.992	103.911	19.865	9.718	0.527
292.000	219.607	80.008	19.992	103.913	19.861	10.038	0.517
294.000	220.590	80.005	19.993	103.908	19.855	10.511	0.486
296.000	221.574	80.008	19.993	103.923	19.849	10.982	0.485
298.000	222.591	80.007	19.993	103.923	19.848	11.078	0.519
300.000	223.576	80.007	19.994	103.918	19.840	11.701	0.501
302.000	224.544	80.006	19.992	103.915	19.836	12.045	0.470
304.000	225.555	80.008	19.993	103.914	19.827	12.762	0.522
306.000	226.589	80.006	19.993	103.914	19.817	13.515	0.499
308.000	227.544	80.008	19.993	103.911	19.811	13.999	0.485
310.000	228.565	80.006	19.992	103.922	19.806	14.423	0.507
312.000	229.613	80.007	19.993	103.925	19.799	14.993	0.518
314.000	230.583	80.008	19.993	103.923	19.789	15.741	0.489
316.000	231.572	80.008	19.992	103.927	19.782	16.312	0.490
318.000	232.547	80.008	19.992	103.930	19.773	17.020	0.495
320.000	233.552	80.007	19.993	103.929	19.764	17.756	0.474
322.000	234.545	80.009	19.993	103.942	19.756	18.333	0.487
324.000	235.543	80.006	19.993	103.941	19.747	19.109	0.491
326.000	236.576	80.008	19.993	103.941	19.736	19.940	0.470
328.000	237.549	80.006	19.993	103.936	19.727	20.634	0.515
330.000	238.565	80.008	19.994	103.941	19.717	21.482	0.483
332.000	239.541	80.007	19.995	103.938	19.707	22.240	0.506
334.000	240.535	80.007	19.993	103.944	19.696	23.138	0.493
336.000	241.499	80.006	19.993	103.945	19.688	23.713	0.460
338.000	242.556	80.007	19.994	103.948	19.674	24.876	0.523
340.000	243.545	80.009	19.994	103.947	19.662	25.778	0.501
342.001	244.535	80.010	19.994	103.949	19.650	26.731	0.474
344.000	245.553	80.010	19.993	103.951	19.641	27.488	0.495
346.000	246.586	80.010	19.994	103.955	19.628	28.504	0.555
348.000	247.562	80.009	19.994	103.962	19.616	29.452	0.512
350.000	248.530	80.008	19.994	103.961	19.605	30.291	0.500
352.000	249.562	80.009	19.994	103.972	19.588	31.644	0.519
354.000	250.558	80.010	19.994	103.964	19.576	32.600	0.505
356.000	251.579	80.007	19.995	103.981	19.565	33.490	0.523
358.000	252.563	80.007	19.995	103.982	19.549	34.726	0.505
360.001	253.523	80.009	19.993	103.982	19.533	35.987	0.483
362.000	254.460	80.007	19.994	103.984	19.514	37.544	0.461
364.000	255.531	80.008	19.995	103.992	19.500	38.644	0.517
366.000	256.500	80.008	19.993	103.988	19.482	40.070	0.473
368.000	257.491	80.009	19.993	103.996	19.464	41.479	0.502
370.001	258.494	80.010	19.991	103.999	19.446	42.952	0.497
372.000	259.544	80.009	19.993	103.997	19.429	44.303	0.508
374.000	260.486	80.009	19.992	104.006	19.408	45.929	0.504
376.000	261.429	80.008	19.993	104.006	19.389	47.470	0.458
378.000	262.483	80.007	19.992	104.012	19.365	49.304	0.520
380.000	263.464	80.006	19.994	104.023	19.348	50.701	0.525
382.000	264.452	80.005	19.993	104.027	19.327	52.328	0.502
384.000	265.456	80.007	19.994	104.028	19.304	54.199	0.504
386.000	266.471	80.008	19.993	104.028	19.282	55.889	0.519
388.000	267.473	80.007	19.993	104.036	19.261	57.555	0.498
390.000	268.458	80.007	19.993	104.032	19.234	59.740	0.494
392.000	269.443	80.008	19.993	104.037	19.213	61.387	0.476
394.000	270.491	80.007	19.993	104.056	19.186	63.504	0.532
396.000	271.550	80.008	19.993	104.044	19.160	65.572	0.531
398.000	272.544	80.007	19.992	104.059	19.139	67.293	0.526
400.000	273.557	80.007	19.993	104.063	19.111	69.435	0.527
402.000	274.523	80.006	19.993	104.061	19.086	71.454	0.473
404.000	275.538	80.009	19.992	104.064	19.061	73.462	0.516
406.000	276.577	80.008	19.992	104.063	19.039	75.223	0.536
408.000	277.504	80.008	19.993	104.069	19.012	77.322	0.475
410.000	278.554	80.008	19.994	104.070	18.990	79.039	0.503
412.000	279.555	80.008	19.993	104.079	18.968	80.803	0.491
414.000	280.580	80.008	19.994	104.089	18.950	82.232	0.501
416.000	281.588	80.008	19.993	104.100	18.930	83.799	0.493
418.000	282.633	80.007	19.994	104.102	18.911	85.352	0.547
420.000	283.652	80.007	19.993	104.102	18.895	86.555	0.505
422.000	284.651	80.008	19.994	104.102	18.888	87.154	0.514
424.000	285.684	80.011	19.994	104.096	18.885	87.350	0.515
426.000	286.707	80.008	19.993	104.095	18.885	87.374	0.541
428.000	287.683	80.009	19.993	104.087	18.896	86.435	0.498
430.000	288.723	80.008	19.994	104.069	18.918	84.732	0.533
432.000	289.687	80.007	19.993	104.063	18.952	82.040	0.501
434.000	290.719	80.007	19.993	104.056	18.996	78.529	0.496
436.000	291.801	80.006	19.993	104.036	19.060	73.473	0.557
438.000	292.764	80.008	19.994	104.030	19.126	68.238	0.494
440.000	293.793	80.009	19.993	104.030	19.191	63.052	0.496
442.000	294.810	80.007	19.993	104.031	19.253	58.188	0.518
444.000	295.808	80.009	19.994	104.029	19.309	53.720	0.503
446.000	296.823	80.008	19.994	104.027	19.357	49.937	0.507
448.000	297.822	80.009	19.994	104.021	19.404	46.238	0.518
450.000	298.853	80.009	19.994	103.999	19.434	43.835	0.539
452.001	299.872	80.008	19.993	103.991	19.468	41.187	0.507
454.000	300.851	80.007	19.994	103.981	19.491	39.369	0.463
456.001	301.867	80.005	19.996	103.969	19.504	38.280	0.474
458.000	302.877	80.007	19.995	103.955	19.522	36.886	0.501
460.000	303.900	80.006	19.994	103.949	19.533	36.012	0.520
462.000	304.893	80.007	19.993	103.947	19.546	34.947	0.530
464.000	305.905	80.006	19.994	103.947	19.556	34.215	0.490
466.000	306.956	80.006	19.994	103.944	19.568	33.258	0.519
468.000	307.942	80.007	19.993	103.942	19.574	32.748	0.516
470.000	308.938	80.006	19.993	103.943	19.586	31.851	0.522
472.000	309.970	80.006	19.994	103.942	19.598	30.820	0.513
474.000	310.980	80.007	19.993	103.933	19.610	29.893	0.504
476.000	312.027	80.006	19.993	103.939	19.621	29.056	0.545
478.000	313.039	80.008	19.993	103.926	19.635	27.953	0.474
480.000	314.095	80.006	19.994	103.925	19.647	26.998	0.524
482.000	315.127	80.009	19.994	103.931	19.661	25.858	0.513
484.000	316.168	80.010	19.994	103.921	19.675	24.790	0.503
486.000	317.202	80.008	19.993	103.922	19.685	23.966	0.558
488.000	318.163	80.007	19.993	103.906	19.696	23.119	0.476
490.000	319.221	80.007	19.994	103.907	19.707	22.208	0.513
492.000	320.222	80.007	19.994	103.907	19.713	21.728	0.494
494.000	321.211	80.007	19.993	103.909	19.723	20.983	0.491
496.000	322.286	80.007	19.993	103.908	19.733	20.176	0.544
498.000	323.253	80.008	19.993	103.907	19.741	19.539	0.507
500.000	324.265	80.008	19.992	103.900	19.747	19.067	0.495
502.000	325.290	80.009	19.992	103.897	19.754	18.509	0.524
504.000	326.298	80.009	19.992	103.896	19.758	18.218	0.480
506.000	327.295	80.008	19.992	103.896	19.766	17.605	0.514
508.000	328.242	80.007	19.993	103.898	19.770	17.270	0.494
510.000	329.332	80.008	19.992	103.903	19.778	16.652	0.556
512.000	330.292	80.007	19.993	103.895	19.779	16.500	0.508
514.000	331.309	80.008	19.993	103.894	19.785	16.057	0.478
516.000	332.299	80.007	19.994	103.881	19.786	15.981	0.481
518.000	333.308	80.008	19.994	103.889	19.791	15.628	0.480
520.000	334.323	80.005	19.994	103.890	19.794	15.390	0.498
522.000	335.340	80.007	19.994	103.876	19.796	15.227	0.530
524.000	336.325	80.008	19.995	103.882	19.797	15.151	0.522
526.000	337.294	80.007	19.993	103.877	19.796	15.205	0.471
528.000	338.340	80.008	19.993	103.869	19.797	15.091	0.539
530.000	339.328	80.009	19.994	103.868	19.794	15.340	0.502
532.000	340.351	80.008	19.993	103.868	19.797	15.131	0.500
534.001	341.390	80.009	19.993	103.872	19.797	15.090	0.536
536.000	342.330	80.009	19.993	103.868	19.794	15.325	0.476
538.000	343.289	80.008	19.993	103.867	19.792	15.497	0.479
540.000	344.291	80.007	19.994	103.865	19.790	15.656	0.501
542.000	345.290	80.007	19.993	103.867	19.784	16.120	0.486
544.000	346.323	80.006	19.994	103.869	19.780	16.456	0.511
546.000	347.294	80.007	19.994	103.869	19.780	16.469	0.479
548.000	348.309	80.005	19.995	103.868	19.774	16.950	0.519
550.000	349.298	80.006	19.995	103.867	19.767	17.500	0.501
552.000	350.303	80.005	19.995	103.867	19.753	18.557	0.481
554.000	351.307	80.005	19.994	103.868	19.748	18.967	0.498
556.000	352.278	80.006	19.994	103.868	19.739	19.670	0.453
558.001	353.342	80.006	19.995	103.868	19.731	20.317	0.492
560.000	354.364	80.008	19.993	103.868	19.724	20.869	0.509
562.000	355.350	80.006	19.994	103.870	19.713	21.731	0.498
564.000	356.320	80.007	19.993	103.872	19.699	22.867	0.495
566.000	357.289	80.006	19.993	103.872	19.682	24.245	0.468
568.000	358.265	80.008	19.992	103.866	19.664	25.624	0.481
570.000	359.303	80.006	19.993	103.873	19.648	26.905	0.524
572.000	360.321	80.007	19.992	103.877	19.625	28.730	0.516
574.000	361.342	80.006	19.992	103.874	19.603	30.463	0.502
576.000	362.324	80.008	19.993	103.877	19.579	32.363	0.505
578.000	363.317	80.007	19.995	103.896	19.551	34.605	0.472
580.000	364.285	80.006	19.993	103.895	19.522	36.870	0.507
582.000	365.297	80.005	19.993	103.897	19.488	39.565	0.493
584.000	366.298	80.007	19.994	103.900	19.451	42.488	0.515
586.000	367.245	80.009	19.993	103.902	19.411	45.684	0.493
588.000	368.245	80.008	19.993	103.908	19.368	49.048	0.507
590.000	369.207	80.009	19.993	103.909	19.322	52.727	0.502
592.000	370.182	80.009	19.993	103.909	19.275	56.446	0.475
594.000	371.199	80.006	19.993	103.909	19.217	61.021	0.492
596.000	372.180	80.009	19.992	103.916	19.156	65.821	0.491
598.000	373.195	80.008	19.992	103.939	19.093	70.837	0.522
600.000	374.187	80.009	19.994	103.943	19.022	76.433	0.497
602.000	375.175	80.009	19.994	103.939	18.949	82.236	0.482
604.000	376.168	80.008	19.994	103.943	18.866	88.733	0.512
606.000	377.144	80.008	19.993	103.946	18.779	95.645	0.502
608.000	378.156	80.008	19.994	103.948	18.686	103.028	0.484
610.000	379.139	80.009	19.993	103.954	18.586	110.947	0.499
612.000	380.141	80.011	19.993	103.961	18.488	118.657	0.511
614.000	381.106	80.009	19.992	103.953	18.385	126.800	0.470
616.000	382.077	80.009	19.993	103.950	18.274	135.557	0.501
618.000	383.045	80.009	19.993	103.955	18.168	143.996	0.439
620.000	384.092	80.010	19.993	103.951	18.056	152.866	0.523
622.000	385.058	80.008	19.994	103.954	17.949	161.305	0.501
624.001	386.054	80.007	19.993	103.944	17.847	169.276	0.476
626.001	387.031	80.006	19.994	103.939	17.749	177.067	0.497
628.000	388.027	80.007	19.993	103.945	17.650	184.799	0.520
630.000	388.979	80.007	19.993	103.942	17.560	191.925	0.488
632.000	389.977	80.007	19.993	103.936	17.478	198.442	0.474
634.000	390.946	80.007	19.993	103.912	17.405	204.124	0.480
636.000	391.972	80.008	19.993	103.903	17.346	208.749	0.512
638.000	392.934	80.005	19.994	103.881	17.301	212.305	0.507
640.000	393.981	80.006	19.994	103.870	17.265	215.135	0.522
642.000	395.009	80.006	19.993	103.869	17.240	217.158	0.552
644.000	395.980	80.008	19.994	103.866	17.235	217.479	0.476
646.000	397.010	80.008	19.993	103.840	17.250	216.305	0.486
648.000	398.021	80.007	19.993	103.824	17.273	214.502	0.492
650.000	399.027	80.006	19.994	103.814	17.303	212.143	0.499
652.000	400.042	80.007	19.994	103.825	17.348	208.587	0.479
654.000	401.068	80.008	19.994	103.813	17.404	204.169	0.489
656.000	402.081	80.007	19.993	103.799	17.469	198.997	0.503
658.000	403.111	80.007	19.994	103.800	17.534	193.806	0.524
660.000	404.190	80.008	19.993	103.806	17.604	188.297	0.526
662.000	405.202	80.008	19.993	103.816	17.675	182.719	0.517
664.000	406.262	80.008	19.993	103.820	17.747	177.028	0.526
666.000	407.273	80.007	19.992	103.807	17.822	171.096	0.543
668.000	408.318	80.008	19.993	103.795	17.899	165.011	0.499
670.000	409.394	80.009	19.993	103.789	17.981	158.562	0.502
672.000	410.399	80.010	19.993	103.787	18.070	151.545	0.478
674.000	411.470	80.009	19.993	103.790	18.160	144.457	0.514
676.000	412.491	80.009	19.994	103.797	18.249	137.387	0.509
678.000	413.493	80.009	19.994	103.799	18.336	130.510	0.504
680.000	414.510	80.008	19.993	103.815	18.422	123.743	0.486
682.000	415.570	80.009	19.993	103.826	18.505	117.215	0.500
684.000	416.563	80.009	19.993	103.828	18.584	110.946	0.511
686.000	417.547	80.009	19.995	103.828	18.657	105.211	0.501
688.001	418.593	80.009	19.992	103.829	18.733	99.190	0.499
690.000	419.639	80.010	19.994	103.832	18.805	93.467	0.537
692.000	420.687	80.010	19.992	103.836	18.874	88.083	0.530
694.000	421.695	80.009	19.992	103.836	18.938	82.992	0.506
696.000	422.707	80.010	19.993	103.847	18.996	78.400	0.527
698.000	423.754	80.011	19.992	103.857	19.059	73.415	0.490
700.000	424.789	80.010	19.993	103.843	19.112	69.249	0.533
702.000	425.836	80.010	19.993	103.849	19.166	64.951	0.550
704.000	426.850	80.009	19.992	103.843	19.223	60.481	0.502
706.000	427.838	80.008	19.993	103.856	19.270	56.726	0.509
708.000	428.872	80.007	19.994	103.866	19.321	52.727	0.527
710.000	429.834	80.007	19.994	103.858	19.365	49.231	0.499
712.000	430.867	80.006	19.995	103.859	19.416	45.256	0.483
714.000	431.931	80.008	19.993	103.853	19.447	42.766	0.527
716.000	432.894	80.008	19.993	103.862	19.495	38.993	0.535
718.000	433.943	80.008	19.993	103.861	19.537	35.645	0.497
720.000	435.042	80.008	19.994	103.864	19.575	32.653	0.619
722.000	435.967	80.008	19.994	103.844	19.612	29.743	0.587
724.000	437.026	80.009	19.993	103.853	19.643	27.322	0.571
726.000	438.130	80.009	19.993	103.854	19.671	25.076	0.592
728.000	439.094	80.010	19.994	103.863	19.700	22.740	0.246
730.000	440.347	80.009	19.993	103.859	19.731	20.358	0.297
732.000	441.218	80.008	19.993	103.856	19.757	18.237	0.617
734.000	442.006	80.008	19.994	103.847	19.781	16.384	0.527
736.000	443.157	80.007	19.996	103.844	19.800	14.833	0.530
738.000	444.140	80.007	19.995	103.844	19.820	13.316	0.501
740.000	445.110	80.007	19.994	103.837	19.840	11.693	0.523
742.000	446.144	80.006	19.992	103.838	19.854	10.598	0.522
744.000	447.121	80.008	19.995	103.846	19.871	9.250	0.481
746.000	448.196	80.007	19.995	103.838	19.881	8.505	0.541
748.000	449.184	80.010	19.994	103.832	19.893	7.558	0.514
750.000	450.200	80.008	19.993	103.838	19.902	6.847	0.515
752.000	451.236	80.009	19.993	103.832	19.908	6.313	0.513
754.000	452.248	80.010	19.993	103.830	19.913	5.974	0.530
756.000	453.258	80.009	19.992	103.832	19.918	5.516	0.535
758.000	454.291	80.009	19.993	103.833	19.924	5.109	0.547
760.000	455.333	80.009	19.992	103.833	19.925	5.030	0.555
762.000	456.328	80.008	19.992	103.832	19.931	4.554	0.497
764.000	457.380	80.009	19.991	103.832	19.933	4.359	0.543
766.000	458.375	80.008	19.992	103.843	19.934	4.314	0.478
768.000	459.414	80.007	19.994	103.835	19.936	4.100	0.540
770.000	460.467	80.009	19.993	103.832	19.936	4.148	0.523
772.000	461.488	80.008	19.992	103.837	19.935	4.185	0.541
774.000	462.547	80.009	19.994	103.844	19.937	4.078	0.533
776.000	463.543	80.009	19.993	103.833	19.937	4.042	0.527
778.000	464.585	80.010	19.992	103.840	19.937	4.041	0.504
780.000	465.609	80.009	19.991	103.832	19.938	3.947	0.524
782.000	466.630	80.010	19.992	103.833	19.940	3.782	0.526
784.000	467.699	80.010	19.991	103.832	19.940	3.804	0.546
786.000	468.686	80.010	19.995	103.843	19.937	4.082	0.501
788.000	469.699	80.008	19.994	103.838	19.939	3.873	0.496
790.000	470.811	80.007	19.992	103.828	19.940	3.828	0.524
792.000	471.798	80.007	19.992	103.828	19.942	3.618	0.516
794.000	472.890	80.009	19.992	103.835	19.945	3.407	0.557
796.000	473.930	80.009	19.994	103.838	19.943	3.551	0.526
798.000	475.049	80.007	19.993	103.831	19.946	3.357	0.569
800.000	475.999	80.008	19.992	103.830	19.943	3.560	0.506
802.000	477.098	80.007	19.994	103.829	19.944	3.525	0.529
804.000	478.111	80.008	19.994	103.828	19.945	3.435	0.532
806.000	479.155	80.009	19.995	103.829	19.945	3.425	0.553
808.000	480.158	80.008	19.995	103.827	19.945	3.403	0.510
810.000	481.250	80.008	19.994	103.828	19.947	3.287	0.547
812.000	482.270	80.008	19.992	103.828	19.946	3.355	0.512
814.000	483.355	80.008	19.993	103.828	19.946	3.344	0.526
816.000	484.336	80.008	19.995	103.828	19.945	3.436	0.502
818.000	485.399	80.007	19.995	103.830	19.946	3.372	0.536
820.000	486.425	80.008	19.994	103.830	19.945	3.416	0.502
822.000	487.452	80.006	19.994	103.829	19.945	3.394	0.537
824.000	488.489	80.006	19.995	103.832	19.945	3.394	0.501
826.000	489.556	80.007	19.994	103.831	19.951	2.946	0.555
828.000	490.554	80.007	19.994	103.832	19.951	2.941	0.517
830.000	491.625	80.007	19.995	103.831	19.950	3.013	0.524
832.000	492.685	80.007	19.993	103.829	19.948	3.163	0.546
834.000	493.617	80.008	19.993	103.825	19.950	3.050	0.492
836.000	494.708	80.008	19.993	103.833	19.943	3.566	0.516
838.000	495.800	80.008	19.994	103.841	19.946	3.344	0.546
840.000	496.825	80.008	19.993	103.822	19.947	3.222	0.534
842.000	497.900	80.009	19.994	103.830	19.949	3.104	0.543
844.000	498.884	80.008	19.993	103.829	19.949	3.120	0.496
846.000	499.909	80.008	19.992	103.831	19.950	3.002	0.495
848.000	500.947	80.008	19.995	103.828	19.951	2.910	0.515
850.000	501.905	80.008	19.992	103.832	19.949	3.122	0.478
852.000	502.942	80.010	19.991	103.832	19.949	3.115	0.518
854.000	503.964	80.011	19.993	103.832	19.951	2.928	0.499
856.000	504.962	80.010	19.992	103.832	19.950	3.048	0.491
858.000	506.004	80.010	19.993	103.830	19.948	3.202	0.520
860.000	507.009	80.011	19.992	103.827	19.949	3.098	0.511
862.000	508.044	80.011	19.994	103.825	19.949	3.063	0.529
864.000	509.067	80.011	19.994	103.827	19.950	3.019	0.512
866.000	510.109	80.011	19.993	103.827	19.949	3.137	0.530
868.000	511.124	80.009	19.993	103.828	19.950	2.987	0.543
870.000	512.093	80.007	19.991	103.831	19.947	3.266	0.480
872.000	513.131	80.008	19.994	103.832	19.948	3.146	0.509
874.000	514.184	80.009	19.993	103.828	19.947	3.220	0.526
876.000	515.197	80.008	19.994	103.827	19.951	2.954	0.527
878.000	516.218	80.008	19.994	103.830	19.949	3.076	0.526
880.000	517.236	80.009	19.993	103.830	19.949	3.074	0.494
882.000	518.280	80.009	19.993	103.833	19.952	2.876	0.508
884.000	519.274	80.009	19.992	103.828	19.948	3.141	0.520
886.000	520.297	80.009	19.993	103.829	19.949	3.083	0.503
888.000	521.323	80.009	19.992	103.831	19.947	3.237	0.480
890.001	522.323	80.009	19.993	103.825	19.946	3.355	0.531
892.000	523.347	80.008	19.992	103.831	19.946	3.357	0.523
894.001	524.346	80.008	19.994	103.828	19.949	3.104	0.514
896.000	525.359	80.009	19.993	103.830	19.949	3.100	0.521
898.000	526.362	80.008	19.993	103.830	19.951	2.952	0.518
900.000	527.330	80.007	19.994	103.829	19.949	3.120	0.501
902.000	528.366	80.007	19.993	103.830	19.953	2.795	0.528
904.000	529.319	80.007	19.994	103.832	19.951	2.972	0.471
906.000	530.334	80.007	19.993	103.828	19.953	2.795	0.504
908.000	531.348	80.007	19.994	103.832	19.957	2.492	0.494
910.000	532.357	80.007	19.993	103.832	19.947	3.283	0.521
912.000	533.374	80.008	19.994	103.836	19.944	3.468	0.532
914.000	534.407	80.007	19.994	103.834	19.947	3.279	0.503
916.000	535.457	80.010	19.993	103.838	19.950	3.011	0.513
918.000	536.512	80.010	19.994	103.829	19.946	3.331	0.564
920.000	537.497	80.011	19.993	103.827	19.949	3.076	0.492
922.000	538.517	80.009	19.994	103.831	19.947	3.222	0.490
924.000	539.596	80.009	19.993	103.830	19.951	2.913	0.539
926.001	540.605	80.009	19.994	103.829	19.943	3.569	0.497
928.000	541.714	80.008	19.993	103.828	19.946	3.353	0.561
930.000	542.722	80.007	19.995	103.827	19.949	3.128	0.506
932.000	543.805	80.009	19.994	103.828	19.949	3.065	0.529
934.000	544.822	80.010	19.994	103.826	19.944	3.514	0.497
936.000	545.875	80.009	19.995	103.830	19.948	3.183	0.491
938.000	546.965	80.010	19.993	103.831	19.947	3.231	0.529
940.000	547.983	80.010	19.994	103.825	19.949	3.085	0.513
942.000	549.029	80.010	19.993	103.826	19.949	3.078	0.516
944.000	550.102	80.011	19.994	103.826	19.947	3.228	0.549
946.000	551.109	80.010	19.992	103.826	19.949	3.115	0.484
948.000	552.125	80.010	19.993	103.828	19.946	3.340	0.476
950.000	553.229	80.009	19.992	103.828	19.950	3.048	0.528
952.000	554.265	80.008	19.992	103.829	19.948	3.215	0.535
954.000	555.352	80.008	19.992	103.829	19.947	3.224	0.532
956.000	556.403	80.007	19.993	103.830	19.947	3.248	0.516
958.001	557.407	80.006	19.993	103.831	19.950	3.043	0.495
960.000	558.480	80.006	19.993	103.828	19.951	2.954	0.531
962.000	559.521	80.007	19.993	103.828	19.951	2.963	0.526
964.000	560.591	80.007	19.993	103.830	19.951	2.961	0.537
966.000	561.630	80.007	19.993	103.830	19.951	2.923	0.544
968.000	562.675	80.005	19.992	103.830	19.953	2.777	0.490
970.000	563.710	80.008	19.994	103.828	19.951	2.965	0.500
972.000	564.713	80.007	19.992	103.824	19.952	2.899	0.496
974.000	565.832	80.007	19.992	103.830	19.948	3.162	0.540
976.000	566.833	80.007	19.993	103.825	19.951	2.906	0.494
978.000	567.865	80.009	19.993	103.821	19.950	3.058	0.514
980.000	568.857	80.008	19.993	103.818	19.948	3.139	0.535
982.000	569.913	80.008	19.992	103.815	19.951	2.947	0.500
984.001	570.943	80.008	19.993	103.805	19.951	2.950	0.514
986.000	571.973	80.010	19.993	103.809	19.948	3.174	0.515
988.000	572.957	80.006	19.993	103.822	19.950	2.997	0.507
990.000	573.963	80.008	19.992	103.829	19.949	3.074	0.493
992.000	575.036	80.007	19.994	103.823	19.946	3.313	0.514
994.000	576.044	80.008	19.992	103.823	19.947	3.255	0.501
996.000	577.064	80.006	19.994	103.824	19.950	3.019	0.505
998.000	578.068	80.008	19.994	103.830	19.952	2.889	0.494
1000.000	579.080	80.010	19.995	103.824	19.946	3.355	0.509
1002.001	580.087	80.010	19.994	103.829	19.946	3.343	0.528
1004.000	581.113	80.008	19.993	103.828	19.947	3.250	0.507
1006.000	582.120	80.009	19.994	103.827	19.946	3.322	0.524
1008.000	583.085	80.010	19.994	103.827	19.948	3.182	0.505
1010.000	584.092	80.008	19.993	103.826	19.946	3.355	0.462
1012.000	585.082	80.010	19.993	103.815	19.947	3.237	0.483
1014.000	586.084	80.008	19.994	103.823	19.945	3.424	0.498
1016.000	587.082	80.008	19.993	103.829	19.945	3.398	0.510
1018.000	588.116	80.008	19.994	103.819	19.945	3.407	0.503
1020.000	589.107	80.009	19.993	103.814	19.950	3.052	0.499
1022.000	590.137	80.009	19.994	103.828	19.949	3.137	0.522
1024.000	591.107	80.009	19.993	103.828	19.949	3.075	0.496
1026.001	592.116	80.011	19.994	103.825	19.947	3.222	0.503
1028.001	593.116	80.010	19.993	103.825	19.947	3.272	0.507
1030.000	594.106	80.010	19.993	103.813	19.948	3.150	0.522
1032.000	595.133	80.008	19.994	103.826	19.946	3.363	0.480
1034.000	596.172	80.009	19.994	103.817	19.949	3.078	0.505
1036.000	597.182	80.006	19.994	103.820	19.950	3.017	0.517
1038.000	598.215	80.006	19.993	103.830	19.950	3.037	0.488
1040.000	599.211	80.006	19.994	103.829	19.951	2.921	0.501
1042.001	600.210	80.007	19.992	103.830	19.953	2.806	0.491
1044.000	601.256	80.008	19.993	103.813	19.950	3.048	0.506
1046.000	602.234	80.007	19.993	103.824	19.950	3.011	0.473
1048.001	603.255	80.008	19.993	103.826	19.950	3.011	0.551
1050.000	604.244	80.007	19.993	103.822	19.948	3.191	0.508
1052.000	605.286	80.006	19.993	103.812	19.949	3.095	0.504
1054.001	606.287	80.007	19.993	103.825	19.951	2.960	0.487
1056.000	607.303	80.008	19.993	103.825	19.951	2.947	0.502
1058.001	608.314	80.008	19.994	103.828	19.949	3.127	0.475
1060.000	609.352	80.009	19.993	103.816	19.952	2.892	0.532
1062.000	610.337	80.008	19.994	103.815	19.947	3.237	0.506
1064.000	611.384	80.009	19.994	103.804	19.947	3.233	0.549
1066.001	612.394	80.007	19.993	103.805	19.945	3.396	0.512
1068.000	613.428	80.008	19.994	103.811	19.947	3.237	0.501
1070.001	614.479	80.009	19.993	103.800	19.945	3.409	0.535
1072.001	615.493	80.007	19.992	103.810	19.946	3.320	0.530
1074.000	616.508	80.008	19.993	103.822	19.948	3.156	0.523
1076.000	617.529	80.008	19.993	103.818	19.946	3.337	0.502
1078.000	618.552	80.009	19.992	103.817	19.945	3.398	0.500
1080.000	619.553	80.009	19.993	103.823	19.945	3.438	0.500
1082.001	620.581	80.010	19.991	103.820	19.948	3.139	0.507
1084.000	621.606	80.010	19.992	103.815	19.947	3.233	0.508
1086.000	622.637	80.010	19.992	103.824	19.950	3.028	0.507
1088.001	623.666	80.008	19.993	103.826	19.950	2.991	0.543
1090.001	624.646	80.008	19.993	103.823	19.950	3.030	0.487
1092.000	625.672	80.008	19.994	103.825	19.946	3.370	0.498
1094.000	626.682	80.008	19.993	103.819	19.949	3.108	0.520
1096.000	627.731	80.008	19.993	103.813	19.946	3.374	0.516
1098.001	628.737	80.007	19.994	103.817	19.949	3.078	0.486
1100.000	629.758	80.008	19.994	103.819	19.949	3.137	0.502
1102.000	630.789	80.009	19.994	103.814	19.948	3.152	0.494
1104.001	631.824	80.008	19.992	103.824	19.947	3.248	0.514
1106.000	632.786	80.009	19.992	103.820	19.949	3.067	0.502
1108.000	633.837	80.009	19.992	103.822	19.946	3.307	0.488
1110.001	634.864	80.008	19.992	103.828	19.948	3.200	0.528
1112.000	635.932	80.011	19.994	103.828	19.950	3.026	0.525
1114.000	636.912	80.008	19.995	103.828	19.945	3.431	0.513
1116.000	637.915	80.008	19.993	103.819	19.949	3.091	0.518
1118.000	638.912	80.007	19.994	103.824	19.951	2.943	0.501
1120.000	639.913	80.007	19.994	103.822	19.950	2.993	0.458
1122.000	640.989	80.008	19.994	103.816	19.950	3.004	0.535
1124.000	641.977	80.006	19.995	103.818	19.948	3.141	0.473
1126.000	643.021	80.007	19.994	103.826	19.950	3.021	0.512
1128.000	644.008	80.009	19.994	103.821	19.947	3.257	0.498
1130.001	645.034	80.006	19.994	103.824	19.950	3.039	0.517
1132.000	646.096	80.006	19.993	103.823	19.948	3.146	0.481
1134.000	647.109	80.008	19.994	103.825	19.946	3.357	0.517
1136.000	648.193	80.007	19.994	103.822	19.943	3.540	0.530
1138.000	649.243	80.009	19.992	103.827	19.941	3.697	0.524
1140.000	650.270	80.010	19.994	103.825	19.943	3.566	0.529
1142.000	651.369	80.009	19.993	103.829	19.944	3.490	0.514
1144.000	652.425	80.008	19.993	103.826	19.944	3.486	0.560
1146.000	653.485	80.005	19.993	103.827	19.944	3.507	0.556
1148.000	654.534	80.008	19.993	103.826	19.944	3.520	0.532
1150.000	655.647	80.007	19.993	103.828	19.945	3.401	0.563
1152.000	656.646	80.007	19.993	103.823	19.945	3.438	0.520
1154.000	657.741	80.007	19.994	103.831	19.940	3.810	0.516
1156.000	658.793	80.008	19.992	103.833	19.946	3.355	0.518
1158.000	659.997	80.008	19.993	103.820	19.946	3.320	0.547
1160.000	660.976	80.007	19.994	103.828	19.944	3.529	0.479
1162.000	662.010	80.007	19.993	103.831	19.946	3.359	0.524
1164.000	663.121	80.010	19.993	103.827	19.944	3.501	0.517
1166.000	664.193	80.009	19.992	103.830	19.947	3.229	0.543
1168.001	665.195	80.010	19.993	103.822	19.945	3.427	0.531
1170.000	666.283	80.008	19.991	103.828	19.946	3.313	0.548
1172.000	667.351	80.007	19.992	103.831	19.946	3.313	0.543
1174.000	668.402	80.008	19.992	103.832	19.944	3.483	0.509
1176.000	669.429	80.010	19.993	103.832	19.948	3.163	0.501
1178.000	670.469	80.010	19.992	103.831	19.943	3.566	0.497
1180.000	671.572	80.010	19.993	103.822	19.945	3.405	0.500
1182.000	672.569	80.008	19.994	103.828	19.945	3.398	0.515
1184.000	673.611	80.010	19.993	103.826	19.943	3.577	0.533
1186.000	674.668	80.006	19.994	103.826	19.948	3.176	0.522
1188.001	675.720	80.010	19.993	103.826	19.944	3.474	0.517
1190.001	676.780	80.007	19.994	103.823	19.941	3.755	0.531
1192.000	677.844	80.009	19.993	103.824	19.945	3.389	0.518
1194.000	678.817	80.010	19.993	103.817	19.944	3.478	0.485
1196.000	679.837	80.010	19.994	103.817	19.944	3.457	0.498
1198.000	680.872	80.008	19.993	103.824	19.941	3.720	0.495
1200.000	681.901	80.009	19.994	103.816	19.943	3.541	0.498
1202.000	682.932	80.010	19.993	103.810	19.941	3.746	0.541
1204.000	683.951	80.009	19.994	103.812	19.940	3.831	0.504
1206.000	684.950	80.006	19.994	103.812	19.947	3.295	0.512
1208.001	685.991	80.007	19.993	103.810	19.944	3.454	0.500
1210.000	686.960	80.009	19.993	103.796	19.944	3.524	0.499
1212.001	687.976	80.009	19.994	103.792	19.942	3.626	0.538
1214.000	688.972	80.006	19.994	103.793	19.943	3.545	0.508
1216.001	689.943	80.008	19.994	103.796	19.947	3.295	0.485
1218.000	690.945	80.009	19.994	103.805	19.944	3.506	0.469
1220.000	691.956	80.009	19.994	103.796	19.942	3.689	0.502
1222.000	692.954	80.008	19.994	103.796	19.944	3.456	0.460
1224.001	693.892	80.009	19.994	103.792	19.948	3.204	0.468
1226.001	694.866	80.009	19.993	103.801	19.946	3.363	0.499
1228.000	695.827	80.008	19.993	103.793	19.948	3.154	0.479
1230.001	696.818	80.009	19.993	103.791	19.947	3.286	0.478
1232.001	697.793	80.009	19.993	103.792	19.947	3.269	0.464
1234.000	698.775	80.008	19.993	103.797	19.946	3.330	0.497
1236.000	699.753	80.007	19.994	103.794	19.949	3.094	0.496
1238.000	700.739	80.008	19.995	103.807	19.946	3.302	0.505
1240.000	701.708	80.007	19.993	103.804	19.949	3.134	0.465
1242.001	702.752	80.008	19.994	103.802	19.944	3.458	0.511
1244.000	703.717	80.009	19.993	103.805	19.947	3.247	0.494
1246.000	704.701	80.009	19.993	103.792	19.945	3.419	0.502
1248.000	705.709	80.010	19.994	103.802	19.947	3.278	0.492
1250.000	706.750	80.011	19.994	103.801	19.946	3.317	0.518
1252.000	707.769	80.011	19.993	103.789	19.947	3.275	0.522
1254.000	708.805	80.010	19.993	103.792	19.948	3.186	0.518
1256.001	709.817	80.010	19.993	103.792	19.943	3.536	0.548
1258.000	710.832	80.008	19.994	103.801	19.942	3.613	0.530
1260.000	711.905	80.009	19.994	103.802	19.945	3.419	0.526
1262.000	712.949	80.009	19.993	103.790	19.942	3.639	0.543
1264.001	713.966	80.010	19.994	103.797	19.939	3.920	0.487
1266.000	715.025	80.010	19.994	103.788	19.938	3.952	0.529
1268.000	716.008	80.009	19.992	103.788	19.938	3.955	0.515
1270.000	717.061	80.009	19.993	103.789	19.941	3.715	0.507
1272.000	718.032	80.007	19.993	103.788	19.941	3.735	0.485
1274.000	719.098	80.011	19.991	103.792	19.943	3.606	0.540
1276.000	720.126	80.009	19.993	103.788	19.943	3.602	0.516
1278.000	721.155	80.011	19.993	103.796	19.941	3.705	0.525
1280.000	722.221	80.010	19.992	103.797	19.944	3.511	0.513
1282.000	723.256	80.010	19.993	103.790	19.943	3.595	0.523
1284.000	724.318	80.007	19.993	103.791	19.942	3.628	0.502
1286.000	725.374	80.007	19.994	103.792	19.944	3.508	0.520
1288.000	726.459	80.009	19.994	103.797	19.942	3.646	0.529
1290.000	727.495	80.006	19.993	103.799	19.941	3.720	0.520
1292.000	728.556	80.007	19.993	103.791	19.941	3.709	0.519
1294.000	729.620	80.008	19.994	103.791	19.941	3.702	0.532
1296.001	730.655	80.007	19.993	103.795	19.940	3.824	0.523
1298.000	731.720	80.009	19.992	103.797	19.939	3.863	0.536
1300.000	732.758	80.008	19.993	103.797	19.941	3.763	0.538
1302.000	733.785	80.008	19.993	103.798	19.941	3.765	0.508
1304.001	734.808	80.008	19.994	103.793	19.940	3.772	0.516
1306.000	735.817	80.007	19.993	103.793	19.937	4.022	0.467
1308.001	736.845	80.008	19.993	103.799	19.942	3.648	0.518
1310.001	737.892	80.011	19.995	103.791	19.944	3.499	0.543
1312.000	738.910	80.006	19.993	103.791	19.940	3.822	0.498
1314.000	739.949	80.009	19.995	103.792	19.942	3.624	0.491
1316.001	740.968	80.007	19.994	103.789	19.940	3.826	0.554
1318.000	741.978	80.006	19.995	103.790	19.937	4.007	0.536
1320.000	743.001	80.008	19.994	103.790	19.946	3.323	0.495
1321.001	743.475	80.008	19.994	103.790	19.942	3.630	0.507