File: 01_Data/PE_Batting_82B/MCC/PE_Batting_82B_MCC_30K_min_220309_R1.txt
Sample ID:	C:\MCC\MCC Cal\Test\PE_batting_82B_MCC_30K_min_220309_R1.txt
Sample Weight (mg):	4.13
Heating Rate (C/s):	0.5
Combustor Temp (C):	900
N2 Flow Rate (cc/min):	80
O2 Flow Rate (cc/min):	20
Calibration File:	C:\MCC\MCC Cal\Coeff1 JN10440_30_210304.txt.txt
T Correction Coefficients:	0	1.024463	0
Time Shift (s):	14
*
Time (s)	Temperature (C)	N2 flow rate (cc/min)	O2 flow rate (cc/min)	Flow Rate (cc/min)	Oxygen (%)	HRR (W/g)	Heating rate (C/s)
0.000	108.117	80.004	19.993	103.688	20.079	-0.266	0.010
2.000	108.140	80.003	19.994	103.688	20.076	-0.004	0.007
4.000	108.156	80.004	19.993	103.678	20.080	-0.298	0.013
6.000	108.146	80.004	19.994	103.687	20.079	-0.285	0.019
8.000	108.149	80.003	19.993	103.691	20.082	-0.519	-0.019
9.999	108.057	80.005	19.994	103.699	20.080	-0.318	0.022
11.999	108.112	80.005	19.995	103.714	20.073	0.227	0.001
13.999	108.121	80.005	19.994	103.721	20.074	0.173	0.005
15.999	108.098	80.005	19.993	103.718	20.074	0.128	-0.012
17.999	108.166	80.005	19.993	103.723	20.069	0.543	0.027
20.000	108.212	80.008	19.993	103.763	20.067	0.669	0.019
21.999	108.254	80.007	19.994	103.810	20.061	1.168	0.024
24.000	108.394	80.007	19.993	103.841	20.052	1.884	0.038
25.999	108.452	80.007	19.993	103.879	20.046	2.326	0.057
27.999	108.612	80.005	19.993	103.896	20.045	2.430	0.064
29.999	108.871	80.006	19.993	103.884	20.042	2.635	0.166
31.999	109.045	80.004	19.992	103.882	20.043	2.542	0.131
34.000	109.368	80.004	19.994	103.877	20.045	2.439	0.173
36.000	109.584	80.006	19.993	103.872	20.043	2.601	0.141
37.999	109.906	80.006	19.994	103.872	20.046	2.363	0.137
40.000	110.217	80.005	19.994	103.871	20.045	2.392	0.146
41.999	110.567	80.005	19.994	103.871	20.040	2.807	0.154
43.999	110.903	80.007	19.993	103.880	20.042	2.649	0.176
45.999	111.290	80.007	19.993	103.889	20.041	2.711	0.182
48.000	111.681	80.007	19.993	103.901	20.044	2.469	0.157
49.999	112.081	80.007	19.994	103.903	20.040	2.832	0.201
51.999	112.575	80.006	19.994	103.901	20.040	2.818	0.243
53.999	113.050	80.005	19.993	103.900	20.045	2.454	0.219
55.999	113.504	80.004	19.993	103.883	20.043	2.541	0.245
57.999	114.006	80.004	19.994	103.874	20.043	2.591	0.258
59.999	114.440	80.004	19.994	103.880	20.046	2.360	0.224
61.999	114.971	80.004	19.994	103.893	20.042	2.667	0.254
63.999	115.495	80.005	19.994	103.897	20.040	2.784	0.246
65.999	116.045	80.004	19.995	103.909	20.040	2.814	0.314
67.999	116.584	80.004	19.996	103.908	20.039	2.860	0.259
69.999	117.162	80.004	19.995	103.922	20.038	2.999	0.275
72.000	117.764	80.004	19.993	103.926	20.036	3.165	0.296
74.000	118.393	80.006	19.994	103.937	20.035	3.226	0.311
75.999	119.009	80.006	19.994	103.937	20.038	3.005	0.340
77.999	119.646	80.006	19.992	103.930	20.036	3.107	0.321
79.999	120.306	80.006	19.993	103.943	20.033	3.360	0.343
81.999	120.988	80.006	19.994	103.952	20.033	3.399	0.334
83.999	121.705	80.005	19.994	103.949	20.033	3.324	0.358
85.999	122.412	80.005	19.993	103.942	20.033	3.334	0.380
87.999	123.132	80.005	19.994	103.943	20.034	3.274	0.374
89.999	123.898	80.005	19.994	103.949	20.030	3.579	0.401
91.999	124.670	80.003	19.993	103.949	20.032	3.460	0.404
93.999	125.374	80.003	19.994	103.956	20.034	3.313	0.369
95.999	126.183	80.005	19.995	103.952	20.031	3.516	0.393
97.999	126.972	80.005	19.994	103.956	20.033	3.330	0.404
100.000	127.765	80.005	19.994	103.950	20.032	3.414	0.389
101.999	128.618	80.006	19.994	103.951	20.029	3.683	0.463
103.999	129.453	80.006	19.994	103.951	20.031	3.542	0.433
106.000	130.302	80.008	19.993	103.953	20.031	3.497	0.455
107.999	131.159	80.006	19.993	103.952	20.027	3.798	0.431
109.999	132.030	80.006	19.994	103.952	20.033	3.341	0.430
112.000	132.914	80.006	19.993	103.951	20.033	3.402	0.456
113.999	133.777	80.004	19.993	103.954	20.031	3.514	0.432
115.999	134.665	80.005	19.993	103.954	20.030	3.566	0.449
117.999	135.570	80.005	19.992	103.967	20.031	3.488	0.432
119.999	136.478	80.005	19.993	103.969	20.031	3.514	0.430
122.000	137.431	80.006	19.994	103.962	20.034	3.265	0.470
123.999	138.372	80.007	19.993	103.955	20.030	3.596	0.443
125.999	139.372	80.007	19.994	103.962	20.029	3.681	0.511
127.999	140.304	80.008	19.994	103.954	20.031	3.553	0.477
130.000	141.244	80.007	19.994	103.957	20.029	3.709	0.444
132.000	142.218	80.007	19.994	103.950	20.032	3.460	0.478
134.000	143.211	80.007	19.994	103.948	20.030	3.627	0.492
136.000	144.200	80.006	19.993	103.947	20.031	3.507	0.491
138.000	145.187	80.005	19.993	103.949	20.029	3.653	0.471
140.000	146.162	80.005	19.993	103.949	20.030	3.581	0.500
142.000	147.174	80.006	19.994	103.947	20.030	3.620	0.505
144.000	148.162	80.004	19.994	103.948	20.032	3.458	0.491
146.000	149.191	80.005	19.993	103.949	20.034	3.295	0.496
148.000	150.244	80.005	19.993	103.947	20.034	3.245	0.513
150.000	151.227	80.005	19.993	103.945	20.029	3.642	0.506
152.000	152.270	80.005	19.993	103.947	20.032	3.408	0.533
154.000	153.268	80.004	19.994	103.950	20.037	3.048	0.505
156.000	154.286	80.004	19.994	103.941	20.034	3.271	0.510
158.000	155.297	80.004	19.995	103.947	20.036	3.158	0.530
160.000	156.303	80.004	19.995	103.948	20.034	3.269	0.512
162.000	157.324	80.004	19.993	103.940	20.036	3.095	0.498
164.000	158.365	80.004	19.994	103.937	20.033	3.374	0.518
166.000	159.360	80.005	19.996	103.944	20.034	3.275	0.502
168.000	160.421	80.005	19.994	103.926	20.035	3.225	0.554
170.000	161.415	80.003	19.995	103.928	20.037	3.060	0.506
172.000	162.458	80.003	19.993	103.923	20.036	3.119	0.533
174.000	163.408	80.004	19.994	103.924	20.034	3.312	0.507
176.000	164.500	80.005	19.995	103.924	20.037	3.034	0.526
178.000	165.520	80.006	19.994	103.932	20.033	3.331	0.511
180.000	166.554	80.007	19.994	103.921	20.035	3.210	0.507
182.000	167.554	80.006	19.993	103.919	20.037	3.030	0.531
184.000	168.567	80.005	19.993	103.920	20.033	3.329	0.495
186.000	169.599	80.006	19.995	103.913	20.037	3.056	0.517
188.000	170.596	80.004	19.993	103.912	20.032	3.433	0.520
190.000	171.605	80.006	19.995	103.924	20.034	3.305	0.489
192.000	172.624	80.006	19.992	103.909	20.035	3.186	0.532
194.000	173.599	80.005	19.994	103.909	20.035	3.168	0.485
196.000	174.637	80.006	19.993	103.907	20.037	3.019	0.509
198.000	175.616	80.006	19.994	103.914	20.034	3.305	0.475
200.000	176.661	80.006	19.994	103.911	20.035	3.179	0.498
202.000	177.619	80.006	19.993	103.910	20.034	3.257	0.518
204.000	178.646	80.007	19.993	103.906	20.037	3.086	0.511
206.000	179.663	80.007	19.993	103.904	20.036	3.140	0.529
208.000	180.657	80.007	19.993	103.908	20.035	3.236	0.500
210.000	181.643	80.008	19.994	103.909	20.038	3.002	0.516
212.000	182.650	80.007	19.991	103.906	20.035	3.227	0.499
214.000	183.637	80.007	19.995	103.906	20.035	3.168	0.527
216.000	184.636	80.007	19.994	103.905	20.034	3.259	0.504
218.000	185.620	80.007	19.993	103.903	20.037	3.025	0.521
220.000	186.649	80.005	19.993	103.909	20.033	3.387	0.527
222.000	187.668	80.005	19.994	103.900	20.034	3.313	0.517
224.000	188.687	80.004	19.994	103.908	20.036	3.123	0.510
226.000	189.689	80.005	19.993	103.905	20.034	3.277	0.513
228.000	190.699	80.003	19.994	103.898	20.032	3.456	0.519
230.000	191.670	80.005	19.994	103.900	20.031	3.551	0.512
232.000	192.673	80.004	19.993	103.901	20.030	3.560	0.453
234.000	193.622	80.005	19.994	103.884	20.030	3.558	0.460
236.000	194.616	80.004	19.994	103.901	20.030	3.573	0.488
238.000	195.613	80.006	19.994	103.904	20.026	3.873	0.505
240.000	196.604	80.004	19.994	103.902	20.029	3.701	0.458
242.000	197.626	80.004	19.993	103.907	20.027	3.828	0.499
244.000	198.568	80.006	19.993	103.894	20.026	3.886	0.502
246.000	199.593	80.004	19.995	103.901	20.026	3.918	0.488
248.000	200.516	80.002	19.994	103.893	20.024	4.088	0.418
250.000	201.538	80.003	19.995	103.900	20.023	4.107	0.494
252.000	202.468	80.004	19.995	103.900	20.020	4.382	0.439
254.000	203.534	80.004	19.996	103.896	20.017	4.607	0.485
256.000	204.494	80.003	19.995	103.877	20.017	4.594	0.467
258.000	205.513	80.003	19.994	103.878	20.015	4.755	0.481
260.000	206.509	80.004	19.994	103.894	20.013	4.897	0.511
262.000	207.455	80.004	19.994	103.890	20.010	5.160	0.466
264.000	208.489	80.004	19.994	103.885	20.010	5.157	0.524
266.000	209.462	80.005	19.992	103.893	20.009	5.257	0.500
268.000	210.435	80.006	19.994	103.900	20.007	5.430	0.495
270.000	211.460	80.006	19.994	103.900	20.005	5.531	0.489
272.000	212.436	80.005	19.992	103.894	20.002	5.789	0.498
274.000	213.434	80.007	19.994	103.896	19.999	5.992	0.505
276.000	214.411	80.005	19.993	103.892	19.997	6.211	0.495
278.000	215.415	80.006	19.993	103.904	19.993	6.527	0.507
280.000	216.367	80.006	19.994	103.896	19.991	6.653	0.490
282.000	217.364	80.007	19.994	103.891	19.987	6.945	0.516
284.000	218.359	80.006	19.993	103.904	19.983	7.266	0.498
286.000	219.384	80.007	19.994	103.895	19.977	7.779	0.480
288.000	220.339	80.007	19.993	103.898	19.974	7.994	0.490
290.000	221.357	80.006	19.993	103.910	19.967	8.507	0.502
292.000	222.325	80.007	19.993	103.900	19.963	8.850	0.486
294.000	223.354	80.006	19.994	103.902	19.960	9.055	0.538
296.000	224.338	80.007	19.994	103.882	19.950	9.876	0.486
298.000	225.318	80.005	19.995	103.899	19.946	10.216	0.519
300.000	226.272	80.005	19.993	103.906	19.936	10.939	0.478
302.000	227.316	80.005	19.994	103.896	19.930	11.446	0.490
304.000	228.288	80.005	19.993	103.897	19.923	11.977	0.516
306.000	229.320	80.005	19.992	103.912	19.914	12.733	0.494
308.000	230.304	80.004	19.991	103.909	19.908	13.140	0.472
310.000	231.279	80.006	19.993	103.913	19.901	13.752	0.470
312.000	232.281	80.005	19.994	103.904	19.890	14.565	0.479
314.000	233.277	80.004	19.995	103.904	19.881	15.288	0.500
316.000	234.299	80.004	19.995	103.914	19.871	16.042	0.539
318.000	235.303	80.004	19.994	103.913	19.864	16.624	0.528
320.000	236.241	80.004	19.993	103.913	19.854	17.380	0.469
322.000	237.270	80.004	19.994	103.912	19.845	18.127	0.508
324.000	238.279	80.004	19.994	103.922	19.832	19.107	0.532
326.000	239.234	80.005	19.994	103.915	19.823	19.831	0.466
328.000	240.216	80.004	19.995	103.927	19.812	20.719	0.503
330.000	241.216	80.004	19.994	103.911	19.800	21.643	0.496
332.000	242.185	80.003	19.992	103.910	19.787	22.705	0.472
334.000	243.214	80.005	19.995	103.928	19.779	23.331	0.506
336.000	244.165	80.003	19.995	103.932	19.766	24.351	0.488
338.000	245.185	80.003	19.994	103.933	19.758	24.976	0.476
340.000	246.188	80.004	19.996	103.946	19.743	26.114	0.492
342.000	247.189	80.004	19.995	103.948	19.734	26.876	0.480
344.000	248.177	80.004	19.995	103.949	19.721	27.825	0.461
346.000	249.180	80.005	19.996	103.947	19.708	28.901	0.504
348.000	250.190	80.004	19.995	103.946	19.697	29.762	0.507
350.000	251.172	80.006	19.995	103.946	19.679	31.136	0.458
352.000	252.204	80.005	19.995	103.938	19.668	32.058	0.510
354.000	253.181	80.005	19.995	103.953	19.653	33.188	0.508
356.000	254.175	80.005	19.995	103.950	19.638	34.409	0.465
358.000	255.214	80.003	19.994	103.956	19.623	35.598	0.514
360.000	256.230	80.004	19.993	103.960	19.608	36.785	0.493
362.000	257.171	80.005	19.994	103.956	19.590	38.126	0.473
364.000	258.174	80.005	19.993	103.958	19.573	39.498	0.484
366.000	259.192	80.005	19.994	103.969	19.556	40.809	0.511
368.000	260.159	80.005	19.994	103.974	19.535	42.454	0.484
370.000	261.171	80.006	19.993	103.986	19.513	44.197	0.498
372.000	262.156	80.006	19.993	103.975	19.497	45.507	0.480
374.000	263.171	80.006	19.994	103.988	19.476	47.137	0.523
376.000	264.162	80.005	19.993	103.979	19.455	48.811	0.490
378.000	265.127	80.006	19.993	103.985	19.433	50.504	0.486
380.000	266.160	80.005	19.993	103.991	19.413	52.086	0.488
382.000	267.173	80.005	19.993	103.990	19.391	53.848	0.506
384.000	268.161	80.004	19.997	103.997	19.366	55.745	0.507
386.000	269.158	80.005	19.993	103.999	19.345	57.420	0.501
388.000	270.167	80.005	19.994	104.014	19.324	59.074	0.494
390.000	271.194	80.005	19.994	104.021	19.298	61.097	0.523
392.000	272.212	80.004	19.992	104.027	19.272	63.189	0.499
394.000	273.233	80.005	19.994	104.027	19.252	64.753	0.511
396.000	274.215	80.006	19.994	104.023	19.226	66.823	0.490
398.000	275.245	80.006	19.995	104.021	19.203	68.636	0.498
400.000	276.244	80.006	19.993	104.033	19.184	70.108	0.480
402.000	277.223	80.007	19.994	104.028	19.160	71.983	0.510
404.000	278.311	80.005	19.994	104.054	19.137	73.809	0.520
406.000	279.246	80.005	19.994	104.043	19.114	75.589	0.485
408.000	280.281	80.005	19.995	104.052	19.099	76.830	0.518
410.000	281.263	80.005	19.994	104.056	19.082	78.143	0.511
412.000	282.308	80.005	19.994	104.051	19.067	79.285	0.524
414.000	283.321	80.005	19.995	104.056	19.052	80.450	0.528
416.000	284.330	80.004	19.994	104.057	19.048	80.768	0.498
418.000	285.338	80.003	19.994	104.056	19.042	81.206	0.527
420.000	286.327	80.004	19.995	104.063	19.045	81.027	0.494
422.000	287.330	80.004	19.993	104.038	19.047	80.842	0.508
424.000	288.357	80.006	19.994	104.041	19.061	79.746	0.503
426.000	289.372	80.004	19.994	104.042	19.079	78.323	0.509
428.000	290.367	80.006	19.993	104.028	19.109	75.963	0.517
430.000	291.441	80.007	19.993	104.021	19.144	73.234	0.553
432.000	292.425	80.005	19.994	104.005	19.189	69.693	0.517
434.000	293.420	80.006	19.993	104.004	19.236	65.933	0.487
436.000	294.429	80.005	19.993	104.004	19.287	61.937	0.519
438.000	295.481	80.005	19.994	103.992	19.343	57.540	0.502
440.000	296.495	80.004	19.994	103.990	19.398	53.215	0.532
442.000	297.483	80.006	19.995	103.989	19.449	49.243	0.481
444.000	298.521	80.004	19.994	103.976	19.496	45.544	0.501
446.000	299.511	80.004	19.994	103.980	19.537	42.285	0.506
448.000	300.546	80.005	19.994	103.960	19.571	39.646	0.499
450.000	301.535	80.007	19.993	103.956	19.600	37.349	0.497
452.000	302.572	80.005	19.992	103.942	19.624	35.498	0.492
454.000	303.637	80.008	19.993	103.945	19.644	33.897	0.520
456.000	304.630	80.007	19.993	103.938	19.655	33.004	0.528
458.000	305.627	80.008	19.993	103.917	19.670	31.819	0.492
460.000	306.638	80.006	19.994	103.909	19.682	30.949	0.488
462.000	307.685	80.006	19.994	103.907	19.693	30.046	0.530
464.000	308.673	80.005	19.993	103.904	19.706	29.025	0.518
466.000	309.710	80.004	19.993	103.907	19.715	28.344	0.511
468.000	310.734	80.004	19.994	103.901	19.723	27.657	0.513
470.000	311.769	80.004	19.994	103.895	19.732	26.940	0.512
472.000	312.806	80.004	19.993	103.893	19.743	26.082	0.528
474.000	313.811	80.004	19.995	103.888	19.753	25.330	0.536
476.000	314.863	80.004	19.994	103.891	19.764	24.465	0.504
478.000	315.892	80.005	19.994	103.887	19.771	23.905	0.510
480.000	316.893	80.004	19.993	103.879	19.780	23.191	0.496
482.000	317.898	80.005	19.993	103.878	19.789	22.509	0.475
484.000	318.952	80.005	19.994	103.885	19.804	21.352	0.519
486.000	319.970	80.007	19.994	103.875	19.808	21.004	0.485
488.000	320.961	80.004	19.994	103.873	19.822	19.881	0.513
490.000	321.932	80.005	19.993	103.873	19.827	19.522	0.504
492.000	322.907	80.004	19.993	103.872	19.837	18.708	0.470
494.000	323.943	80.004	19.993	103.873	19.848	17.867	0.509
496.000	324.926	80.004	19.994	103.870	19.857	17.167	0.522
498.000	325.970	80.005	19.994	103.866	19.866	16.447	0.544
500.000	326.980	80.004	19.993	103.872	19.870	16.167	0.496
502.000	327.949	80.004	19.993	103.873	19.875	15.754	0.483
504.000	329.010	80.005	19.993	103.872	19.885	14.957	0.562
506.000	329.994	80.004	19.993	103.863	19.886	14.861	0.503
508.000	330.976	80.005	19.994	103.855	19.893	14.348	0.497
510.000	331.960	80.006	19.993	103.862	19.900	13.784	0.496
512.000	332.985	80.006	19.993	103.855	19.903	13.560	0.496
514.000	333.975	80.007	19.994	103.861	19.905	13.414	0.500
516.000	334.992	80.006	19.994	103.855	19.906	13.287	0.497
518.000	336.006	80.007	19.995	103.849	19.908	13.138	0.536
520.000	336.981	80.006	19.994	103.845	19.916	12.570	0.492
522.000	337.935	80.005	19.993	103.826	19.917	12.495	0.476
524.000	338.960	80.005	19.995	103.848	19.917	12.487	0.515
526.000	339.957	80.006	19.994	103.857	19.920	12.234	0.497
528.000	340.917	80.005	19.994	103.834	19.914	12.660	0.491
530.000	341.937	80.006	19.994	103.829	19.914	12.673	0.475
532.000	342.929	80.007	19.993	103.841	19.911	12.911	0.473
534.000	343.950	80.008	19.995	103.835	19.912	12.840	0.516
536.000	344.941	80.006	19.994	103.831	19.910	12.987	0.489
538.000	345.965	80.008	19.994	103.831	19.905	13.437	0.522
540.000	346.970	80.007	19.994	103.831	19.900	13.758	0.498
542.000	347.941	80.007	19.995	103.829	19.897	14.046	0.488
544.000	348.919	80.006	19.995	103.830	19.893	14.305	0.496
546.000	349.953	80.005	19.995	103.832	19.889	14.644	0.499
548.000	350.945	80.005	19.993	103.832	19.881	15.256	0.503
550.000	351.975	80.004	19.993	103.837	19.876	15.691	0.485
552.000	352.985	80.005	19.994	103.840	19.868	16.318	0.491
554.000	353.994	80.005	19.993	103.839	19.862	16.768	0.509
556.000	355.006	80.006	19.994	103.836	19.848	17.835	0.493
558.000	356.029	80.005	19.993	103.836	19.837	18.707	0.509
560.000	357.048	80.006	19.993	103.837	19.821	19.976	0.504
562.000	358.037	80.004	19.993	103.838	19.806	21.157	0.496
564.000	359.078	80.005	19.993	103.834	19.794	22.107	0.506
566.000	360.064	80.003	19.993	103.835	19.776	23.558	0.472
568.000	361.096	80.005	19.994	103.842	19.758	24.973	0.525
570.000	362.121	80.004	19.994	103.843	19.732	26.974	0.504
572.000	363.125	80.004	19.992	103.857	19.707	28.919	0.506
574.000	364.125	80.004	19.994	103.858	19.682	30.873	0.468
576.000	365.155	80.005	19.994	103.853	19.651	33.345	0.518
578.000	366.082	80.005	19.994	103.870	19.621	35.718	0.491
580.000	367.153	80.005	19.994	103.869	19.584	38.564	0.490
582.000	368.170	80.006	19.994	103.870	19.548	41.443	0.526
584.000	369.196	80.005	19.995	103.872	19.502	45.073	0.487
586.000	370.197	80.005	19.993	103.869	19.454	48.782	0.476
588.000	371.211	80.007	19.993	103.875	19.404	52.768	0.531
590.000	372.204	80.006	19.994	103.882	19.350	56.943	0.492
592.000	373.255	80.006	19.995	103.888	19.284	62.165	0.500
594.000	374.258	80.007	19.994	103.908	19.217	67.417	0.492
596.000	375.276	80.006	19.994	103.907	19.143	73.236	0.469
598.000	376.271	80.007	19.994	103.905	19.067	79.211	0.494
600.000	377.307	80.006	19.995	103.905	18.986	85.587	0.510
602.000	378.312	80.006	19.995	103.916	18.896	92.583	0.494
604.000	379.335	80.004	19.994	103.921	18.797	100.356	0.520
606.000	380.327	80.007	19.994	103.936	18.690	108.800	0.500
608.000	381.320	80.007	19.993	103.946	18.580	117.435	0.467
610.000	382.317	80.006	19.994	103.938	18.470	126.082	0.516
612.000	383.288	80.006	19.995	103.925	18.359	134.759	0.494
614.000	384.312	80.007	19.994	103.911	18.246	143.650	0.508
616.000	385.291	80.006	19.993	103.912	18.136	152.307	0.498
618.000	386.298	80.007	19.993	103.913	18.027	160.780	0.533
620.000	387.289	80.007	19.993	103.912	17.917	169.383	0.481
622.000	388.290	80.006	19.993	103.913	17.807	177.981	0.498
624.000	389.314	80.005	19.993	103.913	17.701	186.307	0.537
626.000	390.272	80.003	19.995	103.909	17.600	194.185	0.483
628.000	391.254	80.004	19.994	103.893	17.518	200.596	0.455
630.000	392.279	80.004	19.994	103.856	17.446	206.200	0.508
632.000	393.285	80.003	19.994	103.828	17.392	210.416	0.516
634.000	394.345	80.002	19.995	103.825	17.351	213.599	0.503
636.000	395.324	80.005	19.995	103.824	17.326	215.524	0.501
638.000	396.303	80.005	19.995	103.804	17.309	216.897	0.487
640.000	397.321	80.005	19.994	103.794	17.308	216.960	0.535
642.000	398.299	80.006	19.994	103.779	17.326	215.542	0.492
644.000	399.319	80.006	19.994	103.764	17.357	213.143	0.520
646.000	400.321	80.005	19.993	103.755	17.399	209.853	0.484
648.000	401.368	80.005	19.994	103.755	17.456	205.465	0.514
650.000	402.397	80.007	19.994	103.758	17.518	200.592	0.490
652.000	403.386	80.006	19.995	103.762	17.587	195.155	0.521
654.000	404.375	80.006	19.993	103.777	17.658	189.567	0.516
656.000	405.376	80.005	19.994	103.783	17.735	183.534	0.504
658.000	406.414	80.005	19.994	103.796	17.810	177.614	0.505
660.000	407.436	80.004	19.994	103.803	17.884	171.789	0.506
662.000	408.455	80.006	19.995	103.806	17.964	165.530	0.531
664.000	409.434	80.007	19.994	103.777	18.043	159.363	0.479
666.000	410.429	80.006	19.993	103.773	18.129	152.678	0.479
668.000	411.466	80.006	19.993	103.775	18.215	145.891	0.479
670.000	412.477	80.007	19.994	103.762	18.302	139.079	0.492
672.000	413.555	80.007	19.994	103.772	18.389	132.247	0.547
674.000	414.554	80.007	19.992	103.775	18.479	125.191	0.538
676.000	415.541	80.008	19.993	103.794	18.559	118.950	0.496
678.000	416.557	80.006	19.994	103.794	18.642	112.486	0.504
680.000	417.561	80.006	19.993	103.796	18.716	106.624	0.498
682.000	418.596	80.005	19.993	103.801	18.794	100.509	0.514
684.000	419.567	80.007	19.994	103.801	18.870	94.549	0.515
686.000	420.647	80.007	19.994	103.810	18.936	89.396	0.530
688.000	421.675	80.006	19.995	103.805	19.003	84.165	0.478
690.000	422.678	80.007	19.994	103.821	19.061	79.588	0.518
692.000	423.672	80.007	19.993	103.819	19.119	75.029	0.504
694.000	424.727	80.006	19.994	103.823	19.173	70.802	0.492
696.000	425.743	80.005	19.994	103.835	19.231	66.237	0.513
698.000	426.766	80.007	19.993	103.834	19.283	62.198	0.520
700.000	427.746	80.007	19.993	103.834	19.334	58.198	0.505
702.000	428.780	80.007	19.994	103.833	19.380	54.612	0.502
704.000	429.816	80.007	19.994	103.830	19.427	50.911	0.531
706.000	430.803	80.006	19.994	103.830	19.473	47.299	0.493
708.000	431.812	80.006	19.994	103.830	19.517	43.820	0.526
710.000	432.847	80.005	19.994	103.830	19.560	40.413	0.526
712.000	433.848	80.005	19.994	103.829	19.606	36.818	0.495
714.000	434.917	80.005	19.993	103.831	19.645	33.799	0.505
716.000	435.918	80.006	19.994	103.819	19.684	30.748	0.516
718.000	436.947	80.005	19.995	103.803	19.721	27.807	0.516
720.000	437.942	80.006	19.994	103.806	19.755	25.168	0.508
722.000	438.983	80.004	19.995	103.801	19.788	22.562	0.482
724.000	439.954	80.005	19.995	103.797	19.817	20.285	0.478
726.000	441.006	80.004	19.994	103.799	19.847	17.912	0.508
728.000	442.048	80.006	19.994	103.801	19.877	15.627	0.501
730.000	443.068	80.003	19.995	103.790	19.901	13.716	0.504
732.000	444.083	80.004	19.995	103.794	19.924	11.943	0.508
734.000	445.060	80.005	19.995	103.802	19.943	10.408	0.489
736.000	446.089	80.005	19.993	103.800	19.967	8.570	0.519
738.000	447.066	80.005	19.994	103.806	19.982	7.325	0.505
740.000	448.115	80.004	19.994	103.811	19.993	6.531	0.519
742.000	449.082	80.004	19.995	103.799	20.004	5.639	0.500
744.000	450.106	80.004	19.993	103.798	20.015	4.772	0.513
746.000	451.115	80.005	19.994	103.796	20.023	4.142	0.501
748.000	452.142	80.005	19.993	103.796	20.029	3.641	0.514
750.000	453.179	80.005	19.993	103.796	20.038	2.969	0.528
752.000	454.191	80.005	19.992	103.797	20.040	2.836	0.516
754.000	455.212	80.005	19.994	103.807	20.050	2.052	0.521
756.000	456.231	80.006	19.994	103.802	20.051	1.946	0.538
758.000	457.255	80.006	19.993	103.796	20.053	1.779	0.514
760.000	458.241	80.006	19.994	103.802	20.054	1.712	0.508
762.000	459.316	80.005	19.993	103.801	20.059	1.330	0.559
764.000	460.320	80.007	19.993	103.796	20.058	1.418	0.520
766.000	461.328	80.007	19.993	103.795	20.061	1.163	0.492
768.000	462.375	80.005	19.994	103.795	20.063	1.003	0.505
770.000	463.369	80.005	19.994	103.793	20.065	0.886	0.506
772.000	464.369	80.006	19.993	103.794	20.063	0.968	0.492
774.000	465.350	80.008	19.994	103.792	20.070	0.417	0.489
776.000	466.387	80.007	19.992	103.787	20.069	0.508	0.515
778.000	467.412	80.008	19.993	103.790	20.070	0.450	0.523
780.000	468.426	80.008	19.993	103.792	20.070	0.480	0.485
782.000	469.461	80.007	19.993	103.791	20.069	0.551	0.508
784.000	470.477	80.006	19.994	103.789	20.071	0.398	0.512
786.000	471.506	80.007	19.994	103.794	20.069	0.553	0.506
788.000	472.551	80.003	19.994	103.794	20.075	0.091	0.493
790.000	473.617	80.006	19.995	103.791	20.076	0.006	0.529
792.000	474.664	80.005	19.994	103.793	20.075	0.065	0.565
794.000	475.698	80.005	19.994	103.794	20.073	0.208	0.539
796.000	476.689	80.004	19.995	103.793	20.073	0.190	0.499
798.000	477.722	80.004	19.994	103.796	20.077	-0.108	0.491
800.000	478.703	80.004	19.994	103.795	20.078	-0.132	0.503
802.000	479.735	80.005	19.994	103.792	20.081	-0.381	0.516
804.000	480.756	80.004	19.994	103.796	20.077	-0.056	0.514
806.000	481.792	80.005	19.994	103.794	20.074	0.134	0.506
808.000	482.797	80.003	19.994	103.794	20.076	0.015	0.512
810.000	483.838	80.005	19.994	103.789	20.076	-0.028	0.505
812.000	484.839	80.005	19.993	103.799	20.076	-0.041	0.509
814.000	485.882	80.006	19.995	103.796	20.074	0.106	0.490
816.000	486.931	80.004	19.995	103.799	20.075	0.093	0.498
818.000	487.952	80.003	19.995	103.798	20.077	-0.097	0.513
820.000	488.929	80.004	19.995	103.793	20.077	-0.089	0.497
822.000	489.978	80.004	19.994	103.795	20.075	0.026	0.527
824.000	490.994	80.004	19.994	103.796	20.072	0.268	0.487
826.000	492.025	80.004	19.994	103.793	20.076	-0.035	0.496
828.000	493.038	80.003	19.994	103.791	20.077	-0.076	0.498
830.000	494.064	80.005	19.994	103.794	20.075	0.099	0.520
832.000	495.125	80.008	19.993	103.797	20.076	0.019	0.512
834.000	496.150	80.006	19.994	103.793	20.078	-0.160	0.504
836.000	497.152	80.007	19.993	103.790	20.078	-0.208	0.503
838.000	498.132	80.008	19.993	103.791	20.075	0.056	0.494
840.000	499.164	80.005	19.994	103.795	20.075	0.030	0.500
842.000	500.201	80.007	19.994	103.792	20.077	-0.125	0.513
844.000	501.184	80.006	19.993	103.789	20.078	-0.153	0.494
846.000	502.261	80.006	19.994	103.791	20.076	0.013	0.520
848.000	503.245	80.006	19.993	103.790	20.074	0.143	0.517
850.000	504.293	80.006	19.993	103.793	20.079	-0.268	0.527
852.000	505.280	80.005	19.993	103.794	20.079	-0.279	0.510
854.000	506.292	80.007	19.993	103.792	20.077	-0.106	0.521
856.000	507.327	80.007	19.993	103.788	20.077	-0.117	0.538
858.000	508.315	80.007	19.992	103.791	20.076	0.015	0.501
860.000	509.376	80.008	19.992	103.792	20.078	-0.147	0.549
862.000	510.363	80.007	19.992	103.792	20.072	0.337	0.484
864.000	511.412	80.007	19.994	103.789	20.075	0.093	0.529
866.000	512.415	80.007	19.992	103.795	20.076	-0.015	0.505
868.000	513.474	80.007	19.993	103.794	20.074	0.110	0.517
870.000	514.470	80.007	19.992	103.796	20.077	-0.091	0.512
872.000	515.509	80.004	19.992	103.790	20.075	0.052	0.509
874.000	516.501	80.006	19.992	103.744	20.077	-0.071	0.547
876.000	517.523	80.003	19.994	103.845	20.076	-0.045	0.507
878.000	518.560	80.005	19.993	103.824	20.080	-0.361	0.508
880.000	519.589	80.004	19.994	103.792	20.080	-0.324	0.505
882.000	520.628	80.005	19.994	103.790	20.078	-0.134	0.499
884.000	521.675	80.004	19.995	103.796	20.076	0.002	0.517
886.000	522.663	80.003	19.995	103.797	20.076	-0.026	0.515
888.000	523.702	80.002	19.995	103.799	20.078	-0.143	0.541
890.000	524.721	80.004	19.994	103.797	20.081	-0.374	0.518
892.000	525.707	80.007	19.993	103.795	20.078	-0.182	0.466
894.000	526.742	80.005	19.993	103.796	20.080	-0.333	0.512
896.000	527.784	80.005	19.993	103.794	20.080	-0.301	0.514
898.000	528.812	80.003	19.993	103.792	20.080	-0.352	0.516
900.000	529.870	80.003	19.994	103.794	20.079	-0.216	0.510
902.000	530.903	80.005	19.994	103.797	20.080	-0.350	0.518
904.000	531.891	80.003	19.994	103.793	20.080	-0.348	0.541
906.000	532.939	80.003	19.994	103.793	20.079	-0.240	0.497
908.000	534.009	80.003	19.995	103.792	20.081	-0.432	0.530
910.000	534.997	80.004	19.994	103.791	20.081	-0.432	0.519
912.000	536.039	80.006	19.994	103.795	20.079	-0.285	0.531
914.000	537.055	80.007	19.995	103.792	20.082	-0.512	0.486
916.000	538.071	80.007	19.994	103.788	20.081	-0.372	0.489
918.000	539.081	80.007	19.993	103.790	20.081	-0.368	0.495
920.000	540.139	80.006	19.994	103.787	20.081	-0.413	0.559
922.000	541.158	80.004	19.995	103.788	20.078	-0.162	0.517
924.000	542.135	80.005	19.993	103.785	20.079	-0.218	0.501
926.000	543.141	80.006	19.994	103.785	20.080	-0.322	0.485
928.000	544.186	80.006	19.993	103.793	20.080	-0.331	0.518
930.000	545.151	80.006	19.993	103.798	20.077	-0.117	0.494
932.000	546.166	80.006	19.992	103.786	20.079	-0.277	0.495
934.000	547.172	80.006	19.993	103.739	20.081	-0.422	0.523
936.000	548.177	80.008	19.993	103.859	20.078	-0.138	0.498
938.000	549.180	80.007	19.993	103.808	20.079	-0.244	0.481
940.000	550.225	80.007	19.993	103.795	20.080	-0.350	0.536
942.000	551.211	80.007	19.993	103.794	20.076	-0.006	0.529
944.000	552.214	80.007	19.994	103.792	20.077	-0.123	0.483
946.000	553.215	80.007	19.993	103.790	20.077	-0.065	0.492
948.000	554.220	80.006	19.993	103.792	20.080	-0.324	0.530
950.000	555.260	80.005	19.994	103.794	20.083	-0.556	0.508
952.000	556.288	80.004	19.993	103.795	20.080	-0.337	0.519
954.000	557.277	80.004	19.994	103.794	20.078	-0.171	0.542
956.000	558.247	80.005	19.994	103.796	20.079	-0.218	0.478
958.000	559.266	80.005	19.993	103.797	20.079	-0.268	0.547
960.000	560.282	80.006	19.992	103.797	20.080	-0.320	0.490
962.000	561.340	80.005	19.994	103.795	20.079	-0.238	0.503
964.000	562.334	80.005	19.993	103.793	20.083	-0.592	0.519
966.000	563.317	80.007	19.994	103.793	20.081	-0.443	0.492
968.000	564.302	80.005	19.994	103.794	20.082	-0.480	0.516
970.000	565.330	80.004	19.993	103.792	20.080	-0.303	0.509
972.000	566.326	80.005	19.993	103.792	20.086	-0.763	0.536
974.000	567.263	80.005	19.993	103.792	20.093	-1.349	0.493
976.000	568.280	80.005	19.994	103.791	20.086	-0.798	0.467
978.000	569.254	80.005	19.994	103.799	20.080	-0.363	0.484
980.000	570.254	80.005	19.994	103.801	20.081	-0.385	0.427
982.000	571.399	80.005	19.994	103.796	20.083	-0.543	0.551
984.000	572.158	80.004	19.995	103.798	20.080	-0.320	0.502
986.000	573.522	80.006	19.994	103.797	20.081	-0.385	0.472
988.000	574.968	80.005	19.993	103.793	20.081	-0.400	1.145
990.000	575.170	80.005	19.994	103.797	20.082	-0.467	0.780
992.000	576.519	80.004	19.991	103.795	20.081	-0.370	0.451
994.000	577.502	80.007	19.995	103.808	20.080	-0.290	0.502
996.000	578.654	80.005	19.995	103.820	20.078	-0.151	0.541
998.000	579.587	80.007	19.994	103.800	20.080	-0.348	0.471
1000.000	580.683	80.005	19.994	103.796	20.082	-0.502	0.494
1002.000	581.785	80.006	19.994	103.796	20.082	-0.471	0.584
1004.000	582.806	80.006	19.994	103.810	20.081	-0.432	0.508
1006.000	583.889	80.005	19.994	103.798	20.078	-0.201	0.567
1008.000	584.951	80.005	19.994	103.797	20.080	-0.311	0.557
1010.000	585.937	80.002	19.995	103.802	20.080	-0.355	0.500
1012.000	587.092	80.004	19.993	103.796	20.080	-0.318	0.543
1014.000	588.137	80.006	19.993	103.795	20.081	-0.396	0.537
1016.000	589.253	80.005	19.993	103.800	20.081	-0.393	0.546
1018.000	590.341	80.006	19.994	103.797	20.081	-0.407	0.587
1020.000	591.305	80.007	19.993	103.796	20.081	-0.391	0.487
1022.000	592.417	80.007	19.993	103.797	20.079	-0.257	0.560
1024.000	593.532	80.007	19.993	103.796	20.081	-0.389	0.564
1026.000	594.561	80.008	19.993	103.797	20.081	-0.389	0.549
1027.999	595.666	80.007	19.993	103.797	20.080	-0.335	0.539
1029.999	596.732	80.006	19.993	103.816	20.077	-0.091	0.521
1031.999	597.806	80.006	19.994	103.800	20.080	-0.305	0.517
1033.999	598.879	80.005	19.993	103.796	20.083	-0.556	0.529
1036.000	599.908	80.005	19.993	103.795	20.080	-0.352	0.529
1037.999	600.973	80.004	19.994	103.794	20.079	-0.270	0.522
1039.999	602.022	80.005	19.994	103.795	20.079	-0.218	0.514
1041.999	603.045	80.003	19.994	103.801	20.081	-0.406	0.504
1043.999	604.065	80.005	19.995	103.796	20.077	-0.099	0.513
1045.999	605.031	80.006	19.995	103.794	20.078	-0.153	0.516
1048.000	606.059	80.005	19.995	103.795	20.078	-0.145	0.513
1049.999	607.056	80.006	19.995	103.793	20.081	-0.387	0.472
1051.999	608.045	80.005	19.993	103.794	20.081	-0.406	0.494
1054.000	609.058	80.006	19.994	103.799	20.079	-0.233	0.488
1055.999	610.024	80.006	19.994	103.794	20.077	-0.123	0.505
1057.999	610.948	80.005	19.993	103.794	20.081	-0.376	0.457
1060.000	611.899	80.005	19.994	103.793	20.081	-0.374	0.477
1061.999	612.872	80.006	19.993	103.800	20.079	-0.257	0.488
1063.999	613.855	80.004	19.992	103.798	20.078	-0.199	0.488
1065.999	614.760	80.005	19.994	103.797	20.082	-0.497	0.486
1067.999	615.766	80.003	19.993	103.797	20.080	-0.292	0.490
1069.999	616.734	80.004	19.994	103.798	20.082	-0.484	0.467
1071.999	617.726	80.007	19.994	103.801	20.080	-0.342	0.481
1073.999	618.716	80.005	19.993	103.805	20.080	-0.298	0.505
1075.999	619.712	80.006	19.994	103.807	20.080	-0.303	0.516
1078.001	620.772	80.005	19.994	103.808	20.078	-0.171	0.549
1079.999	621.755	80.006	19.993	103.803	20.078	-0.151	0.522
1081.999	622.819	80.006	19.994	103.821	20.079	-0.270	0.540
1083.999	623.870	80.007	19.993	103.810	20.080	-0.322	0.550
1085.999	624.902	80.006	19.994	103.799	20.081	-0.419	0.547
1087.999	625.928	80.006	19.994	103.801	20.077	-0.093	0.537
1089.999	626.994	80.006	19.993	103.802	20.077	-0.117	0.527
1091.999	628.049	80.006	19.993	103.823	20.076	-0.022	0.500
1093.999	629.116	80.006	19.993	103.812	20.076	-0.041	0.508
1096.001	630.171	80.005	19.995	103.794	20.076	-0.041	0.526
1098.000	631.245	80.006	19.994	103.803	20.079	-0.244	0.532
1099.999	632.306	80.006	19.995	103.793	20.076	0.013	0.546
1101.999	633.361	80.006	19.995	103.811	20.077	-0.091	0.522
1103.999	634.462	80.006	19.995	103.824	20.076	0.011	0.551
1105.999	635.540	80.007	19.994	103.807	20.073	0.190	0.555
1107.999	636.588	80.006	19.994	103.795	20.077	-0.082	0.535
1109.999	637.644	80.006	19.993	103.791	20.075	0.089	0.509
1111.999	638.678	80.006	19.994	103.802	20.076	-0.024	0.513
1113.999	639.689	80.006	19.995	103.798	20.073	0.242	0.493
1115.999	640.728	80.005	19.993	103.802	20.073	0.208	0.527
1117.999	641.768	80.006	19.993	103.801	20.078	-0.171	0.476
1119.999	642.769	80.005	19.993	103.813	20.079	-0.223	0.485
1121.999	643.817	80.005	19.994	103.798	20.077	-0.093	0.484
1124.000	644.805	80.006	19.992	103.801	20.081	-0.387	0.488
1125.999	645.789	80.005	19.993	103.816	20.079	-0.225	0.483
1128.000	646.812	80.005	19.993	103.804	20.077	-0.123	0.510
1129.999	647.787	80.005	19.992	103.831	20.079	-0.234	0.514
1132.000	648.815	80.006	19.993	103.811	20.078	-0.210	0.529
1134.000	649.845	80.005	19.993	103.807	20.077	-0.063	0.522
1135.999	650.844	80.006	19.994	103.807	20.075	0.030	0.509
1137.999	651.828	80.006	19.994	103.827	20.077	-0.119	0.472
1139.999	652.841	80.004	19.994	103.821	20.078	-0.175	0.495
1141.999	653.852	80.004	19.995	103.818	20.077	-0.110	0.507
1143.999	654.876	80.005	19.993	103.820	20.078	-0.205	0.495
1146.000	655.895	80.004	19.993	103.809	20.074	0.136	0.497
1147.999	656.903	80.004	19.993	103.812	20.074	0.154	0.468
1150.000	657.945	80.006	19.993	103.824	20.077	-0.095	0.537
1151.999	658.964	80.005	19.993	103.830	20.077	-0.054	0.540
1153.999	659.976	80.006	19.994	103.826	20.072	0.272	0.521
1155.999	660.996	80.006	19.993	103.805	20.083	-0.538	0.522
1157.999	661.985	80.006	19.993	103.819	20.071	0.344	0.499
1160.001	663.048	80.007	19.994	103.812	20.079	-0.218	0.512
1162.000	664.027	80.007	19.994	103.812	20.074	0.171	0.492
1164.000	665.016	80.007	19.995	103.801	20.062	1.086	0.466
1166.000	666.058	80.006	19.995	103.810	20.077	-0.119	0.469
1167.999	667.004	80.006	19.993	103.818	20.074	0.117	0.284
1169.999	668.177	80.005	19.994	103.825	20.074	0.171	0.132
1172.001	668.803	80.005	19.993	103.814	20.075	0.043	-0.024
1174.000	670.166	80.007	19.994	103.827	20.076	0.022	0.602
1175.999	670.974	80.006	19.994	103.823	20.075	0.056	0.174
1177.999	671.684	80.007	19.994	103.822	20.075	0.099	0.134
1180.000	673.312	80.007	19.994	103.823	20.072	0.298	0.592
1181.999	674.260	80.008	19.995	103.813	20.074	0.145	0.507
1184.000	675.318	80.008	19.994	103.803	20.073	0.227	0.483
1185.999	676.354	80.009	19.993	103.801	20.071	0.406	0.500
1187.999	677.400	80.009	19.993	103.793	20.073	0.231	0.491
1190.000	678.450	80.008	19.994	103.791	20.072	0.301	0.476
1191.999	679.537	80.007	19.993	103.805	20.071	0.357	0.545
1194.000	680.561	80.004	19.993	103.808	20.071	0.385	0.513
1195.999	681.632	80.003	19.994	103.795	20.074	0.175	0.496
1197.999	682.671	80.005	19.995	103.802	20.071	0.363	0.502
1199.999	683.707	80.005	19.994	103.799	20.072	0.322	0.515
1202.001	684.849	80.005	19.995	103.800	20.073	0.253	0.572
1203.999	685.860	80.004	19.995	103.798	20.072	0.262	0.588
1205.999	686.932	80.005	19.995	103.802	20.071	0.374	0.524
1208.000	687.976	80.006	19.993	103.796	20.074	0.171	0.515
1209.999	689.031	80.005	19.993	103.794	20.070	0.430	0.471
1211.999	690.076	80.006	19.993	103.807	20.075	0.089	0.525
1213.999	691.132	80.006	19.992	103.802	20.072	0.316	0.506
1215.999	692.167	80.006	19.993	103.797	20.073	0.249	0.527
1217.999	693.229	80.006	19.993	103.790	20.072	0.309	0.518
1219.999	694.259	80.006	19.994	103.797	20.073	0.197	0.527
1222.000	695.354	80.006	19.993	103.795	20.073	0.251	0.568
1224.000	696.373	80.005	19.994	103.791	20.075	0.056	0.514
1226.000	697.426	80.006	19.994	103.780	20.073	0.225	0.521
1227.999	698.446	80.005	19.994	103.788	20.074	0.125	0.519
1229.999	699.475	80.005	19.995	103.789	20.076	-0.006	0.498
1231.999	700.494	80.005	19.992	103.788	20.076	0.013	0.540
1233.999	701.499	80.007	19.994	103.778	20.074	0.141	0.487
1235.999	702.485	80.007	19.993	103.777	20.074	0.117	0.516
1237.999	703.457	80.007	19.993	103.780	20.075	0.071	0.504
1240.000	704.424	80.007	19.994	103.789	20.074	0.123	0.516
1241.999	705.460	80.009	19.993	103.786	20.074	0.158	0.503
1243.999	706.427	80.009	19.992	103.787	20.071	0.368	0.511
1245.999	707.390	80.008	19.993	103.772	20.071	0.355	0.486
1247.999	708.422	80.008	19.993	103.785	20.078	-0.166	0.492
1249.999	709.411	80.006	19.993	103.779	20.072	0.268	0.503
1251.999	710.399	80.007	19.992	103.774	20.072	0.294	0.498
1253.999	711.462	80.006	19.994	103.790	20.075	0.052	0.524
1255.999	712.479	80.005	19.993	103.791	20.075	0.056	0.540
1257.999	713.457	80.006	19.993	103.792	20.076	-0.004	0.471
1259.999	714.468	80.006	19.993	103.790	20.075	0.035	0.498
1262.000	715.529	80.006	19.995	103.783	20.073	0.212	0.524
1263.999	716.519	80.006	19.994	103.783	20.073	0.184	0.520
1265.999	717.543	80.007	19.994	103.790	20.073	0.212	0.516
1267.999	718.563	80.008	19.993	103.773	20.071	0.378	0.528
1269.999	719.575	80.008	19.993	103.780	20.075	0.071	0.512
1272.000	720.587	80.008	19.994	103.770	20.074	0.153	0.508
1273.999	721.587	80.007	19.994	103.765	20.072	0.272	0.502
1275.999	722.583	80.005	19.993	103.782	20.073	0.251	0.501
1277.999	723.601	80.006	19.993	103.769	20.071	0.402	0.478
1279.999	724.600	80.004	19.993	103.775	20.069	0.517	0.496
1282.000	725.617	80.003	19.994	103.783	20.070	0.454	0.515
1284.001	726.697	80.004	19.992	103.781	20.065	0.830	0.505
1285.999	727.729	80.005	19.994	103.792	20.069	0.527	0.539
1287.999	728.733	80.006	19.995	103.787	20.065	0.858	0.501
1289.999	729.743	80.005	19.995	103.780	20.069	0.564	0.505
1292.000	730.762	80.005	19.993	103.769	20.067	0.720	0.501
1293.999	731.780	80.006	19.995	103.785	20.066	0.774	0.474
1295.999	732.786	80.004	19.994	103.789	20.071	0.413	0.503
1298.000	733.758	80.004	19.993	103.779	20.066	0.774	0.468
1300.000	734.823	80.006	19.994	103.772	20.067	0.724	0.518
1301.999	735.838	80.004	19.995	103.772	20.069	0.538	0.499
1303.999	736.876	80.007	19.994	103.792	20.067	0.653	0.526
1306.001	737.842	80.006	19.993	103.792	20.067	0.724	0.491
1308.000	738.862	80.007	19.993	103.780	20.066	0.804	0.514
1309.999	739.917	80.007	19.994	103.769	20.065	0.884	0.534
1311.999	740.928	80.006	19.993	103.783	20.067	0.659	0.502
1313.999	741.951	80.006	19.994	103.789	20.068	0.649	0.498
1315.999	742.988	80.005	19.994	103.789	20.068	0.588	0.492
1316.999	743.521	80.006	19.993	103.789	20.068	0.586	0.532