File: 01_Data/Vinyl_Siding/STA/N2/30K_min/Vinyl_Siding_STA_N2_30KData_210607_R3.csv
##Temp./Â°C,Time/min,Mass loss(subtr.2)/mg,DSC(subtr.2)/mW,Sensit./(uV/mW)
50.539,10.01,0.00165,-0.2484,0.6235
51.139,10.98956,0.001323185,-0.13122,0.6235
51.739,11.20518,0.00107424,-0.02426103,0.62349
52.339,11.35107,-0.000618482,0.04151852,0.62348
52.939,11.46652,0.001506543,0.11593,0.62347
53.539,11.56095,-0.0005905408,0.18773,0.62347
54.139,11.64453,0.0003669804,0.24384,0.62346
54.739,11.7188,0.0003148193,0.30622,0.62345
55.339,11.78705,-0.000334711,0.37052,0.62344
55.939,11.85092,0.001041549,0.43639,0.62343
56.539,11.9101,-0.00175453,0.51652,0.62342
57.139,11.9656,0.0007597264,0.55194,0.6234
57.739,12.0187,0.001185969,0.60576,0.62339
58.339,12.06945,0.0005059389,0.65705,0.62338
58.939,12.11802,-0.0002440875,0.71855,0.62337
59.539,12.16457,-0.0006000856,0.76899,0.62335
60.139,12.2098,-0.000894941,0.81372,0.62334
60.739,12.25347,-0.001531183,0.86267,0.62332
61.339,12.29533,-0.001103117,0.9308,0.62331
61.939,12.33657,-0.000387948,0.97156,0.62329
62.539,12.3773,0.000848176,1.00987,0.62328
63.139,12.41662,-0.0002130554,1.04961,0.62326
63.739,12.45548,-0.00133106,1.07421,0.62324
64.339,12.4933,0.0001539554,1.11069,0.62322
64.939,12.53041,0.0009767105,1.12751,0.6232
65.539,12.5671,3.377101e-05,1.1642,0.62318
66.139,12.60314,1.78232e-05,1.17591,0.62316
66.739,12.63857,-4.334326e-05,1.20813,0.62314
67.339,12.67349,-0.0003537217,1.20653,0.62312
67.939,12.7079,-0.0006229717,1.2163,0.6231
68.539,12.74203,0.001103975,1.23227,0.62308
69.139,12.77559,0.00115475,1.23426,0.62306
69.739,12.80931,0.001232935,1.24859,0.62303
70.339,12.84222,0.0009118305,1.26866,0.62301
70.939,12.875,-0.000814093,1.27419,0.62299
71.539,12.90732,-0.001790889,1.29281,0.62296
72.139,12.93895,-0.002235051,1.30453,0.62294
72.739,12.97065,-0.002376987,1.32685,0.62291
73.339,13.0021,-0.0013237,1.32902,0.62289
73.939,13.0337,-0.000547446,1.35777,0.62286
74.539,13.0648,-0.0005275583,1.3572,0.62283
75.139,13.09551,-0.002310374,1.37211,0.6228
75.739,13.12619,-0.002115782,1.40695,0.62278
76.339,13.15666,-0.002190148,1.40515,0.62275
76.939,13.18704,-0.002196853,1.42838,0.62272
77.539,13.21696,-0.002405869,1.45271,0.62269
78.139,13.2468,-0.003175987,1.45184,0.62266
78.739,13.27638,-0.003958356,1.47854,0.62263
79.339,13.3059,-0.004108285,1.48849,0.6226
79.939,13.33515,-0.003660705,1.50486,0.62256
80.539,13.36421,-0.004145825,1.52187,0.62253
81.139,13.3931,-0.00238826,1.54863,0.6225
81.739,13.4218,-0.00379386,1.56356,0.62246
82.339,13.4505,-0.002698683,1.58179,0.62243
82.939,13.47905,-0.002840081,1.60403,0.6224
83.539,13.5074,-0.00295447,1.63136,0.62236
84.139,13.5356,-0.002394543,1.65901,0.62232
84.739,13.56355,-0.002265205,1.68108,0.62229
85.339,13.59131,-0.00219649,1.706,0.62225
85.939,13.6188,-0.002620499,1.72564,0.62221
86.539,13.6463,-0.002450748,1.76707,0.62218
87.139,13.6737,-0.00162669,1.79934,0.62214
87.739,13.70108,-0.0008794394,1.81621,0.6221
88.339,13.72804,-0.002376038,1.85263,0.62206
88.939,13.7549,-0.003151556,1.89169,0.62202
89.539,13.78166,-0.002382871,1.89934,0.62198
90.139,13.80839,-0.00375271,1.90818,0.62194
90.739,13.8349,-0.002125251,1.93541,0.6219
91.339,13.8613,-0.0008278878,1.95108,0.62186
91.939,13.8874,-0.002233809,1.97515,0.62181
92.539,13.9134,-0.001290363,1.98187,0.62177
93.139,13.93936,-0.002202447,1.99008,0.62173
93.739,13.9653,-0.002212195,2.00217,0.62168
94.339,13.9911,-0.003269238,2.00996,0.62164
94.939,14.0167,-0.003616624,2.01151,0.6216
95.539,14.04224,-0.003620123,2.03445,0.62155
96.139,14.0676,-0.00362108,2.04592,0.6215
96.739,14.09276,-0.003577431,2.05949,0.62146
97.339,14.11786,-0.00344371,2.06369,0.62141
97.939,14.14289,-0.00242847,2.08545,0.62136
98.539,14.1677,-0.002640505,2.07662,0.62132
99.139,14.19246,-0.002365588,2.09152,0.62127
99.739,14.2172,-0.002899432,2.12018,0.62122
100.339,14.24169,-0.00353476,2.1154,0.62117
100.939,14.2662,-0.004452681,2.1481,0.62112
101.539,14.2905,-0.003723307,2.18675,0.62107
102.139,14.3146,-0.003776077,2.20329,0.62102
102.739,14.3386,-0.002697885,2.21922,0.62097
103.339,14.3623,-0.003703472,2.25537,0.62091
103.939,14.38615,-0.004838669,2.27627,0.62086
104.539,14.41,-0.004940511,2.2871,0.62081
105.139,14.43384,-0.00549354,2.32883,0.62075
105.739,14.45775,-0.007163448,2.36424,0.6207
106.339,14.4813,-0.00750925,2.38554,0.62065
106.939,14.50475,-0.009067428,2.40506,0.62059
107.539,14.5281,-0.0110044,2.444,0.62054
108.139,14.5514,-0.01152083,2.46781,0.62048
108.739,14.5746,-0.01193434,2.50393,0.62042
109.339,14.5977,-0.01285484,2.52592,0.62037
109.939,14.6207,-0.0135464,2.56565,0.62031
110.539,14.64366,-0.01414757,2.61983,0.62025
111.139,14.6665,-0.01213227,2.63173,0.62019
111.739,14.6894,-0.009718596,2.64158,0.62013
112.339,14.71205,-0.0077361,2.6808,0.62007
112.939,14.7346,-0.007421411,2.7217,0.62001
113.539,14.75719,-0.005968151,2.76485,0.61995
114.139,14.7795,-0.006030848,2.78208,0.61989
114.739,14.80197,-0.00464194,2.81444,0.61983
115.339,14.8243,-0.004712937,2.83995,0.61977
115.939,14.84624,-0.004717695,2.85965,0.61971
116.539,14.8683,-0.004700994,2.89114,0.61965
117.139,14.8903,-0.003706135,2.93014,0.61958
117.739,14.91235,-0.003587818,2.92894,0.61952
118.339,14.9345,-0.00392505,2.96142,0.61945
118.939,14.95636,-0.003420375,2.98925,0.61939
119.539,14.97816,-0.003409814,3.0174,0.61932
120.139,14.99983,-0.004043184,3.02809,0.61926
120.739,15.02145,-0.00364918,3.0524,0.61919
121.339,15.04302,-0.003657512,3.06962,0.61913
121.939,15.06453,-0.004823377,3.07974,0.61906
122.539,15.086,-0.004724239,3.10215,0.61899
123.139,15.10736,-0.004565437,3.11703,0.61892
123.739,15.1287,-0.00337554,3.12443,0.61885
124.339,15.14988,-0.003399782,3.1477,0.61878
124.939,15.171,-0.003411323,3.1642,0.61871
125.539,15.192,-0.004418099,3.16926,0.61864
126.139,15.21305,-0.004116156,3.20524,0.61857
126.739,15.234,-0.00287548,3.21831,0.6185
127.339,15.25485,-0.00180375,3.23344,0.61843
127.939,15.2756,-0.001541893,3.24918,0.61836
128.539,15.29636,-0.00153072,3.27595,0.61829
129.139,15.3171,-0.001530028,3.28314,0.61821
129.739,15.33769,-0.00152983,3.30822,0.61814
130.339,15.3583,-0.001527973,3.34062,0.61807
130.939,15.37889,-0.00150934,3.35474,0.61799
131.539,15.39931,-0.00184553,3.36672,0.61792
132.139,15.4197,-0.00317069,3.39649,0.61784
132.739,15.44011,-0.00317933,3.40119,0.61777
133.339,15.4604,-0.003871023,3.43054,0.61769
133.939,15.48047,-0.004118826,3.45308,0.61761
134.539,15.50065,-0.00379791,3.47365,0.61754
135.139,15.52087,-0.00447939,3.50166,0.61746
135.739,15.54089,-0.00557358,3.50934,0.61738
136.339,15.561,-0.004751478,3.55161,0.6173
136.939,15.58105,-0.00450186,3.5537,0.61722
137.539,15.60091,-0.004511707,3.57108,0.61715
138.139,15.6208,-0.003810225,3.58801,0.61707
138.739,15.6406,-0.00383756,3.61318,0.61698
139.339,15.66041,-0.003833134,3.61699,0.6169
139.939,15.6801,-0.004830419,3.63902,0.61682
140.539,15.69982,-0.00515746,3.66037,0.61674
141.139,15.7195,-0.004484158,3.6643,0.61666
141.739,15.73916,-0.004492577,3.67128,0.61658
142.339,15.7588,-0.0045524,3.68185,0.61649
142.939,15.7784,-0.00370539,3.69876,0.61641
143.539,15.79788,-0.004637436,3.71376,0.61633
144.139,15.81734,-0.004613,3.73372,0.61624
144.739,15.8368,-0.004617133,3.76045,0.61616
145.339,15.8562,-0.003623586,3.77325,0.61607
145.939,15.87546,-0.00331397,3.79495,0.61598
146.539,15.89466,-0.0033044,3.81248,0.6159
147.139,15.9139,-0.00347951,3.81536,0.61581
147.739,15.93305,-0.004664935,3.83634,0.61572
148.339,15.9522,-0.004659627,3.85492,0.61564
148.939,15.97139,-0.003553145,3.87516,0.61555
149.539,15.99061,-0.003617467,3.88494,0.61546
150.139,16.00976,-0.003620327,3.90148,0.61537
150.739,16.0289,-0.003633693,3.91726,0.61528
151.339,16.04799,-0.00440863,3.95021,0.61519
151.939,16.067,-0.004934503,3.95588,0.6151
152.539,16.08598,-0.004933021,3.95323,0.61501
153.139,16.1049,-0.00496365,3.98436,0.61492
153.739,16.12377,-0.004574927,3.98944,0.61483
154.339,16.1426,-0.004713422,4.01174,0.61474
154.939,16.1614,-0.005977154,4.02469,0.61464
155.539,16.1801,-0.004930321,4.01613,0.61455
156.139,16.19892,-0.00460469,4.03418,0.61446
156.739,16.21772,-0.004526014,4.04826,0.61436
157.339,16.23646,-0.005890458,4.04441,0.61427
157.939,16.25521,-0.005916819,4.06435,0.61417
158.539,16.2739,-0.005899837,4.08809,0.61408
159.139,16.29251,-0.005722579,4.10201,0.61398
159.739,16.31115,-0.004595991,4.12054,0.61389
160.339,16.32968,-0.004600428,4.11445,0.61379
160.939,16.34821,-0.004802575,4.14233,0.61369
161.539,16.36673,-0.005984006,4.15871,0.6136
162.139,16.38524,-0.00592635,4.16082,0.6135
162.739,16.40372,-0.0059205,4.1825,0.6134
163.339,16.42219,-0.00592005,4.17987,0.6133
163.939,16.44067,-0.005920061,4.20637,0.6132
164.539,16.45915,-0.005919171,4.22322,0.6131
165.139,16.4775,-0.005754916,4.23303,0.613
165.739,16.49586,-0.004531841,4.2406,0.6129
166.339,16.5142,-0.004603151,4.2487,0.6128
166.939,16.53257,-0.004609539,4.27103,0.6127
167.539,16.55088,-0.004609943,4.28085,0.6126
168.139,16.5692,-0.004610403,4.28456,0.6125
168.739,16.58752,-0.00462245,4.31256,0.61239
169.339,16.60577,-0.004928767,4.31404,0.61229
169.939,16.62398,-0.005981979,4.32423,0.61219
170.539,16.64208,-0.00593307,4.35428,0.61208
171.139,16.66027,-0.005930041,4.36575,0.61198
171.739,16.6784,-0.00592998,4.37249,0.61188
172.339,16.69656,-0.005929996,4.37916,0.61177
172.939,16.71467,-0.00593,4.38843,0.61166
173.539,16.7329,-0.00593,4.40563,0.61156
174.139,16.75093,-0.00593,4.41599,0.61145
174.739,16.76896,-0.00593,4.41891,0.61135
175.339,16.7869,-0.00593,4.44142,0.61124
175.939,16.80494,-0.00593,4.45256,0.61113
176.539,16.823,-0.00593,4.46778,0.61102
177.139,16.84088,-0.005929994,4.46657,0.61092
177.739,16.85874,-0.005930083,4.4827,0.61081
178.339,16.87656,-0.005931967,4.50492,0.6107
178.939,16.8943,-0.005978764,4.50779,0.61059
179.539,16.9119,-0.00731452,4.53375,0.61048
180.139,16.92963,-0.007238077,4.53759,0.61037
180.739,16.94745,-0.00707914,4.55144,0.61026
181.339,16.96528,-0.005833604,4.55815,0.61014
181.939,16.98324,-0.005913205,4.57398,0.61003
182.539,17.00125,-0.005919719,4.60088,0.60992
183.139,17.0192,-0.005919965,4.60421,0.60981
183.739,17.0369,-0.005918245,4.61628,0.6097
184.339,17.05475,-0.00589692,4.62504,0.60958
184.939,17.07244,-0.00573256,4.62237,0.60947
185.539,17.09005,-0.004609778,4.64014,0.60935
186.139,17.10766,-0.004611215,4.65566,0.60924
186.739,17.12535,-0.004665185,4.67118,0.60912
187.339,17.14294,-0.006269945,4.68394,0.60901
187.939,17.16048,-0.00617224,4.69265,0.60889
188.539,17.17795,-0.00749559,4.69145,0.60878
189.139,17.1953,-0.008642339,4.71468,0.60866
189.739,17.21276,-0.00887647,4.68932,0.60854
190.339,17.23021,-0.008889874,4.71616,0.60843
190.939,17.24768,-0.008890159,4.70593,0.60831
191.539,17.26515,-0.008890486,4.71708,0.60819
192.139,17.2827,-0.0088938,4.72069,0.60807
192.739,17.30016,-0.008892429,4.72362,0.60795
193.339,17.31756,-0.00813957,4.7504,0.60783
193.939,17.33491,-0.007563048,4.75748,0.60771
194.539,17.35226,-0.00756658,4.75774,0.60759
195.139,17.36959,-0.007575618,4.76383,0.60747
195.739,17.3869,-0.00823593,4.77797,0.60735
196.339,17.40409,-0.00902246,4.77619,0.60723
196.939,17.42138,-0.008536901,4.7787,0.60711
197.539,17.43864,-0.007927937,4.79519,0.60699
198.139,17.45575,-0.008355675,4.81163,0.60687
198.739,17.47298,-0.008341283,4.8195,0.60674
199.339,17.49031,-0.008340017,4.81281,0.60662
199.939,17.50754,-0.00833999,4.81993,0.6065
200.539,17.52477,-0.00834,4.83082,0.60637
201.139,17.54214,-0.00834,4.82511,0.60625
201.739,17.5594,-0.00834,4.80851,0.60612
202.339,17.5765,-0.008339999,4.8204,0.606
202.939,17.59368,-0.00833999,4.83679,0.60587
203.539,17.61078,-0.00833997,4.84382,0.60575
204.139,17.6279,-0.008340714,4.84736,0.60562
204.739,17.64498,-0.008351116,4.8438,0.60549
205.339,17.6621,-0.008414642,4.8576,0.60537
205.939,17.67926,-0.00992345,4.86794,0.60524
206.539,17.6964,-0.01031881,4.89793,0.60511
207.139,17.71337,-0.01031078,4.90359,0.60498
207.739,17.7304,-0.01030989,4.90956,0.60485
208.339,17.7474,-0.01031633,4.9075,0.60473
208.939,17.7644,-0.01039281,4.91573,0.6046
209.539,17.78142,-0.009214695,4.92464,0.60447
210.139,17.7985,-0.00898804,4.92311,0.60434
210.739,17.81553,-0.008989529,4.91743,0.60421
211.339,17.83259,-0.008989699,4.9198,0.60408
211.939,17.84955,-0.008990475,4.9141,0.60394
212.539,17.86656,-0.00910987,4.95096,0.60381
213.139,17.8835,-0.01040662,4.94692,0.60368
213.739,17.9004,-0.01031137,4.94995,0.60355
214.339,17.9173,-0.01031781,4.96473,0.60342
214.939,17.9342,-0.01044126,4.98,0.60328
215.539,17.95103,-0.0106326,4.9749,0.60315
216.139,17.96799,-0.01068269,4.9896,0.60302
216.739,17.9849,-0.009590374,4.98009,0.60288
217.339,18.0018,-0.009330714,4.98769,0.60275
217.939,18.01878,-0.009318995,5.01656,0.60261
218.539,18.03565,-0.009316094,5.0163,0.60248
219.139,18.05255,-0.009293552,5.02393,0.60234
219.739,18.06941,-0.009930314,5.03516,0.60221
220.339,18.08618,-0.01067925,5.04027,0.60207
220.939,18.10292,-0.01064361,5.05073,0.60193
221.539,18.11973,-0.01063991,5.04952,0.6018
222.139,18.13648,-0.01063558,5.0706,0.60166
222.739,18.15324,-0.01060052,5.08094,0.60152
223.339,18.17008,-0.01130508,5.08096,0.60138
223.939,18.1869,-0.01147175,5.08211,0.60124
224.539,18.2037,-0.0105797,5.08741,0.60111
225.139,18.22046,-0.01063892,5.1031,0.60097
225.739,18.23719,-0.01064066,5.1028,0.60083
226.339,18.25391,-0.01064009,5.09229,0.60069
226.939,18.27064,-0.01064001,5.09297,0.60055
227.539,18.28741,-0.01063975,5.1079,0.60041
228.139,18.30405,-0.01063696,5.11043,0.60027
228.739,18.32074,-0.01063324,5.12211,0.60012
229.339,18.33748,-0.01109332,5.12586,0.59998
229.939,18.3542,-0.01200129,5.12254,0.59984
230.539,18.37085,-0.01195158,5.1389,0.5997
231.139,18.38755,-0.01194952,5.15037,0.59956
231.739,18.40435,-0.01194993,5.15251,0.59941
232.339,18.42096,-0.01195,5.15126,0.59927
232.939,18.43761,-0.01195,5.15346,0.59913
233.539,18.4543,-0.01195,5.16403,0.59898
234.139,18.47089,-0.01195,5.15764,0.59884
234.739,18.48755,-0.01195,5.17071,0.59869
235.339,18.50403,-0.01195,5.18952,0.59855
235.939,18.5205,-0.01195001,5.18656,0.5984
236.539,18.53717,-0.01194974,5.19768,0.59826
237.139,18.5538,-0.01194714,5.18309,0.59811
237.739,18.57046,-0.01194589,5.21723,0.59797
238.339,18.5871,-0.01237386,5.22749,0.59782
238.939,18.60387,-0.01332218,5.22814,0.59767
239.539,18.6205,-0.01327106,5.24644,0.59752
240.139,18.6371,-0.0132694,5.24545,0.59738
240.739,18.65362,-0.01326993,5.24258,0.59723
241.339,18.67018,-0.01327,5.24388,0.59708
241.939,18.68672,-0.01327,5.25359,0.59693
242.539,18.7032,-0.01326998,5.26345,0.59678
243.139,18.7197,-0.01327002,5.27726,0.59663
243.739,18.73626,-0.01327187,5.2779,0.59648
244.339,18.75275,-0.01328438,5.27215,0.59633
244.939,18.76931,-0.01323518,5.28077,0.59618
245.539,18.78588,-0.01454542,5.29463,0.59603
246.139,18.80244,-0.01458921,5.29694,0.59588
246.739,18.819,-0.01458656,5.30392,0.59573
247.339,18.83553,-0.01550245,5.29187,0.59558
247.939,18.85207,-0.01587888,5.28342,0.59543
248.539,18.8686,-0.0159019,5.29951,0.59527
249.139,18.88502,-0.0159014,5.30653,0.59512
249.739,18.90147,-0.01590389,5.30519,0.59497
250.339,18.91793,-0.01585733,5.30926,0.59482
250.939,18.93441,-0.01691498,5.32548,0.59466
251.539,18.95085,-0.01721795,5.31024,0.59451
252.139,18.96735,-0.01713266,5.32942,0.59435
252.739,18.98384,-0.01843681,5.33098,0.5942
253.339,19.0003,-0.01853966,5.34759,0.59405
253.939,19.0168,-0.0185404,5.36561,0.59389
254.539,19.03325,-0.01854067,5.35591,0.59373
255.139,19.04971,-0.01853941,5.36609,0.59358
255.739,19.06619,-0.01848911,5.38487,0.59342
256.339,19.08259,-0.01940088,5.37964,0.59327
256.939,19.09903,-0.01986617,5.39923,0.59311
257.539,19.1155,-0.02021723,5.39816,0.59295
258.139,19.13188,-0.02272421,5.41458,0.5928
258.739,19.14827,-0.02278495,5.4345,0.59264
259.339,19.1646,-0.02414529,5.44629,0.59248
259.939,19.18103,-0.02409883,5.47266,0.59232
260.539,19.1974,-0.0255207,5.4781,0.59216
261.139,19.21386,-0.02636338,5.51396,0.592
261.739,19.23024,-0.02709529,5.52496,0.59185
262.339,19.24665,-0.02829921,5.55593,0.59169
262.939,19.2631,-0.02873175,5.56393,0.59153
263.539,19.27947,-0.03076109,5.59382,0.59137
264.139,19.29581,-0.0332343,5.60763,0.59121
264.739,19.31219,-0.03396613,5.63953,0.59105
265.339,19.3286,-0.03497394,5.66378,0.59088
265.939,19.345,-0.03514677,5.6629,0.59072
266.539,19.36138,-0.03578943,5.67681,0.59056
267.139,19.37774,-0.03744402,5.70618,0.5904
267.739,19.39404,-0.03815874,5.70336,0.59024
268.339,19.41041,-0.03804994,5.71473,0.59008
268.939,19.42676,-0.03921001,5.73614,0.58991
269.539,19.4431,-0.03960645,5.73183,0.58975
270.139,19.45944,-0.04139964,5.73104,0.58959
270.739,19.4758,-0.04323353,5.75261,0.58942
271.339,19.49222,-0.04535016,5.75135,0.58926
271.939,19.50855,-0.04704866,5.77011,0.5891
272.539,19.5249,-0.049246,5.77267,0.58893
273.139,19.5413,-0.05081756,5.80236,0.58877
273.739,19.5577,-0.05246261,5.76789,0.5886
274.339,19.57403,-0.05378196,5.78792,0.58844
274.939,19.5904,-0.05486474,5.7816,0.58827
275.539,19.6067,-0.05634935,5.78178,0.5881
276.139,19.623,-0.056524,5.79586,0.58794
276.739,19.63915,-0.05807547,5.80604,0.58777
277.339,19.65537,-0.05982979,5.82298,0.5876
277.939,19.67168,-0.06265202,5.83536,0.58744
278.539,19.688,-0.06493006,5.82717,0.58727
279.139,19.70441,-0.06714245,5.84034,0.5871
279.739,19.72089,-0.06907446,5.85568,0.58694
280.339,19.7374,-0.07075468,5.87535,0.58677
280.939,19.75381,-0.07236867,5.87826,0.5866
281.539,19.77017,-0.07393701,5.88187,0.58643
282.139,19.7865,-0.07587163,5.88519,0.58626
282.739,19.80283,-0.0781509,5.90373,0.58609
283.339,19.81914,-0.08053717,5.92071,0.58592
283.939,19.83547,-0.08186342,5.9297,0.58575
284.539,19.85182,-0.08315634,5.94061,0.58558
285.139,19.86816,-0.0848298,5.94747,0.58541
285.739,19.88447,-0.08770258,5.96165,0.58524
286.339,19.9008,-0.08988554,5.97734,0.58507
286.939,19.91713,-0.0925842,5.9914,0.5849
287.539,19.9335,-0.09537338,5.99779,0.58473
288.139,19.9498,-0.09725793,6.00633,0.58456
288.739,19.96623,-0.09961687,5.9995,0.58438
289.339,19.98255,-0.10344,6.03885,0.58421
289.939,19.99887,-0.10612,6.02595,0.58404
290.539,20.0152,-0.1094,6.04871,0.58387
291.139,20.0315,-0.11488,6.05817,0.58369
291.739,20.04777,-0.11771,6.05278,0.58352
292.339,20.06407,-0.12149,6.06734,0.58335
292.939,20.0804,-0.12532,6.08602,0.58317
293.539,20.0967,-0.12678,6.0832,0.583
294.139,20.11295,-0.13068,6.08204,0.58283
294.739,20.12929,-0.13468,6.08482,0.58265
295.339,20.14563,-0.14017,6.07787,0.58248
295.939,20.1619,-0.14533,6.06897,0.5823
296.539,20.17822,-0.15179,6.06823,0.58213
297.139,20.1946,-0.15674,6.0917,0.58195
297.739,20.21092,-0.16274,6.15868,0.58177
298.339,20.22715,-0.16966,6.26678,0.5816
298.939,20.24344,-0.17662,6.42524,0.58142
299.539,20.25979,-0.18624,6.58822,0.58124
300.139,20.27608,-0.19441,6.79225,0.58107
300.739,20.2924,-0.20472,7.00553,0.58089
301.339,20.30871,-0.21446,7.27707,0.58071
301.939,20.32505,-0.22377,7.53924,0.58054
302.539,20.34136,-0.23572,7.80533,0.58036
303.139,20.35766,-0.24533,8.0988,0.58018
303.739,20.37404,-0.25807,8.36468,0.58
304.339,20.39037,-0.26996,8.64545,0.57982
304.939,20.40673,-0.28205,8.89936,0.57964
305.539,20.42312,-0.2965,9.18761,0.57947
306.139,20.43952,-0.30826,9.44873,0.57929
306.739,20.45595,-0.32427,9.71683,0.57911
307.339,20.4723,-0.3383,9.97491,0.57893
307.939,20.48868,-0.35382,10.21898,0.57875
308.539,20.5051,-0.37133,10.47211,0.57857
309.139,20.52153,-0.38539,10.70984,0.57839
309.739,20.53795,-0.40509,10.93175,0.5782
310.339,20.5544,-0.42085,11.14632,0.57802
310.939,20.57089,-0.43948,11.36082,0.57784
311.539,20.5873,-0.45895,11.57119,0.57766
312.139,20.60381,-0.47713,11.7484,0.57748
312.739,20.62027,-0.50029,11.94314,0.5773
313.339,20.63668,-0.51794,12.1255,0.57712
313.939,20.65315,-0.54001,12.2889,0.57693
314.539,20.6696,-0.56093,12.46411,0.57675
315.139,20.68606,-0.58186,12.60577,0.57657
315.739,20.70253,-0.60688,12.75493,0.57638
316.339,20.71895,-0.62699,12.89281,0.5762
316.939,20.73545,-0.65316,13.0075,0.57602
317.539,20.7519,-0.67486,13.12716,0.57583
318.139,20.7684,-0.6985,13.25472,0.57565
318.739,20.78484,-0.72593,13.3507,0.57547
319.339,20.80136,-0.74907,13.44077,0.57528
319.939,20.8178,-0.77881,13.5049,0.5751
320.539,20.8342,-0.80165,13.5869,0.57491
321.139,20.85063,-0.82835,13.6287,0.57473
321.739,20.86712,-0.85633,13.673,0.57454
322.339,20.88363,-0.88124,13.70955,0.57436
322.939,20.90012,-0.91124,13.70362,0.57417
323.539,20.91664,-0.93452,13.70616,0.57398
324.139,20.93316,-0.96424,13.7026,0.5738
324.739,20.9497,-0.99167,13.67269,0.57361
325.339,20.96612,-1.01825,13.6202,0.57342
325.939,20.9826,-1.04921,13.58591,0.57324
326.539,20.99905,-1.07232,13.5221,0.57305
327.139,21.01551,-1.10143,13.43011,0.57286
327.739,21.03197,-1.12552,13.3334,0.57267
328.339,21.0485,-1.15154,13.20943,0.57249
328.939,21.06491,-1.17993,13.05096,0.5723
329.539,21.08137,-1.20309,12.91809,0.57211
330.139,21.09783,-1.23219,12.78467,0.57192
330.739,21.11431,-1.25439,12.63641,0.57173
331.339,21.13079,-1.28014,12.51789,0.57155
331.939,21.1473,-1.3056,12.3695,0.57136
332.539,21.16377,-1.32765,12.23825,0.57117
333.139,21.18026,-1.35444,12.1196,0.57098
333.739,21.19678,-1.37395,11.97023,0.57079
334.339,21.21327,-1.39776,11.83716,0.5706
334.939,21.22981,-1.41957,11.70386,0.57041
335.539,21.24632,-1.44099,11.5549,0.57022
336.139,21.26286,-1.46531,11.3873,0.57003
336.739,21.27938,-1.4834,11.25185,0.56984
337.339,21.29585,-1.50546,11.1068,0.56965
337.939,21.31241,-1.52321,10.93207,0.56945
338.539,21.3289,-1.54241,10.7959,0.56926
339.139,21.34534,-1.56328,10.63415,0.56907
339.739,21.36186,-1.58079,10.4831,0.56888
340.339,21.3783,-1.60323,10.32423,0.56869
340.939,21.3948,-1.61863,10.17195,0.5685
341.539,21.41135,-1.63614,10.03238,0.5683
342.139,21.42786,-1.65291,9.87276,0.56811
342.739,21.44432,-1.66826,9.73095,0.56792
343.339,21.4608,-1.68712,9.58791,0.56773
343.939,21.4773,-1.70098,9.47928,0.56753
344.539,21.4939,-1.71691,9.3357,0.56734
345.139,21.51037,-1.73179,9.20077,0.56715
345.739,21.5269,-1.74664,9.04947,0.56695
346.339,21.5434,-1.76303,8.90081,0.56676
346.939,21.55997,-1.77513,8.76672,0.56657
347.539,21.57649,-1.79023,8.60581,0.56637
348.139,21.59297,-1.80214,8.45499,0.56618
348.739,21.60949,-1.81536,8.30994,0.56598
349.339,21.62601,-1.83042,8.168,0.56579
349.939,21.64254,-1.84242,8.02337,0.56559
350.539,21.659,-1.85699,7.87509,0.5654
351.139,21.67559,-1.86751,7.73074,0.5652
351.739,21.69213,-1.87966,7.56965,0.56501
352.339,21.7087,-1.89052,7.42111,0.56481
352.939,21.7253,-1.9006,7.26239,0.56462
353.539,21.74181,-1.91272,7.10773,0.56442
354.139,21.75835,-1.92176,6.96869,0.56422
354.739,21.7749,-1.93335,6.80353,0.56403
355.339,21.79149,-1.94298,6.63922,0.56383
355.939,21.80806,-1.95287,6.46744,0.56363
356.539,21.8246,-1.96331,6.3169,0.56344
357.139,21.8412,-1.97135,6.14956,0.56324
357.739,21.8578,-1.98151,5.9832,0.56304
358.339,21.87436,-1.98934,5.81634,0.56284
358.939,21.89091,-1.99827,5.64607,0.56265
359.539,21.90746,-2.00646,5.4869,0.56245
360.139,21.924,-2.01324,5.32182,0.56225
360.739,21.9406,-2.02111,5.16601,0.56205
361.339,21.9572,-2.02738,4.98057,0.56186
361.939,21.97373,-2.03575,4.82618,0.56166
362.539,21.99033,-2.04291,4.65862,0.56146
363.139,22.00694,-2.04921,4.49001,0.56126
363.739,22.02352,-2.05574,4.33931,0.56106
364.339,22.0401,-2.0607,4.18205,0.56086
364.939,22.0567,-2.067,4.02547,0.56066
365.539,22.07331,-2.07228,3.88453,0.56046
366.139,22.0899,-2.07754,3.72226,0.56026
366.739,22.10657,-2.08305,3.57533,0.56006
367.339,22.1232,-2.08842,3.45432,0.55986
367.939,22.13982,-2.09385,3.31543,0.55966
368.539,22.15652,-2.098,3.17179,0.55946
369.139,22.17314,-2.10284,3.06238,0.55926
369.739,22.1898,-2.10692,2.9436,0.55906
370.339,22.20644,-2.11057,2.84149,0.55886
370.939,22.22312,-2.11503,2.7357,0.55866
371.539,22.23977,-2.11776,2.6461,0.55846
372.139,22.25645,-2.12192,2.56418,0.55826
372.739,22.2732,-2.12509,2.48158,0.55806
373.339,22.2899,-2.12757,2.42366,0.55786
373.939,22.30659,-2.1304,2.35222,0.55765
374.539,22.32331,-2.13309,2.30752,0.55745
375.139,22.34001,-2.13613,2.28368,0.55725
375.739,22.3567,-2.13865,2.24287,0.55705
376.339,22.3734,-2.14047,2.21517,0.55685
376.939,22.39014,-2.14065,2.20373,0.55664
377.539,22.40683,-2.1427,2.19619,0.55644
378.139,22.42355,-2.145,2.16559,0.55624
378.739,22.4403,-2.14715,2.1738,0.55604
379.339,22.45704,-2.14892,2.16787,0.55583
379.939,22.4738,-2.15122,2.17648,0.55563
380.539,22.49063,-2.15302,2.18385,0.55543
381.139,22.50741,-2.15548,2.18033,0.55522
381.739,22.52419,-2.15783,2.21468,0.55502
382.339,22.541,-2.15846,2.20273,0.55482
382.939,22.5578,-2.15885,2.20349,0.55461
383.539,22.5745,-2.15989,2.21889,0.55441
384.139,22.59129,-2.16178,2.21306,0.5542
384.739,22.60811,-2.16342,2.24224,0.554
385.339,22.62496,-2.16467,2.22076,0.55379
385.939,22.64183,-2.16544,2.2435,0.55359
386.539,22.6587,-2.16684,2.24176,0.55339
387.139,22.67558,-2.16792,2.25583,0.55318
387.739,22.69245,-2.16944,2.25585,0.55298
388.339,22.70934,-2.17143,2.25055,0.55277
388.939,22.72619,-2.17312,2.26653,0.55257
389.539,22.74305,-2.17449,2.25684,0.55236
390.139,22.7599,-2.17594,2.27159,0.55215
390.739,22.77683,-2.17691,2.27214,0.55195
391.339,22.79373,-2.17707,2.27872,0.55174
391.939,22.81061,-2.17759,2.28928,0.55154
392.539,22.82752,-2.17883,2.30145,0.55133
393.139,22.84439,-2.1792,2.30314,0.55112
393.739,22.86133,-2.18108,2.29705,0.55092
394.339,22.87818,-2.18313,2.30107,0.55071
394.939,22.8951,-2.18502,2.29169,0.55051
395.539,22.91207,-2.18553,2.28923,0.5503
396.139,22.929,-2.18692,2.30299,0.55009
396.739,22.94601,-2.1883,2.30403,0.54989
397.339,22.96283,-2.18966,2.29572,0.54968
397.939,22.9798,-2.19129,2.3102,0.54947
398.539,22.9968,-2.1929,2.3202,0.54926
399.139,23.01376,-2.19408,2.32664,0.54906
399.739,23.03079,-2.19466,2.32688,0.54885
400.339,23.04774,-2.19619,2.33448,0.54864
400.939,23.06472,-2.19794,2.33567,0.54843
401.539,23.08174,-2.19967,2.33614,0.54823
402.139,23.09875,-2.20158,2.34841,0.54802
402.739,23.11574,-2.2033,2.35272,0.54781
403.339,23.13289,-2.20496,2.35112,0.5476
403.939,23.15005,-2.20666,2.36107,0.54739
404.539,23.16708,-2.20743,2.3637,0.54718
405.139,23.18412,-2.20846,2.38652,0.54698
405.739,23.20119,-2.21039,2.38675,0.54677
406.339,23.21815,-2.21196,2.37367,0.54656
406.939,23.2352,-2.2135,2.42689,0.54635
407.539,23.25231,-2.2158,2.42277,0.54614
408.139,23.2694,-2.21844,2.42879,0.54593
408.739,23.28645,-2.22086,2.44502,0.54572
409.339,23.3036,-2.22248,2.46361,0.54551
409.939,23.32065,-2.22431,2.47988,0.5453
410.539,23.33775,-2.22723,2.48325,0.54509
411.139,23.3549,-2.22986,2.50217,0.54488
411.739,23.37201,-2.23228,2.52659,0.54467
412.339,23.38918,-2.2341,2.53008,0.54446
412.939,23.40621,-2.23628,2.55144,0.54425
413.539,23.42328,-2.23868,2.57919,0.54404
414.139,23.4404,-2.24026,2.5697,0.54383
414.739,23.45751,-2.24185,2.60565,0.54362
415.339,23.47468,-2.24342,2.63206,0.54341
415.939,23.49195,-2.24676,2.6317,0.5432
416.539,23.50924,-2.25084,2.65115,0.54299
417.139,23.52645,-2.25419,2.66228,0.54278
417.739,23.5437,-2.25647,2.6987,0.54257
418.339,23.56085,-2.25806,2.72141,0.54236
418.939,23.578,-2.26074,2.72865,0.54215
419.539,23.59516,-2.26268,2.74161,0.54194
420.139,23.6124,-2.2656,2.76795,0.54173
420.739,23.6296,-2.26941,2.77653,0.54152
421.339,23.64678,-2.27216,2.80039,0.5413
421.939,23.66405,-2.2752,2.80831,0.54109
422.539,23.68129,-2.2795,2.82056,0.54088
423.139,23.69856,-2.28299,2.83186,0.54067
423.739,23.71581,-2.28649,2.86616,0.54046
424.339,23.73313,-2.29063,2.87138,0.54025
424.939,23.75039,-2.29319,2.88119,0.54003
425.539,23.7677,-2.29651,2.89452,0.53982
426.139,23.785,-2.30146,2.91042,0.53961
426.739,23.80225,-2.30497,2.92172,0.5394
427.339,23.81954,-2.3102,2.94185,0.53919
427.939,23.83685,-2.31393,2.92691,0.53897
428.539,23.85416,-2.31744,2.94152,0.53876
429.139,23.87144,-2.32074,2.93141,0.53855
429.739,23.88875,-2.32408,2.93278,0.53834
430.339,23.90608,-2.32782,2.92514,0.53812
430.939,23.9234,-2.33276,2.93203,0.53791
431.539,23.9407,-2.33802,2.94004,0.5377
432.139,23.958,-2.3416,2.91894,0.53748
432.739,23.97541,-2.34541,2.90689,0.53727
433.339,23.9927,-2.34907,2.89848,0.53706
433.939,24.01,-2.35321,2.88208,0.53685
434.539,24.0273,-2.3574,2.86662,0.53663
435.139,24.0446,-2.36264,2.8367,0.53642
435.739,24.062,-2.36666,2.81628,0.53621
436.339,24.07937,-2.37153,2.79928,0.53599
436.939,24.0968,-2.37317,2.75863,0.53578
437.539,24.11426,-2.37737,2.73697,0.53556
438.139,24.13168,-2.38159,2.71956,0.53535
438.739,24.1491,-2.38656,2.69128,0.53514
439.339,24.16648,-2.39134,2.65436,0.53492
439.939,24.18391,-2.3974,2.63159,0.53471
440.539,24.20134,-2.40102,2.57059,0.5345
441.139,24.21878,-2.40558,2.55715,0.53428
441.739,24.2362,-2.40897,2.51427,0.53407
442.339,24.25364,-2.41347,2.48242,0.53385
442.939,24.2711,-2.41785,2.43498,0.53364
443.539,24.28854,-2.42284,2.40458,0.53342
444.139,24.30595,-2.42784,2.38343,0.53321
444.739,24.32346,-2.43198,2.33012,0.533
445.339,24.3409,-2.43783,2.30303,0.53278
445.939,24.3583,-2.44232,2.26995,0.53257
446.539,24.37574,-2.44805,2.241,0.53235
447.139,24.39321,-2.4523,2.21371,0.53214
447.739,24.41065,-2.45703,2.16866,0.53192
448.339,24.42815,-2.46026,2.14436,0.53171
448.939,24.44566,-2.46414,2.13608,0.53149
449.539,24.4632,-2.46905,2.09405,0.53128
450.139,24.4807,-2.47353,2.08741,0.53106
450.739,24.49824,-2.48002,2.06215,0.53085
451.339,24.5157,-2.48515,2.04725,0.53063
451.939,24.53324,-2.49109,2.03878,0.53042
452.539,24.55076,-2.49634,2.04066,0.5302
453.139,24.5683,-2.50217,2.02572,0.52999
453.739,24.58578,-2.50957,2.0324,0.52977
454.339,24.60335,-2.51401,2.02797,0.52956
454.939,24.62094,-2.51943,2.03067,0.52934
455.539,24.6385,-2.52399,2.05119,0.52912
456.139,24.656,-2.52996,2.0705,0.52891
456.739,24.67366,-2.53593,2.07234,0.52869
457.339,24.69126,-2.54158,2.10185,0.52848
457.939,24.70881,-2.548,2.121,0.52826
458.539,24.7264,-2.55363,2.15851,0.52805
459.139,24.74405,-2.55998,2.19452,0.52783
459.739,24.76161,-2.56547,2.22572,0.52761
460.339,24.7792,-2.57292,2.26645,0.5274
460.939,24.7969,-2.57898,2.3165,0.52718
461.539,24.81458,-2.5878,2.36325,0.52697
462.139,24.8322,-2.59416,2.40271,0.52675
462.739,24.84985,-2.60125,2.47742,0.52653
463.339,24.86746,-2.60883,2.52704,0.52632
463.939,24.88508,-2.61561,2.59172,0.5261
464.539,24.90268,-2.62468,2.65656,0.52588
465.139,24.92041,-2.63076,2.70982,0.52567
465.739,24.93814,-2.63857,2.79043,0.52545
466.339,24.95588,-2.64501,2.83474,0.52524
466.939,24.97363,-2.65272,2.89846,0.52502
467.539,24.99135,-2.66059,2.96038,0.5248
468.139,25.0091,-2.66907,3.01686,0.52459
468.739,25.02683,-2.67688,3.08129,0.52437
469.339,25.0446,-2.68337,3.12497,0.52415
469.939,25.06235,-2.69247,3.19243,0.52394
470.539,25.0802,-2.70046,3.22894,0.52372
471.139,25.098,-2.70992,3.27087,0.5235
471.739,25.11583,-2.7168,3.32417,0.52329
472.339,25.13365,-2.72527,3.37649,0.52307
472.939,25.15157,-2.73386,3.43069,0.52285
473.539,25.1694,-2.74291,3.4632,0.52264
474.139,25.18719,-2.75171,3.51735,0.52242
474.739,25.20505,-2.75892,3.55702,0.5222
475.339,25.22289,-2.76749,3.62812,0.52198
475.939,25.24073,-2.77485,3.70413,0.52177
476.539,25.2586,-2.7847,3.76349,0.52155
477.139,25.27648,-2.79358,3.80278,0.52133
477.739,25.29436,-2.80255,3.87781,0.52112
478.339,25.31224,-2.80991,3.9245,0.5209
478.939,25.33014,-2.81813,3.9715,0.52068
479.539,25.348,-2.8272,4.02547,0.52046
480.139,25.36597,-2.83621,4.07306,0.52025
480.739,25.3839,-2.84597,4.07867,0.52003
481.339,25.40183,-2.85257,4.11556,0.51981
481.939,25.41974,-2.86158,4.15641,0.5196
482.539,25.43766,-2.8697,4.15289,0.51938
483.139,25.45562,-2.88007,4.17159,0.51916
483.739,25.47352,-2.88776,4.14971,0.51894
484.339,25.4915,-2.89594,4.17648,0.51873
484.939,25.5095,-2.90378,4.16343,0.51851
485.539,25.52751,-2.91071,4.1685,0.51829
486.139,25.5455,-2.91845,4.14109,0.51807
486.739,25.56353,-2.92502,4.13312,0.51786
487.339,25.5815,-2.93361,4.12744,0.51764
487.939,25.59957,-2.94017,4.12693,0.51742
488.539,25.61763,-2.94897,4.10089,0.5172
489.139,25.63567,-2.95624,4.0977,0.51699
489.739,25.65374,-2.96468,4.10443,0.51677
490.339,25.67181,-2.97202,4.07738,0.51655
490.939,25.68979,-2.9792,4.04438,0.51633
491.539,25.7078,-2.98629,4.03643,0.51612
492.139,25.72585,-2.9924,4.01686,0.5159
492.739,25.7439,-2.99937,4.00049,0.51568
493.339,25.76195,-3.00546,3.98227,0.51546
493.939,25.7801,-3.01278,3.95788,0.51525
494.539,25.7982,-3.01865,3.949,0.51503
495.139,25.81626,-3.02604,3.91823,0.51481
495.739,25.83434,-3.03224,3.89192,0.51459
496.339,25.85247,-3.03925,3.86254,0.51437
496.939,25.87056,-3.04549,3.84301,0.51416
497.539,25.8887,-3.05173,3.81385,0.51394
498.139,25.90683,-3.05804,3.78647,0.51372
498.739,25.92484,-3.0639,3.75447,0.5135
499.339,25.94293,-3.07141,3.73283,0.51329
499.939,25.96115,-3.07672,3.70609,0.51307
500.539,25.97931,-3.08264,3.68629,0.51285
501.139,25.99748,-3.08698,3.64392,0.51263
501.739,26.0158,-3.09198,3.60855,0.51241
502.339,26.03406,-3.09719,3.56368,0.5122
502.939,26.05219,-3.10291,3.56007,0.51198
503.539,26.07038,-3.10771,3.52114,0.51176
504.139,26.08861,-3.11248,3.48233,0.51154
504.739,26.10676,-3.1171,3.45506,0.51133
505.339,26.12495,-3.12153,3.3956,0.51111
505.939,26.14316,-3.12723,3.36727,0.51089
506.539,26.1614,-3.13188,3.33135,0.51067
507.139,26.17959,-3.13898,3.26818,0.51045
507.739,26.1978,-3.14276,3.25363,0.51024
508.339,26.216,-3.14712,3.22273,0.51002
508.939,26.23423,-3.15026,3.18333,0.5098
509.539,26.25246,-3.15478,3.15283,0.50958
510.139,26.2707,-3.15881,3.11814,0.50936
510.739,26.289,-3.16294,3.0724,0.50915
511.339,26.30725,-3.1666,3.01507,0.50893
511.939,26.32553,-3.17007,3.00737,0.50871
512.539,26.34382,-3.1734,2.95997,0.50849
513.139,26.3621,-3.17607,2.92519,0.50828
513.739,26.38038,-3.17935,2.89619,0.50806
514.339,26.3986,-3.18339,2.85244,0.50784
514.939,26.4169,-3.18669,2.82982,0.50762
515.539,26.4351,-3.18923,2.78469,0.5074
516.139,26.45342,-3.19108,2.76846,0.50719
516.739,26.4717,-3.19395,2.73209,0.50697
517.339,26.49008,-3.19792,2.69625,0.50675
517.939,26.5084,-3.20063,2.67052,0.50653
518.539,26.5266,-3.20349,2.64554,0.50632
519.139,26.54498,-3.20604,2.6092,0.5061
519.739,26.5633,-3.20843,2.57944,0.50588
520.339,26.5816,-3.21076,2.56604,0.50566
520.939,26.59995,-3.21292,2.55255,0.50545
521.539,26.61839,-3.21564,2.51411,0.50523
522.139,26.6368,-3.21847,2.48087,0.50501
522.739,26.6551,-3.2203,2.46281,0.50479
523.339,26.6735,-3.22109,2.43521,0.50457
523.939,26.69187,-3.22297,2.4115,0.50436
524.539,26.7102,-3.22414,2.40318,0.50414
525.139,26.72855,-3.22709,2.3768,0.50392
525.739,26.7469,-3.22876,2.3435,0.5037
526.339,26.7652,-3.23058,2.32223,0.50349
526.939,26.7836,-3.23079,2.3159,0.50327
527.539,26.802,-3.23241,2.27497,0.50305
528.139,26.8204,-3.23411,2.26773,0.50283
528.739,26.83884,-3.23525,2.23837,0.50262
529.339,26.8573,-3.23608,2.23863,0.5024
529.939,26.8757,-3.23778,2.20541,0.50218
530.539,26.89405,-3.23902,2.21377,0.50196
531.139,26.9124,-3.24034,2.19645,0.50175
531.739,26.93083,-3.24276,2.15979,0.50153
532.339,26.9491,-3.24433,2.16935,0.50131
532.939,26.9675,-3.24452,2.14903,0.5011
533.539,26.986,-3.24611,2.13722,0.50088
534.139,27.0044,-3.2472,2.1372,0.50066
534.739,27.0229,-3.24785,2.11318,0.50044
535.339,27.0415,-3.24936,2.12073,0.50023
535.939,27.0599,-3.25066,2.086,0.50001
536.539,27.07837,-3.25065,2.08262,0.49979
537.139,27.0968,-3.25069,2.06117,0.49957
537.739,27.1154,-3.25128,2.0708,0.49936
538.339,27.13386,-3.25147,2.06502,0.49914
538.939,27.1523,-3.25336,2.03409,0.49892
539.539,27.1708,-3.25447,2.03386,0.49871
540.139,27.18928,-3.25482,2.02227,0.49849
540.739,27.20771,-3.25605,2.01642,0.49827
541.339,27.2262,-3.25612,1.99828,0.49806
541.939,27.2447,-3.25764,1.9829,0.49784
542.539,27.26325,-3.25818,1.97534,0.49762
543.139,27.2817,-3.2595,1.9622,0.49741
543.739,27.3003,-3.25943,1.96245,0.49719
544.339,27.31881,-3.2594,1.94977,0.49697
544.939,27.33735,-3.26063,1.93496,0.49675
545.539,27.3559,-3.26074,1.94104,0.49654
546.139,27.3745,-3.26074,1.94118,0.49632
546.739,27.39303,-3.2607,1.92032,0.4961
547.339,27.41157,-3.26206,1.92589,0.49589
547.939,27.4301,-3.26327,1.9101,0.49567
548.539,27.4486,-3.26381,1.90433,0.49546
549.139,27.4671,-3.26462,1.91119,0.49524
549.739,27.48565,-3.26455,1.88575,0.49502
550.339,27.50422,-3.26563,1.87744,0.49481
550.939,27.52277,-3.26501,1.8835,0.49459
551.539,27.54137,-3.2646,1.86554,0.49437
552.139,27.56,-3.26459,1.86663,0.49416
552.739,27.5786,-3.26512,1.8525,0.49394
553.339,27.5972,-3.26604,1.85109,0.49372
553.939,27.6158,-3.26705,1.84464,0.49351
554.539,27.63438,-3.26872,1.84794,0.49329
555.139,27.65295,-3.26865,1.84047,0.49308
555.739,27.67158,-3.26915,1.82921,0.49286
556.339,27.6901,-3.27018,1.83192,0.49264
556.939,27.7087,-3.27012,1.82207,0.49243
557.539,27.72731,-3.27148,1.83775,0.49221
558.139,27.74592,-3.2715,1.82843,0.492
558.739,27.76437,-3.2715,1.83191,0.49178
559.339,27.783,-3.2715,1.82357,0.49156
559.939,27.8016,-3.27198,1.80365,0.49135
560.539,27.8203,-3.27282,1.80769,0.49113
561.139,27.83894,-3.27282,1.81464,0.49092
561.739,27.8578,-3.27282,1.81629,0.4907
562.339,27.8764,-3.27283,1.82249,0.49049
562.939,27.8951,-3.27395,1.81172,0.49027
563.539,27.91378,-3.27546,1.83575,0.49006
564.139,27.9324,-3.27542,1.81007,0.48984
564.739,27.9511,-3.2762,1.82448,0.48963
565.339,27.96978,-3.27687,1.81649,0.48941
565.939,27.98845,-3.27687,1.83048,0.48919
566.539,28.0072,-3.27706,1.82382,0.48898
567.139,28.02587,-3.27811,1.82185,0.48876
567.739,28.04451,-3.27819,1.82359,0.48855
568.339,28.06307,-3.27821,1.81132,0.48833
568.939,28.08182,-3.27832,1.83357,0.48812
569.539,28.1005,-3.2795,1.83448,0.4879
570.139,28.1193,-3.2795,1.81515,0.48769
570.739,28.13805,-3.2795,1.82962,0.48747
571.339,28.15685,-3.2795,1.83498,0.48726
571.939,28.1756,-3.2795,1.83441,0.48705
572.539,28.1943,-3.2795,1.82076,0.48683
573.139,28.2131,-3.27947,1.82761,0.48662
573.739,28.2319,-3.28032,1.84381,0.4864
574.339,28.2505,-3.28082,1.82801,0.48619
574.939,28.26916,-3.28078,1.83502,0.48597
575.539,28.2879,-3.28212,1.83616,0.48576
576.139,28.30674,-3.28213,1.86417,0.48554
576.739,28.3256,-3.28214,1.84733,0.48533
577.339,28.34458,-3.28236,1.84708,0.48512
577.939,28.3635,-3.2835,1.85921,0.4849
578.539,28.38236,-3.28345,1.86573,0.48469
579.139,28.40121,-3.28345,1.87298,0.48447
579.739,28.42003,-3.28345,1.90163,0.48426
580.339,28.43885,-3.28469,1.91024,0.48405
580.939,28.4577,-3.28476,1.91752,0.48383
581.539,28.4765,-3.28477,1.93464,0.48362
582.139,28.4953,-3.28478,1.95639,0.4834
582.739,28.51422,-3.28498,1.96473,0.48319
583.339,28.53309,-3.28613,1.95892,0.48298
583.939,28.5519,-3.28608,1.97894,0.48276
584.539,28.57071,-3.28608,1.97845,0.48255
585.139,28.5896,-3.28606,1.99917,0.48234
585.739,28.60845,-3.28739,2.02348,0.48212
586.339,28.62738,-3.2874,2.04528,0.48191
586.939,28.64635,-3.28735,2.05289,0.4817
587.539,28.6653,-3.28847,2.06534,0.48148
588.139,28.6842,-3.28863,2.08949,0.48127
588.739,28.7031,-3.28768,2.10312,0.48106
589.339,28.72188,-3.28774,2.11761,0.48085
589.939,28.74077,-3.28774,2.14893,0.48063
590.539,28.75974,-3.28774,2.15329,0.48042
591.139,28.77866,-3.28774,2.16611,0.48021
591.739,28.79758,-3.28774,2.1938,0.48
592.339,28.81656,-3.28767,2.22373,0.47978
592.939,28.8355,-3.28953,2.24141,0.47957
593.539,28.8543,-3.28992,2.25357,0.47936
594.139,28.87327,-3.29126,2.30263,0.47915
594.739,28.89221,-3.29147,2.29535,0.47893
595.339,28.9111,-3.29154,2.33451,0.47872
595.939,28.93007,-3.29277,2.36622,0.47851
596.539,28.9491,-3.29277,2.4186,0.4783
597.139,28.9681,-3.29277,2.44979,0.47809
597.739,28.98705,-3.29277,2.49476,0.47787
598.339,29.006,-3.29272,2.51634,0.47766
598.939,29.025,-3.29381,2.56389,0.47745
599.539,29.04402,-3.29382,2.59355,0.47724
600.139,29.063,-3.29346,2.63839,0.47703
600.739,29.082,-3.29351,2.68718,0.47682
601.339,29.10101,-3.29478,2.72652,0.4766
601.939,29.12,-3.29475,2.78976,0.47639
602.539,29.13893,-3.29475,2.87142,0.47618
603.139,29.1579,-3.29475,2.91657,0.47597
603.739,29.177,-3.29482,2.98129,0.47576
604.339,29.19609,-3.29517,3.03485,0.47555
604.939,29.2152,-3.29589,3.12018,0.47534
605.539,29.23429,-3.29748,3.2044,0.47513
606.139,29.2534,-3.29757,3.28042,0.47492
606.739,29.27243,-3.29893,3.35151,0.4747
607.339,29.2915,-3.30001,3.46007,0.47449
607.939,29.3106,-3.29999,3.54723,0.47428
608.539,29.3296,-3.29871,3.64362,0.47407
609.139,29.3487,-3.2987,3.7378,0.47386
609.739,29.36784,-3.29871,3.84174,0.47365
610.339,29.38692,-3.29924,3.94942,0.47344
610.939,29.40601,-3.30146,4.04582,0.47323
611.539,29.4252,-3.3016,4.16531,0.47302
612.139,29.44424,-3.30282,4.26022,0.47281
612.739,29.4633,-3.30276,4.35724,0.4726
613.339,29.4824,-3.30276,4.40942,0.47239
613.939,29.50155,-3.30328,4.46665,0.47218
614.539,29.5207,-3.3054,4.50386,0.47197
615.139,29.5398,-3.30538,4.47994,0.47176
615.739,29.55899,-3.30675,4.44526,0.47155
616.339,29.5781,-3.30533,4.32257,0.47134
616.939,29.59726,-3.30676,4.16505,0.47113
617.539,29.61642,-3.30681,3.95741,0.47093
618.139,29.6356,-3.3068,3.70353,0.47072
618.739,29.6547,-3.30672,3.44732,0.47051
619.339,29.67387,-3.30803,3.2144,0.4703
619.939,29.693,-3.30813,2.99923,0.47009
620.539,29.71211,-3.30811,2.84955,0.46988
621.139,29.7312,-3.30889,2.6794,0.46967
621.739,29.75035,-3.30945,2.55887,0.46946
622.339,29.76953,-3.30942,2.47145,0.46926
622.939,29.78865,-3.31096,2.38628,0.46905
623.539,29.80773,-3.31099,2.29928,0.46884
624.139,29.8269,-3.31129,2.23328,0.46863
624.739,29.84605,-3.31061,2.20006,0.46842
625.339,29.86523,-3.31083,2.15102,0.46821
625.939,29.88443,-3.31094,2.10727,0.46801
626.539,29.90376,-3.312,2.0893,0.4678
627.139,29.9229,-3.31252,2.06526,0.46759
627.739,29.94197,-3.31376,2.03894,0.46738
628.339,29.9611,-3.31373,2.03372,0.46718
628.939,29.98035,-3.31506,2.00131,0.46697
629.539,29.99953,-3.31504,1.98836,0.46676
630.139,30.0188,-3.31505,1.95637,0.46655
630.739,30.03813,-3.31585,1.95379,0.46635
631.339,30.0573,-3.31632,1.95272,0.46614
631.939,30.0765,-3.31766,1.91351,0.46593
632.539,30.0958,-3.31787,1.92814,0.46572
633.139,30.115,-3.31789,1.9219,0.46552
633.739,30.1343,-3.31794,1.91406,0.46531
634.339,30.15356,-3.31931,1.89142,0.4651
634.939,30.17278,-3.31922,1.91544,0.4649
635.539,30.192,-3.31922,1.88746,0.46469
636.139,30.21132,-3.31926,1.87531,0.46449
636.739,30.23058,-3.32054,1.86698,0.46428
637.339,30.24989,-3.32052,1.8791,0.46407
637.939,30.26916,-3.32052,1.84845,0.46387
638.539,30.28845,-3.32173,1.83676,0.46366
639.139,30.3077,-3.32183,1.82496,0.46346
639.739,30.327,-3.32179,1.81658,0.46325
640.339,30.3464,-3.32299,1.80181,0.46304
640.939,30.36565,-3.32315,1.80429,0.46284
641.539,30.38503,-3.32315,1.78311,0.46263
642.139,30.40437,-3.32308,1.78215,0.46243
642.739,30.4237,-3.32436,1.78597,0.46222
643.339,30.44298,-3.32446,1.77937,0.46202
643.939,30.4623,-3.32501,1.74906,0.46181
644.539,30.4816,-3.3244,1.74375,0.46161
645.139,30.5009,-3.32454,1.75951,0.4614
645.739,30.5202,-3.3258,1.74677,0.4612
646.339,30.5395,-3.32609,1.74457,0.46099
646.939,30.55886,-3.3271,1.73854,0.46079
647.539,30.5782,-3.32835,1.77216,0.46058
648.139,30.5975,-3.32841,1.76225,0.46038
648.739,30.61683,-3.32842,1.75727,0.46017
649.339,30.6362,-3.32842,1.75521,0.45997
649.939,30.65558,-3.32842,1.74581,0.45977
650.539,30.675,-3.3284,1.75367,0.45956
651.139,30.69442,-3.32899,1.76687,0.45936
651.739,30.7138,-3.32935,1.75949,0.45916
652.339,30.7332,-3.33067,1.74843,0.45895
652.939,30.7526,-3.33061,1.73675,0.45875
653.539,30.77194,-3.33061,1.75778,0.45854
654.139,30.79128,-3.33061,1.73399,0.45834
654.739,30.81072,-3.3306,1.73041,0.45814
655.339,30.8301,-3.33161,1.71909,0.45794
655.939,30.84958,-3.33205,1.71341,0.45773
656.539,30.86898,-3.33294,1.71058,0.45753
657.139,30.8884,-3.33336,1.69547,0.45733
657.739,30.9078,-3.33336,1.71053,0.45712
658.339,30.92713,-3.33335,1.7151,0.45692
658.939,30.94647,-3.33437,1.69104,0.45672
659.539,30.9659,-3.33465,1.67565,0.45652
660.139,30.98535,-3.33467,1.70292,0.45631
660.739,31.0048,-3.33468,1.68993,0.45611
661.339,31.0243,-3.33488,1.69291,0.45591
661.939,31.04366,-3.33604,1.68139,0.45571
662.539,31.0631,-3.33599,1.67054,0.45551
663.139,31.08261,-3.336,1.65091,0.4553
663.739,31.102,-3.33607,1.6509,0.4551
664.339,31.12153,-3.33733,1.64731,0.4549
664.939,31.14105,-3.3373,1.68112,0.4547
665.539,31.16045,-3.3373,1.67215,0.4545
666.139,31.1799,-3.33795,1.67447,0.4543
666.739,31.19936,-3.33862,1.65628,0.4541
667.339,31.2188,-3.33856,1.66515,0.4539
667.939,31.23827,-3.33993,1.63728,0.4537
668.539,31.2578,-3.33994,1.63856,0.45349
669.139,31.27729,-3.33994,1.62942,0.45329
669.739,31.2968,-3.3399,1.61531,0.45309
670.339,31.3163,-3.34129,1.59241,0.45289
670.939,31.3359,-3.34156,1.58861,0.45269
671.539,31.35535,-3.34157,1.59389,0.45249
672.139,31.37489,-3.34243,1.59171,0.45229
672.739,31.39443,-3.34287,1.59855,0.45209
673.339,31.4139,-3.34289,1.588,0.45189
673.939,31.43348,-3.34285,1.59437,0.45169
674.539,31.45304,-3.34435,1.61765,0.45149
675.139,31.4726,-3.34518,1.6074,0.45129
675.739,31.49222,-3.3452,1.61326,0.4511
676.339,31.5117,-3.34509,1.62954,0.4509
676.939,31.5312,-3.34378,1.66037,0.4507
677.539,31.5508,-3.34378,1.65237,0.4505
678.139,31.57031,-3.34447,1.63841,0.4503
678.739,31.58985,-3.3451,1.63409,0.4501
679.339,31.60949,-3.3451,1.62107,0.4499
679.939,31.629,-3.34535,1.61861,0.4497
680.539,31.6486,-3.34644,1.61347,0.44951
681.139,31.6682,-3.34638,1.61401,0.44931
681.739,31.6877,-3.34772,1.60858,0.44911
682.339,31.7073,-3.34783,1.62428,0.44891
682.939,31.72692,-3.34784,1.62212,0.44871
683.539,31.74655,-3.34779,1.62146,0.44852
684.139,31.76616,-3.34897,1.63836,0.44832
684.739,31.7858,-3.34915,1.65175,0.44812
685.339,31.8055,-3.34916,1.68587,0.44792
685.939,31.82505,-3.34916,1.71829,0.44773
686.539,31.8447,-3.35009,1.70453,0.44753
687.139,31.8642,-3.35114,1.72208,0.44733
687.739,31.8838,-3.35131,1.73609,0.44713
688.339,31.90338,-3.35249,1.75879,0.44694
688.939,31.923,-3.35244,1.76964,0.44674
689.539,31.9426,-3.35244,1.80203,0.44654
690.139,31.9624,-3.35244,1.80262,0.44635
690.739,31.9821,-3.35245,1.82527,0.44615
691.339,32.00177,-3.35257,1.84925,0.44595
691.939,32.02145,-3.35376,1.85792,0.44576
692.539,32.0411,-3.35375,1.84344,0.44556
693.139,32.0608,-3.35449,1.86163,0.44537
693.739,32.08047,-3.35508,1.86733,0.44517
694.339,32.10013,-3.35509,1.8724,0.44498
694.939,32.11976,-3.3565,1.87506,0.44478
695.539,32.13949,-3.3565,1.90237,0.44458
696.139,32.15915,-3.3565,1.88406,0.44439
696.739,32.17881,-3.35647,1.86468,0.44419
697.339,32.1985,-3.35787,1.8539,0.444
697.939,32.21818,-3.35721,1.83017,0.4438
698.539,32.2378,-3.35855,1.85057,0.44361
699.139,32.25743,-3.35893,1.81975,0.44341
699.739,32.27711,-3.35983,1.80609,0.44322
700.339,32.29674,-3.3598,1.78866,0.44303
700.939,32.31641,-3.3598,1.78766,0.44283
701.539,32.33607,-3.35983,1.74904,0.44264
702.139,32.35579,-3.36034,1.71575,0.44244
702.739,32.3755,-3.36119,1.69963,0.44225
703.339,32.3952,-3.36241,1.67399,0.44206
703.939,32.41492,-3.36284,1.65166,0.44186
704.539,32.4346,-3.36381,1.62645,0.44167
705.139,32.45422,-3.36375,1.60031,0.44147
705.739,32.47391,-3.36457,1.57122,0.44128
706.339,32.49354,-3.3654,1.54132,0.44109
706.939,32.51317,-3.36686,1.51034,0.4409
707.539,32.53289,-3.36775,1.44173,0.4407
708.139,32.55271,-3.36823,1.46193,0.44051
708.739,32.57245,-3.36944,1.43522,0.44032
709.339,32.5922,-3.3686,1.42482,0.44012
709.939,32.6119,-3.36857,1.38881,0.43993
710.539,32.63159,-3.36857,1.37449,0.43974
711.139,32.6513,-3.36857,1.3271,0.43955
711.739,32.67103,-3.36857,1.34407,0.43936
712.339,32.6907,-3.36898,1.31184,0.43916
712.939,32.7105,-3.3701,1.31179,0.43897
713.539,32.73019,-3.37012,1.31625,0.43878
714.139,32.74974,-3.37152,1.3011,0.43859
714.739,32.7695,-3.37214,1.28931,0.4384
715.339,32.78926,-3.37308,1.31705,0.43821
715.939,32.80897,-3.37365,1.27571,0.43801
716.539,32.82887,-3.37441,1.27303,0.43782
717.139,32.84874,-3.37544,1.27971,0.43763
717.739,32.86845,-3.37597,1.26459,0.43744
718.339,32.88803,-3.37742,1.24963,0.43725
718.939,32.90775,-3.37745,1.23694,0.43706
719.539,32.9275,-3.37746,1.20723,0.43687
720.139,32.94727,-3.37788,1.18689,0.43668
720.739,32.9672,-3.3788,1.17525,0.43649
721.339,32.9871,-3.37877,1.17697,0.4363
721.939,33.0069,-3.37868,1.19046,0.43611
722.539,33.0267,-3.38006,1.16197,0.43592
723.139,33.0465,-3.38011,1.1343,0.43573
723.739,33.0664,-3.3807,1.13637,0.43554
724.339,33.08616,-3.38141,1.10678,0.43535
724.939,33.106,-3.3814,1.12037,0.43516
725.539,33.12577,-3.3814,1.11185,0.43497
726.139,33.1456,-3.3814,1.07138,0.43479
726.739,33.16536,-3.38236,1.06427,0.4346
727.339,33.18525,-3.38276,1.03977,0.43441
727.939,33.205,-3.38394,1.03923,0.43422
728.539,33.22483,-3.38425,1.00811,0.43403
729.139,33.2447,-3.38452,0.99481,0.43384
729.739,33.26445,-3.38526,0.9838,0.43365
730.339,33.2842,-3.38524,0.96186,0.43347
730.939,33.30508,-3.38526,0.94201,0.43328
731.539,33.32622,-3.38565,0.91712,0.43309
731.739,33.3319,-3.38594,0.90784,0.43303