File: 01_Data/Vinyl_Siding/STA/N2/30K_min/Vinyl_Siding_STA_N2_30KData_210207_R2.csv
##Temp./Â°C,Time/min,Mass loss(subtr.2)/mg,DSC(subtr.2)/mW,Sensit./(uV/mW)
50.604,10.01,-0.00856,-0.007341824,0.6235
51.204,10.9915,-0.01209152,0.11197,0.6235
51.804,11.20528,-0.01257193,0.20301,0.62349
52.404,11.35096,-0.01061629,0.28759,0.62348
53.004,11.46546,-0.01005431,0.38661,0.62347
53.604,11.55798,-0.01261835,0.43934,0.62346
54.204,11.6458,-0.01244224,0.52417,0.62346
54.804,11.7208,-0.009999487,0.6007,0.62345
55.404,11.78988,-0.0116204,0.67652,0.62344
56.004,11.8538,-0.012082,0.74025,0.62343
56.604,11.91312,-0.0116577,0.80272,0.62341
57.204,11.969,-0.01018318,0.86753,0.6234
57.804,12.02235,-0.01124347,0.93028,0.62339
58.404,12.07322,-0.01257729,0.97828,0.62338
59.004,12.12143,-0.01183505,1.02328,0.62336
59.604,12.16827,-0.01177696,1.10726,0.62335
60.204,12.21378,-0.01125371,1.14522,0.62334
60.804,12.25737,-0.0129026,1.19715,0.62332
61.404,12.30023,-0.01227246,1.26102,0.62331
62.004,12.34112,-0.01178899,1.2946,0.62329
62.604,12.3816,-0.0105373,1.34142,0.62327
63.204,12.4216,-0.01268283,1.37076,0.62326
63.804,12.4605,-0.01239542,1.41124,0.62324
64.404,12.49853,-0.01053064,1.44673,0.62322
65.004,12.53556,-0.01031576,1.46528,0.6232
65.604,12.5722,-0.01061329,1.50932,0.62318
66.204,12.60843,-0.01099781,1.53877,0.62316
66.804,12.6442,-0.01038183,1.54551,0.62314
67.404,12.67879,-0.01003926,1.5762,0.62312
68.004,12.71327,-0.01119211,1.5965,0.6231
68.604,12.74729,-0.01142577,1.60107,0.62308
69.204,12.78132,-0.01139038,1.60956,0.62306
69.804,12.815,-0.01088912,1.63237,0.62303
70.404,12.84826,-0.01126343,1.64966,0.62301
71.004,12.88076,-0.01143191,1.65182,0.62298
71.604,12.91295,-0.01226529,1.69027,0.62296
72.204,12.945,-0.01253837,1.70498,0.62294
72.804,12.97693,-0.01252467,1.72401,0.62291
73.404,13.00863,-0.01329268,1.74914,0.62288
74.004,13.04003,-0.01348632,1.76633,0.62286
74.604,13.07108,-0.01254847,1.78941,0.62283
75.204,13.10191,-0.01207678,1.79093,0.6228
75.804,13.1326,-0.01239452,1.81814,0.62277
76.404,13.16314,-0.01192808,1.84146,0.62274
77.004,13.19351,-0.01229681,1.84237,0.62271
77.604,13.22352,-0.01119768,1.86893,0.62268
78.204,13.2533,-0.01111169,1.88821,0.62265
78.804,13.28299,-0.01271414,1.91709,0.62262
79.404,13.3125,-0.0118659,1.9392,0.62259
80.004,13.3418,-0.01231365,1.96128,0.62256
80.604,13.3708,-0.01154195,1.97982,0.62253
81.204,13.3998,-0.01283178,2.00393,0.62249
81.804,13.42859,-0.01289256,2.02093,0.62246
82.404,13.4573,-0.01320452,2.0353,0.62243
83.004,13.48577,-0.01311729,2.0688,0.62239
83.604,13.514,-0.0129835,2.09917,0.62236
84.204,13.54215,-0.01273138,2.13369,0.62232
84.804,13.57022,-0.0129394,2.15294,0.62228
85.404,13.5982,-0.01158529,2.19443,0.62225
86.004,13.62592,-0.01165387,2.22976,0.62221
86.604,13.6535,-0.01253083,2.26746,0.62217
87.204,13.68095,-0.01160029,2.28233,0.62213
87.804,13.7081,-0.01123346,2.3244,0.6221
88.404,13.735,-0.01129456,2.34782,0.62206
89.004,13.76196,-0.01159076,2.36162,0.62202
89.604,13.7888,-0.01127507,2.39898,0.62198
90.204,13.81555,-0.01074684,2.42187,0.62194
90.804,13.8421,-0.0115179,2.44126,0.62189
91.404,13.86846,-0.01151581,2.45759,0.62185
92.004,13.8946,-0.01292468,2.48105,0.62181
92.604,13.92066,-0.01137956,2.49287,0.62177
93.204,13.9467,-0.01254858,2.51472,0.62172
93.804,13.97264,-0.01299847,2.52051,0.62168
94.404,13.9984,-0.01293872,2.5457,0.62164
95.004,14.02394,-0.01313889,2.55528,0.62159
95.604,14.04938,-0.0129899,2.56911,0.62155
96.204,14.0747,-0.01396505,2.58952,0.6215
96.804,14.0999,-0.01425977,2.59277,0.62145
97.404,14.1251,-0.0126575,2.59102,0.62141
98.004,14.1501,-0.01304295,2.61297,0.62136
98.604,14.1749,-0.01295702,2.62483,0.62131
99.204,14.1997,-0.01307712,2.67119,0.62126
99.804,14.2245,-0.01265913,2.6881,0.62121
100.404,14.24913,-0.01133673,2.70169,0.62116
101.004,14.2736,-0.01225008,2.72492,0.62111
101.604,14.2979,-0.01135354,2.73652,0.62106
102.204,14.322,-0.01139926,2.76941,0.62101
102.804,14.346,-0.01237721,2.79993,0.62096
103.404,14.36996,-0.01272179,2.83964,0.62091
104.004,14.39379,-0.01158744,2.87495,0.62086
104.604,14.41761,-0.01275531,2.89736,0.6208
105.204,14.4413,-0.01272314,2.93231,0.62075
105.804,14.465,-0.01225916,2.95281,0.6207
106.404,14.48859,-0.01262074,2.99388,0.62064
107.004,14.5121,-0.01274299,3.02094,0.62059
107.604,14.5355,-0.01321594,3.05187,0.62053
108.204,14.55866,-0.01273248,3.10663,0.62047
108.804,14.5819,-0.01257824,3.12531,0.62042
109.404,14.605,-0.01141549,3.1803,0.62036
110.004,14.6281,-0.01190487,3.21157,0.6203
110.604,14.65114,-0.01281207,3.25573,0.62025
111.204,14.674,-0.01412558,3.26662,0.62019
111.804,14.6968,-0.01285623,3.31541,0.62013
112.404,14.7195,-0.01283261,3.32497,0.62007
113.004,14.7421,-0.01196425,3.37834,0.62001
113.604,14.76465,-0.01284269,3.39833,0.61995
114.204,14.787,-0.01164942,3.43918,0.61989
114.804,14.8095,-0.01150644,3.47764,0.61983
115.404,14.83175,-0.01286765,3.51383,0.61976
116.004,14.8539,-0.01283366,3.54815,0.6197
116.604,14.876,-0.01283028,3.57001,0.61964
117.204,14.89805,-0.01283082,3.61404,0.61957
117.804,14.92,-0.01283,3.64653,0.61951
118.404,14.94196,-0.01364823,3.68793,0.61945
119.004,14.96389,-0.01395708,3.69795,0.61938
119.604,14.9857,-0.01267392,3.733,0.61932
120.204,15.0074,-0.01283056,3.76353,0.61925
120.804,15.02895,-0.01230952,3.77964,0.61918
121.404,15.0505,-0.01272726,3.80488,0.61912
122.004,15.072,-0.0113432,3.82199,0.61905
122.604,15.0934,-0.01280892,3.84895,0.61898
123.204,15.11475,-0.01273047,3.8682,0.61891
123.804,15.13599,-0.01278605,3.89861,0.61885
124.404,15.15726,-0.01195379,3.91931,0.61878
125.004,15.17849,-0.0127378,3.94425,0.61871
125.604,15.19958,-0.01242407,3.96661,0.61864
126.204,15.2207,-0.01142217,3.98165,0.61857
126.804,15.2416,-0.01278804,4.00853,0.6185
127.404,15.2624,-0.01272629,4.0345,0.61842
128.004,15.28325,-0.01272051,4.0666,0.61835
128.604,15.30393,-0.01272014,4.084,0.61828
129.204,15.3247,-0.0127217,4.11053,0.61821
129.804,15.3453,-0.0127936,4.15258,0.61813
130.404,15.3658,-0.01411971,4.17052,0.61806
131.004,15.3864,-0.01404318,4.18656,0.61799
131.604,15.4068,-0.01401473,4.20407,0.61791
132.204,15.42721,-0.01332727,4.24492,0.61784
132.804,15.44757,-0.01271043,4.26204,0.61776
133.404,15.46788,-0.01387966,4.29052,0.61768
134.004,15.4881,-0.01403032,4.31407,0.61761
134.604,15.50836,-0.01403685,4.33227,0.61753
135.204,15.52849,-0.01400616,4.36709,0.61745
135.804,15.5486,-0.01538725,4.40734,0.61737
136.404,15.5686,-0.01491148,4.40446,0.61729
137.004,15.58859,-0.01412461,4.44117,0.61722
137.604,15.60851,-0.01392709,4.4503,0.61714
138.204,15.62841,-0.01280033,4.47544,0.61706
138.804,15.6482,-0.01282897,4.50889,0.61698
139.404,15.668,-0.01301972,4.5289,0.6169
140.004,15.6878,-0.0141917,4.53727,0.61681
140.604,15.70749,-0.01415339,4.57066,0.61673
141.204,15.7272,-0.01414847,4.60756,0.61665
141.804,15.74681,-0.0140197,4.61489,0.61657
142.404,15.7664,-0.01276039,4.61625,0.61648
143.004,15.786,-0.01282451,4.64834,0.6164
143.604,15.80551,-0.01283053,4.66361,0.61632
144.204,15.825,-0.01284295,4.6774,0.61623
144.804,15.84443,-0.01305406,4.71681,0.61615
145.404,15.8638,-0.01420066,4.73577,0.61606
146.004,15.88316,-0.01414241,4.74819,0.61598
146.604,15.9024,-0.01402099,4.79787,0.61589
147.204,15.9217,-0.01359517,4.83235,0.6158
147.804,15.941,-0.01413699,4.86727,0.61572
148.404,15.9601,-0.01414177,4.87421,0.61563
149.004,15.97935,-0.01283315,4.91177,0.61554
149.604,15.9984,-0.01283102,4.92387,0.61545
150.204,16.01748,-0.01283812,4.94148,0.61536
150.804,16.03652,-0.01183053,4.95172,0.61527
151.404,16.05554,-0.01205535,4.98216,0.61518
152.004,16.07454,-0.01283853,4.98057,0.61509
152.604,16.09347,-0.01283063,5.00261,0.615
153.204,16.11245,-0.01283002,5.02128,0.61491
153.804,16.13137,-0.01282987,5.02835,0.61482
154.404,16.1503,-0.01282969,5.05217,0.61473
155.004,16.16904,-0.01284245,5.07222,0.61463
155.604,16.18796,-0.01362408,5.07202,0.61454
156.204,16.20675,-0.01414372,5.09694,0.61445
156.804,16.22544,-0.01414037,5.0957,0.61435
157.404,16.2441,-0.01414003,5.11805,0.61426
158.004,16.26286,-0.01414,5.12918,0.61416
158.604,16.28148,-0.01414,5.14242,0.61407
159.204,16.3001,-0.01414,5.1556,0.61397
159.804,16.3188,-0.01414001,5.17098,0.61388
160.404,16.33752,-0.01414026,5.2015,0.61378
161.004,16.3562,-0.01414638,5.22031,0.61368
161.604,16.37481,-0.01414973,5.23529,0.61359
162.204,16.3934,-0.01414998,5.2438,0.61349
162.804,16.4119,-0.01415,5.26147,0.61339
163.404,16.43034,-0.01415,5.2913,0.61329
164.004,16.44874,-0.01415,5.30394,0.61319
164.604,16.46712,-0.01415,5.29795,0.61309
165.204,16.48547,-0.01415,5.33862,0.61299
165.804,16.50389,-0.01415,5.34086,0.61289
166.404,16.52224,-0.01415,5.35569,0.61279
167.004,16.54055,-0.01415,5.37535,0.61269
167.604,16.55884,-0.01415,5.38693,0.61259
168.204,16.57716,-0.01415002,5.41136,0.61249
168.804,16.59544,-0.01415026,5.41125,0.61238
169.404,16.61378,-0.01415281,5.40913,0.61228
170.004,16.6321,-0.01417104,5.45913,0.61218
170.604,16.65034,-0.01346178,5.46361,0.61207
171.204,16.66861,-0.0128119,5.49598,0.61197
171.804,16.68681,-0.01388247,5.50715,0.61186
172.404,16.70499,-0.01412552,5.53443,0.61176
173.004,16.72319,-0.01414816,5.55933,0.61165
173.604,16.74139,-0.01414991,5.55582,0.61155
174.204,16.7595,-0.01415,5.57,0.61144
174.804,16.7776,-0.01415,5.59009,0.61133
175.404,16.79567,-0.01415,5.58604,0.61123
176.004,16.81372,-0.01415001,5.61578,0.61112
176.604,16.83168,-0.01415005,5.62359,0.61101
177.204,16.8496,-0.01414987,5.64726,0.6109
177.804,16.8675,-0.01414211,5.658,0.61079
178.404,16.88547,-0.01403166,5.66928,0.61069
179.004,16.90336,-0.01505448,5.69624,0.61058
179.604,16.92128,-0.01413462,5.69738,0.61047
180.204,16.93925,-0.01414032,5.70108,0.61035
180.804,16.95713,-0.01414007,5.71705,0.61024
181.404,16.97496,-0.01413953,5.71835,0.61013
182.004,16.99276,-0.014136,5.73882,0.61002
182.604,17.01055,-0.01451807,5.7539,0.60991
183.204,17.0282,-0.01549296,5.77232,0.6098
183.804,17.0459,-0.01546557,5.77596,0.60968
184.404,17.06363,-0.0154605,5.80811,0.60957
185.004,17.08134,-0.01546002,5.79886,0.60946
185.604,17.099,-0.01546,5.82425,0.60934
186.204,17.11662,-0.01546,5.82541,0.60923
186.804,17.1342,-0.01546001,5.85762,0.60911
187.404,17.15178,-0.01546005,5.87104,0.609
188.004,17.16936,-0.01545983,5.8769,0.60888
188.604,17.18694,-0.01545329,5.87294,0.60876
189.204,17.20448,-0.01537649,5.88646,0.60865
189.804,17.222,-0.01659268,5.90609,0.60853
190.404,17.23948,-0.01649202,5.89128,0.60841
191.004,17.25694,-0.01540006,5.89455,0.6083
191.604,17.27434,-0.01545314,5.92146,0.60818
192.204,17.2917,-0.01545963,5.93098,0.60806
192.804,17.3092,-0.01546002,5.9411,0.60794
193.404,17.32664,-0.01546001,5.94846,0.60782
194.004,17.34404,-0.01546,5.95433,0.6077
194.604,17.36143,-0.01546,5.97386,0.60758
195.204,17.37874,-0.01546,5.97764,0.60746
195.804,17.39604,-0.01545996,5.99447,0.60734
196.404,17.4133,-0.01545966,5.99371,0.60722
197.004,17.43061,-0.01545925,6.00856,0.6071
197.604,17.44787,-0.01548179,6.01271,0.60697
198.204,17.4653,-0.01595472,5.99931,0.60685
198.804,17.48262,-0.01678631,6.04364,0.60673
199.404,17.49992,-0.01677998,6.04587,0.60661
200.004,17.51697,-0.01678167,6.04631,0.60648
200.604,17.53404,-0.01682207,6.03746,0.60636
201.204,17.55122,-0.01815571,6.05421,0.60623
201.804,17.56833,-0.01809192,6.06114,0.60611
202.404,17.58531,-0.01810527,6.0828,0.60598
203.004,17.60259,-0.01751547,6.07101,0.60586
203.604,17.61993,-0.0167789,6.09869,0.60573
204.204,17.63716,-0.01677594,6.11185,0.60561
204.804,17.6543,-0.0167795,6.10642,0.60548
205.404,17.67166,-0.01677997,6.12225,0.60535
206.004,17.68885,-0.01678,6.12748,0.60522
206.604,17.70588,-0.01678,6.13501,0.6051
207.204,17.72297,-0.01678,6.11368,0.60497
207.804,17.74002,-0.01678,6.1241,0.60484
208.404,17.75702,-0.01677975,6.12764,0.60471
209.004,17.77404,-0.01677711,6.14099,0.60458
209.604,17.79115,-0.01676944,6.14796,0.60445
210.204,17.8081,-0.01727681,6.15962,0.60432
210.804,17.82515,-0.01813826,6.16575,0.60419
211.404,17.84218,-0.01809318,6.17317,0.60406
212.004,17.85918,-0.01808985,6.1927,0.60393
212.604,17.87612,-0.01808995,6.1914,0.6038
213.204,17.8931,-0.01809001,6.19535,0.60367
213.804,17.91003,-0.01809,6.19674,0.60353
214.404,17.92696,-0.01808868,6.21824,0.6034
215.004,17.94385,-0.01807533,6.2207,0.60327
215.604,17.96079,-0.01805255,6.23585,0.60313
216.204,17.9777,-0.01739785,6.24026,0.603
216.804,17.99465,-0.01742507,6.24573,0.60287
217.404,18.0116,-0.01742974,6.26011,0.60273
218.004,18.02844,-0.01743003,6.2632,0.6026
218.604,18.04534,-0.01742997,6.27129,0.60246
219.204,18.06224,-0.01742978,6.28321,0.60233
219.804,18.07907,-0.01743086,6.29827,0.60219
220.404,18.0959,-0.0175234,6.31512,0.60205
221.004,18.11276,-0.01884139,6.31891,0.60192
221.604,18.1296,-0.01874825,6.33247,0.60178
222.204,18.14634,-0.01875054,6.34121,0.60164
222.804,18.16314,-0.01877675,6.34737,0.60151
223.404,18.17994,-0.02006663,6.34086,0.60137
224.004,18.19674,-0.02006671,6.354,0.60123
224.604,18.2135,-0.02023426,6.36495,0.60109
225.204,18.23035,-0.02140022,6.37717,0.60095
225.804,18.2471,-0.02136845,6.36778,0.60081
226.404,18.26385,-0.02120205,6.39121,0.60067
227.004,18.28063,-0.02005263,6.39171,0.60053
227.604,18.29735,-0.02007742,6.39487,0.60039
228.204,18.31407,-0.020071,6.40609,0.60025
228.804,18.3308,-0.02007003,6.42152,0.60011
229.404,18.3475,-0.02006999,6.40514,0.59997
230.004,18.36417,-0.02007001,6.42991,0.59983
230.604,18.38083,-0.02007002,6.42051,0.59968
231.204,18.39751,-0.02006955,6.43504,0.59954
231.804,18.41415,-0.02006432,6.44031,0.5994
232.404,18.43086,-0.02005517,6.44015,0.59925
233.004,18.44754,-0.02081905,6.45028,0.59911
233.604,18.46421,-0.02139725,6.46111,0.59897
234.204,18.4809,-0.02139138,6.46381,0.59882
234.804,18.49761,-0.02136706,6.4713,0.59868
235.404,18.51426,-0.02101099,6.4799,0.59853
236.004,18.5309,-0.02006679,6.48708,0.59839
236.604,18.54758,-0.02007066,6.48362,0.59824
237.204,18.5642,-0.02006705,6.49716,0.5981
237.804,18.58084,-0.0200623,6.49346,0.59795
238.404,18.59745,-0.0205191,6.51259,0.5978
239.004,18.61404,-0.02144203,6.52271,0.59766
239.604,18.63063,-0.02139123,6.51803,0.59751
240.204,18.64718,-0.02138956,6.52757,0.59736
240.804,18.66375,-0.0213913,6.53659,0.59721
241.404,18.6803,-0.02139137,6.54947,0.59706
242.004,18.69688,-0.02129643,6.53727,0.59692
242.604,18.71343,-0.02257929,6.55192,0.59677
243.204,18.72997,-0.02270005,6.54352,0.59662
243.804,18.74652,-0.02271421,6.5457,0.59647
244.404,18.76302,-0.02283611,6.54629,0.59632
245.004,18.77955,-0.02400505,6.56309,0.59617
245.604,18.7961,-0.02400899,6.55723,0.59602
246.204,18.81264,-0.02401711,6.55252,0.59587
246.804,18.8292,-0.02402567,6.56205,0.59571
247.404,18.84575,-0.02433734,6.56607,0.59556
248.004,18.86232,-0.02538421,6.57363,0.59541
248.604,18.87878,-0.02534441,6.56418,0.59526
249.204,18.89526,-0.02561044,6.55276,0.59511
249.804,18.91175,-0.02681794,6.55757,0.59495
250.404,18.9282,-0.02675971,6.55248,0.5948
251.004,18.9447,-0.02758434,6.54904,0.59465
251.604,18.96115,-0.02808074,6.57608,0.59449
252.204,18.9776,-0.0275569,6.57781,0.59434
252.804,18.99408,-0.02743953,6.58534,0.59418
253.404,19.01053,-0.02742035,6.58818,0.59403
254.004,19.02698,-0.02742156,6.61407,0.59387
254.604,19.0434,-0.02745103,6.60664,0.59372
255.204,19.05987,-0.02873253,6.62206,0.59356
255.804,19.07631,-0.02875162,6.63474,0.59341
256.404,19.09275,-0.0289949,6.64811,0.59325
257.004,19.10914,-0.02942679,6.68485,0.59309
257.604,19.12555,-0.02940362,6.69158,0.59294
258.204,19.14191,-0.02993418,6.69633,0.59278
258.804,19.15833,-0.03099728,6.70473,0.59262
259.404,19.17474,-0.03161724,6.73722,0.59246
260.004,19.19116,-0.0336029,6.72735,0.5923
260.604,19.2075,-0.03356164,6.76436,0.59215
261.204,19.22397,-0.03435016,6.76666,0.59199
261.804,19.2404,-0.0337631,6.79453,0.59183
262.404,19.25681,-0.03513898,6.80268,0.59167
263.004,19.2732,-0.03609208,6.84542,0.59151
263.604,19.28965,-0.03706772,6.84787,0.59135
264.204,19.3061,-0.03847501,6.86156,0.59119
264.804,19.32248,-0.03879859,6.88991,0.59103
265.404,19.33884,-0.04026196,6.9121,0.59087
266.004,19.35524,-0.04177054,6.91213,0.59071
266.604,19.3716,-0.04341874,6.91903,0.59054
267.204,19.3879,-0.04470988,6.93781,0.59038
267.804,19.40423,-0.04646161,6.95496,0.59022
268.404,19.42059,-0.04765386,6.97653,0.59006
269.004,19.43695,-0.04907735,6.99194,0.5899
269.604,19.45334,-0.05019079,6.99154,0.58973
270.204,19.46969,-0.05175901,7.01104,0.58957
270.804,19.48604,-0.05244731,7.0285,0.58941
271.404,19.50244,-0.05336287,7.02941,0.58924
272.004,19.51882,-0.05460778,7.05381,0.58908
272.604,19.53519,-0.05624308,7.03595,0.58891
273.204,19.5515,-0.05881962,7.05379,0.58875
273.804,19.56781,-0.06097927,7.07425,0.58858
274.404,19.58417,-0.06317712,7.09428,0.58842
275.004,19.60054,-0.06476494,7.09212,0.58825
275.604,19.61688,-0.06610313,7.10627,0.58809
276.204,19.63327,-0.06719358,7.11542,0.58792
276.804,19.6497,-0.06886814,7.12794,0.58775
277.404,19.66611,-0.06956231,7.12285,0.58759
278.004,19.68245,-0.07066365,7.13289,0.58742
278.604,19.69879,-0.07208448,7.10918,0.58725
279.204,19.7151,-0.07245308,7.12713,0.58708
279.804,19.73145,-0.07404863,7.11402,0.58692
280.404,19.74776,-0.07549585,7.13417,0.58675
281.004,19.76414,-0.07764794,7.14134,0.58658
281.604,19.7805,-0.08069082,7.15497,0.58641
282.204,19.79676,-0.08226315,7.16311,0.58624
282.804,19.8131,-0.08443351,7.17395,0.58607
283.404,19.8294,-0.08646571,7.19191,0.5859
284.004,19.84571,-0.08824068,7.18717,0.58573
284.604,19.86199,-0.09040237,7.20507,0.58556
285.204,19.87833,-0.09294651,7.19751,0.58539
285.804,19.8947,-0.09557016,7.23059,0.58522
286.404,19.91101,-0.09868,7.24102,0.58505
287.004,19.92734,-0.10197,7.26592,0.58488
287.604,19.94368,-0.10415,7.2584,0.58471
288.204,19.96003,-0.10639,7.28177,0.58454
288.804,19.97636,-0.10856,7.29107,0.58437
289.404,19.99268,-0.11185,7.30325,0.58419
290.004,20.00897,-0.11506,7.32016,0.58402
290.604,20.0253,-0.11863,7.32529,0.58385
291.204,20.0415,-0.11982,7.32502,0.58368
291.804,20.05783,-0.12236,7.33719,0.5835
292.404,20.07414,-0.12601,7.35332,0.58333
293.004,20.09049,-0.12901,7.34132,0.58315
293.604,20.10685,-0.133,7.36625,0.58298
294.204,20.12319,-0.13727,7.34472,0.58281
294.804,20.1395,-0.1422,7.34884,0.58263
295.404,20.1558,-0.14832,7.33427,0.58246
296.004,20.1721,-0.15498,7.34758,0.58228
296.604,20.18833,-0.16021,7.36252,0.58211
297.204,20.2046,-0.16656,7.38491,0.58193
297.804,20.2209,-0.17145,7.45261,0.58175
298.404,20.23716,-0.1766,7.54213,0.58158
299.004,20.25348,-0.18446,7.68835,0.5814
299.604,20.26983,-0.19175,7.86613,0.58123
300.204,20.28621,-0.20204,8.07303,0.58105
300.804,20.30252,-0.21011,8.29088,0.58087
301.404,20.31888,-0.21908,8.53832,0.58069
302.004,20.33521,-0.22973,8.80176,0.58052
302.604,20.35154,-0.23951,9.05824,0.58034
303.204,20.36788,-0.25238,9.33905,0.58016
303.804,20.3842,-0.26216,9.60809,0.57998
304.404,20.40061,-0.27476,9.86952,0.5798
305.004,20.417,-0.28814,10.15043,0.57962
305.604,20.4334,-0.3007,10.39284,0.57945
306.204,20.44975,-0.31741,10.66968,0.57927
306.804,20.4662,-0.33044,10.9297,0.57909
307.404,20.48255,-0.34619,11.17605,0.57891
308.004,20.49896,-0.36066,11.42994,0.57873
308.604,20.51535,-0.3748,11.66954,0.57855
309.204,20.53182,-0.39289,11.90127,0.57837
309.804,20.54828,-0.4075,12.12942,0.57819
310.404,20.56476,-0.42662,12.34644,0.578
311.004,20.5812,-0.44424,12.55055,0.57782
311.604,20.5977,-0.46346,12.77528,0.57764
312.204,20.61422,-0.48564,12.95769,0.57746
312.804,20.63064,-0.50289,13.1618,0.57728
313.404,20.6471,-0.52529,13.3218,0.5771
314.004,20.66348,-0.54386,13.49054,0.57691
314.604,20.67987,-0.56502,13.65751,0.57673
315.204,20.69633,-0.58791,13.8046,0.57655
315.804,20.71281,-0.60789,13.96155,0.57636
316.404,20.72934,-0.63421,14.0849,0.57618
317.004,20.7458,-0.65508,14.21835,0.576
317.604,20.76238,-0.68077,14.33351,0.57581
318.204,20.77885,-0.7051,14.4528,0.57563
318.804,20.79535,-0.72838,14.55189,0.57545
319.404,20.81179,-0.75646,14.63285,0.57526
320.004,20.82829,-0.77828,14.7311,0.57508
320.604,20.84476,-0.80609,14.81069,0.57489
321.204,20.86125,-0.83024,14.8673,0.57471
321.804,20.87774,-0.8561,14.9067,0.57452
322.404,20.89426,-0.88607,14.9272,0.57434
323.004,20.91079,-0.91061,14.966,0.57415
323.604,20.92727,-0.94188,14.97417,0.57396
324.204,20.94374,-0.96643,14.9641,0.57378
324.804,20.96026,-0.99414,14.9556,0.57359
325.404,20.97673,-1.02235,14.8996,0.5734
326.004,20.99319,-1.04685,14.86151,0.57322
326.604,21.00967,-1.07755,14.80614,0.57303
327.204,21.02618,-1.10075,14.7545,0.57284
327.804,21.04266,-1.12958,14.6677,0.57265
328.404,21.05915,-1.15597,14.60159,0.57247
329.004,21.0757,-1.18128,14.4832,0.57228
329.604,21.0921,-1.21107,14.37911,0.57209
330.204,21.1086,-1.23447,14.2512,0.5719
330.804,21.12514,-1.26267,14.12175,0.57171
331.404,21.14161,-1.28555,14.01216,0.57152
332.004,21.15811,-1.30913,13.87019,0.57134
332.604,21.17466,-1.33446,13.73451,0.57115
333.204,21.19114,-1.35522,13.59416,0.57096
333.804,21.2076,-1.38155,13.43346,0.57077
334.404,21.22414,-1.40237,13.27479,0.57058
335.004,21.24065,-1.42588,13.12597,0.57039
335.604,21.2571,-1.44894,12.96899,0.5702
336.204,21.27361,-1.46823,12.80027,0.57001
336.804,21.29012,-1.491,12.62462,0.56982
337.404,21.30663,-1.50748,12.44212,0.56963
338.004,21.32312,-1.5281,12.25545,0.56943
338.604,21.33963,-1.54763,12.1286,0.56924
339.204,21.35613,-1.56646,11.9523,0.56905
339.804,21.37267,-1.58782,11.78532,0.56886
340.404,21.3891,-1.6031,11.63528,0.56867
341.004,21.4056,-1.62266,11.48189,0.56848
341.604,21.42211,-1.63863,11.32132,0.56828
342.204,21.4387,-1.65569,11.16317,0.56809
342.804,21.4552,-1.67366,11.0048,0.5679
343.404,21.47175,-1.68822,10.8398,0.56771
344.004,21.4883,-1.70625,10.69338,0.56751
344.604,21.50487,-1.71957,10.5352,0.56732
345.204,21.52136,-1.73515,10.3843,0.56713
345.804,21.53785,-1.75015,10.22903,0.56693
346.404,21.55438,-1.76371,10.07296,0.56674
347.004,21.5708,-1.7799,9.92274,0.56654
347.604,21.58736,-1.79131,9.77475,0.56635
348.204,21.6037,-1.80644,9.63516,0.56616
348.804,21.62025,-1.81897,9.48505,0.56596
349.404,21.63676,-1.83152,9.33251,0.56577
350.004,21.65326,-1.84562,9.1507,0.56557
350.604,21.6698,-1.85552,9.01579,0.56538
351.204,21.6864,-1.86863,8.84176,0.56518
351.804,21.70298,-1.87866,8.70371,0.56499
352.404,21.71953,-1.89024,8.55104,0.56479
353.004,21.7361,-1.90315,8.39362,0.56459
353.604,21.7527,-1.9129,8.23501,0.5644
354.204,21.76924,-1.92411,8.06806,0.5642
354.804,21.78578,-1.9322,7.92372,0.56401
355.404,21.80234,-1.94204,7.75692,0.56381
356.004,21.8189,-1.95137,7.60836,0.56361
356.604,21.8354,-1.96005,7.43657,0.56342
357.204,21.8519,-1.97001,7.28273,0.56322
357.804,21.8685,-1.97742,7.1083,0.56302
358.404,21.88502,-1.98651,6.94388,0.56282
359.004,21.90158,-1.99434,6.77138,0.56263
359.604,21.9181,-2.00287,6.59805,0.56243
360.204,21.93479,-2.01175,6.43158,0.56223
360.804,21.95139,-2.01803,6.27861,0.56203
361.404,21.968,-2.0241,6.10212,0.56183
362.004,21.9846,-2.02955,5.94203,0.56164
362.604,22.0012,-2.03563,5.7791,0.56144
363.204,22.01781,-2.042,5.62607,0.56124
363.804,22.03445,-2.04796,5.4521,0.56104
364.404,22.05104,-2.05466,5.323,0.56084
365.004,22.06768,-2.05949,5.15877,0.56064
365.604,22.08434,-2.06534,4.99602,0.56044
366.204,22.10097,-2.07059,4.85345,0.56024
366.804,22.11759,-2.07549,4.71809,0.56004
367.404,22.13421,-2.0804,4.60489,0.55984
368.004,22.15085,-2.08448,4.47696,0.55964
368.604,22.16751,-2.08936,4.34391,0.55944
369.204,22.18412,-2.09286,4.2356,0.55924
369.804,22.2008,-2.0965,4.12746,0.55904
370.404,22.21748,-2.10035,4.0292,0.55884
371.004,22.23414,-2.10237,3.95603,0.55864
371.604,22.25081,-2.10611,3.88231,0.55844
372.204,22.26754,-2.10908,3.81502,0.55824
372.804,22.28421,-2.11234,3.75135,0.55804
373.404,22.30095,-2.11566,3.66413,0.55783
374.004,22.31765,-2.11759,3.63005,0.55763
374.604,22.3344,-2.11993,3.59178,0.55743
375.204,22.35112,-2.1231,3.55352,0.55723
375.804,22.36786,-2.12555,3.53202,0.55703
376.404,22.3845,-2.12831,3.50522,0.55682
377.004,22.40129,-2.13184,3.50386,0.55662
377.604,22.41801,-2.13415,3.50731,0.55642
378.204,22.4347,-2.13609,3.48295,0.55622
378.804,22.45143,-2.13784,3.5133,0.55601
379.404,22.4682,-2.13961,3.50638,0.55581
380.004,22.48498,-2.14167,3.50818,0.55561
380.604,22.50176,-2.14303,3.5134,0.5554
381.204,22.51861,-2.14471,3.53374,0.5552
381.804,22.53539,-2.14592,3.5438,0.555
382.404,22.5522,-2.14717,3.55678,0.55479
383.004,22.56907,-2.14866,3.55942,0.55459
383.604,22.58587,-2.15056,3.56935,0.55439
384.204,22.60268,-2.15251,3.57524,0.55418
384.804,22.6195,-2.15418,3.57808,0.55398
385.404,22.63636,-2.15495,3.59544,0.55377
386.004,22.65322,-2.15586,3.60474,0.55357
386.604,22.67011,-2.15586,3.604,0.55336
387.204,22.68698,-2.15472,3.6111,0.55316
387.804,22.7039,-2.15599,3.62119,0.55295
388.404,22.7208,-2.1559,3.61706,0.55275
389.004,22.73763,-2.158,3.64096,0.55254
389.604,22.75454,-2.15926,3.62321,0.55234
390.204,22.77141,-2.16055,3.62765,0.55213
390.804,22.7883,-2.16298,3.63549,0.55193
391.404,22.8052,-2.16537,3.62329,0.55172
392.004,22.82218,-2.16727,3.64019,0.55151
392.604,22.83914,-2.16828,3.63446,0.55131
393.204,22.85612,-2.16882,3.64322,0.5511
393.804,22.87305,-2.16949,3.63865,0.5509
394.404,22.89,-2.17024,3.64229,0.55069
395.004,22.90683,-2.17188,3.63943,0.55048
395.604,22.92377,-2.17343,3.65396,0.55028
396.204,22.94075,-2.17504,3.6596,0.55007
396.804,22.95774,-2.17667,3.66939,0.54986
397.404,22.9747,-2.17814,3.67768,0.54966
398.004,22.99175,-2.17967,3.67841,0.54945
398.604,23.0088,-2.18242,3.68731,0.54924
399.204,23.0258,-2.18314,3.70925,0.54903
399.804,23.04279,-2.18437,3.69835,0.54883
400.404,23.05975,-2.18579,3.7114,0.54862
401.004,23.07685,-2.18807,3.72409,0.54841
401.604,23.0939,-2.18944,3.73524,0.5482
402.204,23.1109,-2.19042,3.72644,0.548
402.804,23.12789,-2.19197,3.74598,0.54779
403.404,23.14495,-2.19502,3.74463,0.54758
404.004,23.162,-2.19714,3.75855,0.54737
404.604,23.17906,-2.19902,3.76798,0.54716
405.204,23.1961,-2.20034,3.78793,0.54695
405.804,23.21319,-2.20166,3.78926,0.54674
406.404,23.23027,-2.2033,3.80444,0.54654
407.004,23.24731,-2.2055,3.83135,0.54633
407.604,23.26441,-2.20773,3.84312,0.54612
408.204,23.28152,-2.20962,3.84839,0.54591
408.804,23.2986,-2.21121,3.87322,0.5457
409.404,23.31564,-2.21258,3.88393,0.54549
410.004,23.33278,-2.21455,3.89524,0.54528
410.604,23.34991,-2.21773,3.9065,0.54507
411.204,23.36702,-2.22051,3.92802,0.54486
411.804,23.3842,-2.22221,3.94695,0.54465
412.404,23.4013,-2.22456,3.95434,0.54444
413.004,23.4185,-2.22743,3.9808,0.54423
413.604,23.4356,-2.22953,3.9964,0.54402
414.204,23.45277,-2.23233,4.02313,0.54381
414.804,23.46988,-2.23549,4.04884,0.5436
415.404,23.487,-2.23703,4.0534,0.54339
416.004,23.50415,-2.23942,4.0824,0.54318
416.604,23.5213,-2.24311,4.08143,0.54297
417.204,23.5384,-2.2459,4.11067,0.54276
417.804,23.55566,-2.24878,4.14985,0.54255
418.404,23.57285,-2.25126,4.16156,0.54234
419.004,23.59,-2.25317,4.17969,0.54213
419.604,23.60714,-2.25642,4.20514,0.54192
420.204,23.62435,-2.26065,4.20608,0.5417
420.804,23.6416,-2.26401,4.23704,0.54149
421.404,23.6588,-2.26727,4.25149,0.54128
422.004,23.67608,-2.27114,4.27397,0.54107
422.604,23.69342,-2.2741,4.28845,0.54086
423.204,23.7106,-2.27702,4.31444,0.54065
423.804,23.72788,-2.28088,4.32661,0.54044
424.404,23.7452,-2.28441,4.33112,0.54022
425.004,23.76245,-2.28726,4.34012,0.54001
425.604,23.77976,-2.28978,4.34441,0.5398
426.204,23.7971,-2.29327,4.34726,0.53959
426.804,23.81431,-2.29679,4.36442,0.53938
427.404,23.83155,-2.30036,4.39204,0.53916
428.004,23.84879,-2.30551,4.37139,0.53895
428.604,23.86605,-2.30955,4.38846,0.53874
429.204,23.88336,-2.31433,4.37607,0.53853
429.804,23.9007,-2.31822,4.37681,0.53831
430.404,23.91801,-2.32215,4.37324,0.5381
431.004,23.93536,-2.32691,4.37112,0.53789
431.604,23.95269,-2.33082,4.33605,0.53767
432.204,23.97002,-2.33599,4.33659,0.53746
432.804,23.98732,-2.33984,4.32079,0.53725
433.404,24.0046,-2.34437,4.30166,0.53704
434.004,24.0219,-2.34808,4.29141,0.53682
434.604,24.03932,-2.35223,4.26189,0.53661
435.204,24.0567,-2.35713,4.24444,0.5364
435.804,24.0741,-2.36127,4.21503,0.53618
436.404,24.0915,-2.36651,4.18825,0.53597
437.004,24.10886,-2.37004,4.14454,0.53576
437.604,24.12623,-2.37447,4.12811,0.53554
438.204,24.14365,-2.37811,4.0739,0.53533
438.804,24.16103,-2.38283,4.08449,0.53511
439.404,24.17846,-2.38805,4.01272,0.5349
440.004,24.1959,-2.39252,4.00094,0.53469
440.604,24.2133,-2.39724,3.96294,0.53447
441.204,24.23067,-2.40086,3.93035,0.53426
441.804,24.2481,-2.40612,3.88994,0.53404
442.404,24.26546,-2.41077,3.84732,0.53383
443.004,24.28284,-2.41622,3.80177,0.53362
443.604,24.3003,-2.42139,3.76673,0.5334
444.204,24.31778,-2.42577,3.72356,0.53319
444.804,24.3353,-2.43019,3.67589,0.53297
445.404,24.35278,-2.43426,3.66314,0.53276
446.004,24.3703,-2.43983,3.61504,0.53254
446.604,24.38777,-2.4443,3.58156,0.53233
447.204,24.40522,-2.44942,3.53453,0.53211
447.804,24.42266,-2.45368,3.5359,0.5319
448.404,24.44011,-2.45887,3.48089,0.53168
449.004,24.45756,-2.46438,3.46083,0.53147
449.604,24.47505,-2.46929,3.42401,0.53125
450.204,24.4925,-2.47459,3.43574,0.53104
450.804,24.51004,-2.47869,3.40487,0.53082
451.404,24.52759,-2.48457,3.38436,0.53061
452.004,24.5452,-2.48944,3.37012,0.53039
452.604,24.56269,-2.49489,3.36818,0.53018
453.204,24.58023,-2.50002,3.35966,0.52996
453.804,24.59776,-2.50572,3.36987,0.52975
454.404,24.61528,-2.51294,3.36195,0.52953
455.004,24.6328,-2.51841,3.37132,0.52932
455.604,24.6504,-2.52419,3.35343,0.5291
456.204,24.66798,-2.52835,3.37341,0.52889
456.804,24.6856,-2.53414,3.3834,0.52867
457.404,24.70316,-2.54006,3.40983,0.52845
458.004,24.72081,-2.54683,3.42145,0.52824
458.604,24.73842,-2.55362,3.44763,0.52802
459.204,24.75602,-2.56015,3.49958,0.52781
459.804,24.77361,-2.56648,3.54319,0.52759
460.404,24.79125,-2.57183,3.56841,0.52737
461.004,24.80878,-2.57924,3.60735,0.52716
461.604,24.8264,-2.58416,3.65171,0.52694
462.204,24.84402,-2.59208,3.71552,0.52673
462.804,24.8616,-2.59927,3.7789,0.52651
463.404,24.87931,-2.60647,3.84987,0.52629
464.004,24.897,-2.61416,3.86999,0.52608
464.604,24.91469,-2.62125,3.93949,0.52586
465.204,24.93235,-2.63149,4.00372,0.52565
465.804,24.95,-2.63774,4.0556,0.52543
466.404,24.96772,-2.64551,4.12862,0.52521
467.004,24.98545,-2.65217,4.17589,0.525
467.604,25.00321,-2.66107,4.23723,0.52478
468.204,25.02099,-2.66881,4.29011,0.52456
468.804,25.03876,-2.67681,4.34494,0.52435
469.404,25.05656,-2.68491,4.38821,0.52413
470.004,25.07424,-2.69202,4.43388,0.52391
470.604,25.092,-2.70079,4.49087,0.5237
471.204,25.1098,-2.70828,4.52194,0.52348
471.804,25.12762,-2.71817,4.5819,0.52326
472.404,25.1454,-2.72568,4.64592,0.52305
473.004,25.16328,-2.73446,4.69473,0.52283
473.604,25.1811,-2.74234,4.72226,0.52261
474.204,25.19887,-2.75036,4.79348,0.5224
474.804,25.21668,-2.75829,4.8386,0.52218
475.404,25.23454,-2.76549,4.88012,0.52196
476.004,25.25239,-2.77554,4.94392,0.52174
476.604,25.27028,-2.78463,5.01324,0.52153
477.204,25.28813,-2.7946,5.09441,0.52131
477.804,25.3061,-2.80191,5.1455,0.52109
478.404,25.32396,-2.81071,5.21538,0.52088
479.004,25.3418,-2.81843,5.27012,0.52066
479.604,25.35974,-2.827,5.315,0.52044
480.204,25.3777,-2.83631,5.3491,0.52022
480.804,25.39564,-2.84431,5.383,0.52001
481.404,25.4136,-2.85314,5.40979,0.51979
482.004,25.43157,-2.8603,5.4346,0.51957
482.604,25.44953,-2.86843,5.43317,0.51936
483.204,25.46751,-2.87541,5.45622,0.51914
483.804,25.4854,-2.8851,5.46619,0.51892
484.404,25.5033,-2.89275,5.46886,0.5187
485.004,25.52131,-2.9006,5.48366,0.51849
485.604,25.53929,-2.90755,5.46839,0.51827
486.204,25.5573,-2.9147,5.46535,0.51805
486.804,25.57526,-2.9243,5.46692,0.51783
487.404,25.59327,-2.93223,5.44695,0.51762
488.004,25.61126,-2.94094,5.43478,0.5174
488.604,25.62924,-2.94666,5.44356,0.51718
489.204,25.64725,-2.95344,5.42673,0.51696
489.804,25.66531,-2.96027,5.41897,0.51675
490.404,25.68336,-2.96845,5.39799,0.51653
491.004,25.70138,-2.97511,5.39206,0.51631
491.604,25.71949,-2.9815,5.3741,0.51609
492.204,25.73753,-2.98886,5.37471,0.51587
492.804,25.75563,-2.9963,5.35813,0.51566
493.404,25.7737,-3.00333,5.31698,0.51544
494.004,25.79178,-3.00863,5.33227,0.51522
494.604,25.80986,-3.01619,5.30647,0.515
495.204,25.82799,-3.02203,5.28371,0.51479
495.804,25.84606,-3.02884,5.25434,0.51457
496.404,25.8642,-3.03387,5.2243,0.51435
497.004,25.88231,-3.03924,5.19203,0.51413
497.604,25.90042,-3.04477,5.17326,0.51392
498.204,25.91852,-3.04962,5.15669,0.5137
498.804,25.93669,-3.05671,5.14829,0.51348
499.404,25.9548,-3.06279,5.09023,0.51326
500.004,25.9729,-3.07127,5.07861,0.51304
500.604,25.9911,-3.07687,5.05707,0.51283
501.204,26.00926,-3.08338,5.02253,0.51261
501.804,26.0274,-3.08767,4.99929,0.51239
502.404,26.0456,-3.0929,4.97278,0.51217
503.004,26.0638,-3.09732,4.95462,0.51196
503.604,26.08192,-3.10243,4.92211,0.51174
504.204,26.1001,-3.1072,4.89935,0.51152
504.804,26.11826,-3.11182,4.86397,0.5113
505.404,26.13648,-3.1172,4.83677,0.51108
506.004,26.15466,-3.1218,4.81619,0.51087
506.604,26.17291,-3.1268,4.76411,0.51065
507.204,26.19118,-3.13061,4.72999,0.51043
507.804,26.20939,-3.13607,4.71343,0.51021
508.404,26.22767,-3.14046,4.6832,0.50999
509.004,26.2459,-3.14513,4.65538,0.50978
509.604,26.2641,-3.14801,4.61795,0.50956
510.204,26.28234,-3.15065,4.58512,0.50934
510.804,26.3007,-3.15541,4.56572,0.50912
511.404,26.3189,-3.15815,4.51261,0.50891
512.004,26.33721,-3.16205,4.49029,0.50869
512.604,26.3555,-3.16525,4.48941,0.50847
513.204,26.3738,-3.16877,4.46433,0.50825
513.804,26.39201,-3.17307,4.42098,0.50803
514.404,26.41024,-3.17685,4.3956,0.50782
515.004,26.42853,-3.17945,4.37399,0.5076
515.604,26.44677,-3.182,4.35889,0.50738
516.204,26.46505,-3.18577,4.31317,0.50716
516.804,26.4833,-3.18966,4.30713,0.50695
517.404,26.50158,-3.19173,4.26297,0.50673
518.004,26.51983,-3.19424,4.25684,0.50651
518.604,26.5382,-3.19672,4.23863,0.50629
519.204,26.5564,-3.19988,4.21281,0.50607
519.804,26.57477,-3.20222,4.18688,0.50586
520.404,26.5932,-3.20402,4.1731,0.50564
521.004,26.6115,-3.206,4.15663,0.50542
521.604,26.62985,-3.20861,4.15133,0.5052
522.204,26.6482,-3.21082,4.11537,0.50499
522.804,26.6665,-3.21337,4.11015,0.50477
523.404,26.68487,-3.21492,4.09011,0.50455
524.004,26.70325,-3.2156,4.07117,0.50433
524.604,26.72157,-3.21687,4.05314,0.50412
525.204,26.74,-3.21862,4.0426,0.5039
525.804,26.7584,-3.21953,4.02972,0.50368
526.404,26.7767,-3.22071,3.98971,0.50346
527.004,26.79513,-3.22226,3.99049,0.50325
527.604,26.8135,-3.2237,3.97704,0.50303
528.204,26.83192,-3.22517,3.9649,0.50281
528.804,26.85033,-3.22688,3.94839,0.50259
529.404,26.86872,-3.22803,3.93822,0.50238
530.004,26.8871,-3.22941,3.93233,0.50216
530.604,26.9054,-3.23105,3.90857,0.50194
531.204,26.92383,-3.23241,3.89256,0.50172
531.804,26.94215,-3.23314,3.89974,0.50151
532.404,26.96055,-3.23412,3.87649,0.50129
533.004,26.979,-3.23576,3.885,0.50107
533.604,26.99738,-3.23764,3.86882,0.50085
534.204,27.0158,-3.23927,3.85039,0.50064
534.804,27.0344,-3.23935,3.84654,0.50042
535.404,27.0528,-3.23935,3.83422,0.5002
536.004,27.07129,-3.23982,3.83893,0.49999
536.604,27.08973,-3.24089,3.83662,0.49977
537.204,27.10812,-3.24207,3.81974,0.49955
537.804,27.1266,-3.24215,3.82272,0.49933
538.404,27.14501,-3.24339,3.81952,0.49912
539.004,27.1635,-3.24404,3.79286,0.4989
539.604,27.18194,-3.2453,3.79391,0.49868
540.204,27.20048,-3.24531,3.7915,0.49847
540.804,27.21896,-3.24658,3.79326,0.49825
541.404,27.23745,-3.2466,3.76904,0.49803
542.004,27.2559,-3.24668,3.78942,0.49782
542.604,27.27443,-3.24625,3.78027,0.4976
543.204,27.2929,-3.24674,3.77091,0.49738
543.804,27.31137,-3.24796,3.78637,0.49716
544.404,27.32987,-3.24956,3.7692,0.49695
545.004,27.3484,-3.25007,3.75749,0.49673
545.604,27.36685,-3.2509,3.74826,0.49651
546.204,27.3854,-3.25095,3.75096,0.4963
546.804,27.40397,-3.25229,3.7554,0.49608
547.404,27.4225,-3.2522,3.74303,0.49586
548.004,27.441,-3.25219,3.73071,0.49565
548.604,27.4596,-3.25218,3.73124,0.49543
549.204,27.47813,-3.25344,3.71397,0.49522
549.804,27.49666,-3.25361,3.72148,0.495
550.404,27.5152,-3.25503,3.7115,0.49478
551.004,27.53381,-3.25493,3.71264,0.49457
551.604,27.55232,-3.25548,3.72307,0.49435
552.204,27.5709,-3.25622,3.71838,0.49413
552.804,27.5895,-3.25719,3.70698,0.49392
553.404,27.60806,-3.2577,3.70447,0.4937
554.004,27.62663,-3.25816,3.71033,0.49348
554.604,27.64528,-3.25778,3.69166,0.49327
555.204,27.6639,-3.25769,3.67093,0.49305
555.804,27.6825,-3.25778,3.69571,0.49284
556.404,27.70113,-3.25902,3.69397,0.49262
557.004,27.71973,-3.25899,3.70413,0.4924
557.604,27.7383,-3.2602,3.69848,0.49219
558.204,27.75693,-3.26069,3.69166,0.49197
558.804,27.77562,-3.26177,3.68571,0.49176
559.404,27.7942,-3.26165,3.68267,0.49154
560.004,27.8129,-3.26282,3.67317,0.49133
560.604,27.83158,-3.26273,3.68642,0.49111
561.204,27.8502,-3.26272,3.688,0.49089
561.804,27.8689,-3.26272,3.68803,0.49068
562.404,27.8876,-3.26269,3.67669,0.49046
563.004,27.9063,-3.26207,3.67746,0.49025
563.604,27.9249,-3.26161,3.67286,0.49003
564.204,27.9436,-3.26347,3.68715,0.48982
564.804,27.96227,-3.26354,3.68291,0.4896
565.404,27.98098,-3.26604,3.68165,0.48939
566.004,27.99965,-3.26601,3.6795,0.48917
566.604,28.01838,-3.26623,3.66945,0.48896
567.204,28.03705,-3.26631,3.68329,0.48874
567.804,28.05578,-3.26604,3.66599,0.48853
568.404,28.07455,-3.26601,3.65257,0.48831
569.004,28.0933,-3.26604,3.65723,0.4881
569.604,28.11205,-3.26741,3.66865,0.48788
570.204,28.13083,-3.26733,3.64338,0.48767
570.804,28.1496,-3.26733,3.65719,0.48745
571.404,28.16838,-3.26754,3.65496,0.48724
572.004,28.18716,-3.26866,3.64578,0.48702
572.604,28.20595,-3.26984,3.65172,0.48681
573.204,28.22472,-3.27006,3.6454,0.48659
573.804,28.24349,-3.27014,3.63901,0.48638
574.404,28.2622,-3.27026,3.63004,0.48616
575.004,28.28098,-3.27104,3.6353,0.48595
575.604,28.2998,-3.27172,3.63097,0.48574
576.204,28.3186,-3.27166,3.64944,0.48552
576.804,28.33737,-3.27301,3.6475,0.48531
577.404,28.35618,-3.27313,3.64185,0.48509
578.004,28.37497,-3.27444,3.63906,0.48488
578.604,28.39378,-3.27435,3.65146,0.48466
579.204,28.4126,-3.27432,3.65931,0.48445
579.804,28.4315,-3.27513,3.64871,0.48424
580.404,28.4503,-3.27566,3.62121,0.48402
581.004,28.4692,-3.27566,3.65629,0.48381
581.604,28.48805,-3.27558,3.64085,0.4836
582.204,28.5069,-3.27695,3.67366,0.48338
582.804,28.52569,-3.27698,3.6733,0.48317
583.404,28.5445,-3.27698,3.68369,0.48295
584.004,28.5634,-3.27698,3.68573,0.48274
584.604,28.5823,-3.27699,3.69874,0.48253
585.204,28.6012,-3.27702,3.72034,0.48231
585.804,28.6201,-3.2783,3.70965,0.4821
586.404,28.639,-3.2783,3.70959,0.48189
587.004,28.6579,-3.2783,3.72565,0.48167
587.604,28.6768,-3.27843,3.7385,0.48146
588.204,28.6957,-3.2797,3.74378,0.48125
588.804,28.71455,-3.27963,3.747,0.48104
589.404,28.7335,-3.27963,3.73655,0.48082
590.004,28.7524,-3.27967,3.76955,0.48061
590.604,28.7714,-3.27853,3.78562,0.4804
591.204,28.79027,-3.2783,3.80493,0.48018
591.804,28.8092,-3.27915,3.82311,0.47997
592.404,28.82814,-3.2811,3.81639,0.47976
593.004,28.84705,-3.28104,3.84817,0.47955
593.604,28.8659,-3.282,3.85193,0.47933
594.204,28.8849,-3.28234,3.88249,0.47912
594.804,28.9038,-3.28236,3.91751,0.47891
595.404,28.9228,-3.28236,3.93143,0.4787
596.004,28.9418,-3.28237,3.98158,0.47849
596.604,28.9608,-3.28372,3.99855,0.47827
597.204,28.97986,-3.28368,4.02943,0.47806
597.804,28.9988,-3.28368,4.04636,0.47785
598.404,29.0178,-3.28372,4.11687,0.47764
599.004,29.03683,-3.2825,4.12774,0.47743
599.604,29.05585,-3.28228,4.18769,0.47722
600.204,29.0749,-3.2836,4.20779,0.477
600.804,29.09392,-3.28368,4.26338,0.47679
601.404,29.11291,-3.2838,4.30438,0.47658
602.004,29.1319,-3.28504,4.34923,0.47637
602.604,29.15098,-3.28503,4.38521,0.47616
603.204,29.17002,-3.2863,4.45958,0.47595
603.804,29.18903,-3.28627,4.52518,0.47574
604.404,29.20813,-3.28754,4.58031,0.47552
605.004,29.2272,-3.28761,4.67004,0.47531
605.604,29.24628,-3.28864,4.7059,0.4751
606.204,29.2653,-3.28942,4.77756,0.47489
606.804,29.2845,-3.29026,4.87926,0.47468
607.404,29.30353,-3.29026,4.94563,0.47447
608.004,29.32262,-3.29021,5.03952,0.47426
608.604,29.34171,-3.29138,5.11978,0.47405
609.204,29.3608,-3.29168,5.22037,0.47384
609.804,29.3799,-3.29168,5.3348,0.47363
610.404,29.399,-3.29168,5.42201,0.47342
611.004,29.4181,-3.29169,5.50501,0.47321
611.604,29.43716,-3.29211,5.59285,0.473
612.204,29.45624,-3.29303,5.64396,0.47279
612.804,29.47533,-3.29395,5.70405,0.47258
613.404,29.49444,-3.2944,5.74838,0.47237
614.004,29.51357,-3.29458,5.75673,0.47216
614.604,29.5327,-3.29592,5.75689,0.47195
615.204,29.55185,-3.29593,5.69715,0.47174
615.804,29.5709,-3.29719,5.57732,0.47153
616.404,29.59,-3.29717,5.43097,0.47132
617.004,29.60908,-3.29717,5.23043,0.47111
617.604,29.62823,-3.2971,4.9901,0.4709
618.204,29.64736,-3.29846,4.74887,0.47069
618.804,29.66662,-3.29849,4.51207,0.47048
619.404,29.68577,-3.2988,4.31662,0.47028
620.004,29.7049,-3.29987,4.11239,0.47007
620.604,29.72402,-3.30016,3.95946,0.46986
621.204,29.74315,-3.30113,3.83856,0.46965
621.804,29.76228,-3.30116,3.72969,0.46944
622.404,29.7814,-3.30003,3.63189,0.46923
623.004,29.80055,-3.29982,3.55915,0.46902
623.604,29.8197,-3.3011,3.4971,0.46882
624.204,29.83885,-3.30111,3.43784,0.46861
624.804,29.858,-3.30161,3.37989,0.4684
625.404,29.87718,-3.30261,3.3461,0.46819
626.004,29.8963,-3.30382,3.3009,0.46798
626.604,29.9155,-3.30366,3.27843,0.46778
627.204,29.93473,-3.30499,3.23777,0.46757
627.804,29.9539,-3.3051,3.219,0.46736
628.404,29.97311,-3.30647,3.18797,0.46715
629.004,29.9923,-3.30638,3.17462,0.46695
629.604,30.01148,-3.30631,3.14357,0.46674
630.204,30.03067,-3.30538,3.11466,0.46653
630.804,30.0499,-3.30539,3.1005,0.46632
631.404,30.069,-3.3054,3.08195,0.46612
632.004,30.08825,-3.30588,3.06433,0.46591
632.604,30.1074,-3.30667,3.04108,0.4657
633.204,30.12665,-3.30792,3.02239,0.4655
633.804,30.14595,-3.30821,3.00793,0.46529
634.404,30.1652,-3.30954,2.97898,0.46508
635.004,30.1844,-3.30946,2.96788,0.46488
635.604,30.20366,-3.30945,2.96533,0.46467
636.204,30.2229,-3.31006,2.95515,0.46446
636.804,30.24209,-3.31074,2.93113,0.46426
637.404,30.26137,-3.31076,2.94496,0.46405
638.004,30.2806,-3.31078,2.91026,0.46384
638.604,30.2999,-3.31208,2.92258,0.46364
639.204,30.31914,-3.31208,2.90716,0.46343
639.804,30.3384,-3.31207,2.8909,0.46323
640.404,30.3577,-3.31322,2.88067,0.46302
641.004,30.37691,-3.31338,2.87867,0.46282
641.604,30.3962,-3.3134,2.84709,0.46261
642.204,30.4155,-3.3134,2.85195,0.4624
642.804,30.43471,-3.3134,2.84085,0.4622
643.404,30.4539,-3.3134,2.83688,0.46199
644.004,30.4733,-3.31414,2.83425,0.46179
644.604,30.4926,-3.31537,2.82837,0.46158
645.204,30.51192,-3.31592,2.7998,0.46138
645.804,30.53122,-3.3169,2.8028,0.46117
646.404,30.5506,-3.31696,2.78623,0.46097
647.004,30.5699,-3.31724,2.78346,0.46077
647.604,30.5892,-3.3169,2.76628,0.46056
648.204,30.6085,-3.3169,2.77107,0.46036
648.804,30.62789,-3.31682,2.74841,0.46015
649.404,30.6472,-3.3182,2.74584,0.45995
650.004,30.6666,-3.31822,2.73898,0.45974
650.604,30.68597,-3.31832,2.71345,0.45954
651.204,30.7053,-3.31963,2.73694,0.45934
651.804,30.72461,-3.31954,2.73245,0.45913
652.404,30.74383,-3.31947,2.70317,0.45893
653.004,30.7632,-3.32073,2.69032,0.45873
653.604,30.78268,-3.32085,2.65257,0.45852
654.204,30.8021,-3.32082,2.67246,0.45832
654.804,30.8216,-3.32195,2.64892,0.45812
655.404,30.8411,-3.32213,2.66878,0.45791
656.004,30.8605,-3.32083,2.65888,0.45771
656.604,30.87984,-3.32117,2.65321,0.45751
657.204,30.8991,-3.32218,2.63713,0.4573
657.804,30.9185,-3.32217,2.62315,0.4571
658.404,30.9378,-3.32217,2.60143,0.4569
659.004,30.9572,-3.32335,2.57613,0.4567
659.604,30.97679,-3.32358,2.57646,0.45649
660.204,30.99628,-3.3236,2.57974,0.45629
660.804,31.0158,-3.32368,2.54168,0.45609
661.404,31.03525,-3.325,2.55895,0.45589
662.004,31.0545,-3.32492,2.55697,0.45569
662.604,31.07385,-3.3249,2.55344,0.45548
663.204,31.09334,-3.32558,2.56398,0.45528
663.804,31.11275,-3.32621,2.53122,0.45508
664.404,31.13223,-3.32623,2.54631,0.45488
665.004,31.15186,-3.32623,2.54844,0.45468
665.604,31.1713,-3.32666,2.52547,0.45448
666.204,31.1908,-3.32859,2.52845,0.45428
666.804,31.2103,-3.32887,2.51179,0.45408
667.404,31.22983,-3.33039,2.50318,0.45387
668.004,31.2493,-3.33067,2.48507,0.45367
668.604,31.2688,-3.33174,2.50812,0.45347
669.204,31.28835,-3.33172,2.50942,0.45327
669.804,31.30782,-3.33172,2.50929,0.45307
670.404,31.32729,-3.33172,2.51625,0.45287
671.004,31.3469,-3.33172,2.52511,0.45267
671.604,31.36637,-3.33172,2.51394,0.45247
672.204,31.38585,-3.33181,2.51706,0.45227
672.804,31.40542,-3.33263,2.50066,0.45207
673.404,31.42496,-3.33219,2.48315,0.45187
674.004,31.44445,-3.3335,2.47255,0.45167
674.604,31.46397,-3.33358,2.49484,0.45147
675.204,31.4835,-3.33361,2.46892,0.45127
675.804,31.50295,-3.33335,2.45412,0.45107
676.404,31.52253,-3.3346,2.47086,0.45087
677.004,31.542,-3.33456,2.46998,0.45068
677.604,31.56155,-3.33456,2.49664,0.45048
678.204,31.58108,-3.33456,2.5004,0.45028
678.804,31.6006,-3.33456,2.50193,0.45008
679.404,31.62017,-3.33456,2.48962,0.44988
680.004,31.63979,-3.3352,2.50449,0.44968
680.604,31.65935,-3.33589,2.50546,0.44948
681.204,31.6789,-3.33588,2.51042,0.44929
681.804,31.69831,-3.33588,2.48123,0.44909
682.404,31.7179,-3.33588,2.51047,0.44889
683.004,31.7375,-3.33588,2.53381,0.44869
683.604,31.7569,-3.33583,2.5253,0.44849
684.204,31.7765,-3.33703,2.55128,0.4483
684.804,31.796,-3.33714,2.5721,0.4481
685.404,31.8155,-3.33828,2.60761,0.4479
686.004,31.83513,-3.33851,2.63013,0.4477
686.604,31.8549,-3.33876,2.62728,0.44751
687.204,31.87465,-3.33988,2.65442,0.44731
687.804,31.89439,-3.33989,2.65262,0.44711
688.404,31.914,-3.34132,2.68736,0.44692
689.004,31.9336,-3.33991,2.68938,0.44672
689.604,31.9533,-3.33974,2.71625,0.44652
690.204,31.97291,-3.33973,2.73516,0.44633
690.804,31.9925,-3.33973,2.734,0.44613
691.404,32.01214,-3.33973,2.77477,0.44593
692.004,32.03167,-3.3397,2.75505,0.44574
692.604,32.05124,-3.3408,2.77943,0.44554
693.204,32.07087,-3.34104,2.77217,0.44535
693.804,32.0905,-3.34141,2.80069,0.44515
694.404,32.11016,-3.34236,2.75532,0.44495
695.004,32.1299,-3.34236,2.77573,0.44476
695.604,32.14947,-3.34402,2.76612,0.44456
696.204,32.1691,-3.34506,2.77908,0.44437
696.804,32.1888,-3.3465,2.77921,0.44417
697.404,32.20843,-3.34648,2.78278,0.44398
698.004,32.22808,-3.34776,2.79188,0.44378
698.604,32.24777,-3.34782,2.76002,0.44359
699.204,32.26739,-3.34751,2.75516,0.44339
699.804,32.28702,-3.34821,2.73005,0.4432
700.404,32.30668,-3.34817,2.74823,0.443
701.004,32.3264,-3.3482,2.71012,0.44281
701.604,32.34602,-3.34784,2.687,0.44262
702.204,32.36571,-3.34848,2.68149,0.44242
702.804,32.38537,-3.34953,2.65781,0.44223
703.404,32.40508,-3.35084,2.64869,0.44203
704.004,32.42475,-3.35087,2.63563,0.44184
704.604,32.44443,-3.35205,2.61151,0.44165
705.204,32.46412,-3.35283,2.58869,0.44145
705.804,32.4838,-3.35399,2.5923,0.44126
706.404,32.50345,-3.35466,2.56397,0.44107
707.004,32.52316,-3.35528,2.56593,0.44087
707.604,32.5428,-3.35531,2.54822,0.44068
708.204,32.5625,-3.3555,2.50009,0.44049
708.804,32.5823,-3.35663,2.51051,0.4403
709.404,32.60199,-3.35663,2.48733,0.4401
710.004,32.62175,-3.35674,2.47972,0.43991
710.604,32.64147,-3.35792,2.41666,0.43972
711.204,32.66122,-3.35691,2.42507,0.43953
711.804,32.68095,-3.357,2.40764,0.43933
712.404,32.70066,-3.35826,2.3886,0.43914
713.004,32.72037,-3.35826,2.35945,0.43895
713.604,32.74006,-3.35826,2.34397,0.43876
714.204,32.75977,-3.35969,2.30194,0.43857
714.804,32.77947,-3.36083,2.27882,0.43838
715.404,32.79916,-3.36131,2.24624,0.43819
716.004,32.81882,-3.36271,2.224,0.43799
716.604,32.83856,-3.36277,2.18155,0.4378
717.204,32.8583,-3.36366,2.14678,0.43761
717.804,32.878,-3.36429,2.13085,0.43742
718.404,32.8979,-3.36554,2.11052,0.43723
719.004,32.91767,-3.36573,2.09362,0.43704
719.604,32.9375,-3.36645,2.04512,0.43685
720.204,32.95727,-3.36715,2.06119,0.43666
720.804,32.97703,-3.36709,2.01954,0.43647
721.404,32.99684,-3.36831,1.99019,0.43628
722.004,33.0167,-3.36822,1.95978,0.43609
722.604,33.03658,-3.36814,1.93234,0.4359
723.204,33.05641,-3.36812,1.92655,0.43571
723.804,33.07625,-3.36803,1.90765,0.43552
724.404,33.0961,-3.36941,1.89779,0.43533
725.004,33.11588,-3.3694,1.87728,0.43514
725.604,33.13564,-3.37063,1.8516,0.43495
726.204,33.15552,-3.37127,1.84,0.43476
726.804,33.1753,-3.37511,1.80474,0.43458
727.404,33.19513,-3.3811,1.79282,0.43439
728.004,33.21499,-3.38576,1.74429,0.4342
728.604,33.23482,-3.37845,1.74535,0.43401
729.204,33.25459,-3.36688,1.72594,0.43382
729.804,33.27449,-3.35732,1.71805,0.43363
730.404,33.29464,-3.35887,1.70511,0.43345
731.004,33.31515,-3.3653,1.6794,0.43326
731.504,33.332,-3.36889,1.64559,0.4331