File: 01_Data/Vinyl_Siding/STA/N2/30K_min/Vinyl_Siding_STA_N2_30KData_210207_R1.csv
##Temp./Â°C,Time/min,Mass loss(subtr.2)/mg,DSC(subtr.2)/mW,Sensit./(uV/mW)
50.619,10.00917,0.00767,-0.11135,0.6235
51.219,10.99502,0.006196937,-0.02757028,0.6235
51.819,11.2087,0.006737698,0.03438221,0.62349
52.419,11.35415,0.007028831,0.11741,0.62348
53.019,11.4676,0.006548934,0.15709,0.62347
53.619,11.56323,0.00881794,0.22498,0.62346
54.219,11.64691,0.00703363,0.28111,0.62346
54.819,11.72135,0.006345597,0.33432,0.62345
55.419,11.79058,0.006645481,0.38358,0.62344
56.019,11.85327,0.00707082,0.42529,0.62343
56.619,11.91268,0.007337441,0.45542,0.62341
57.219,11.96861,0.005153352,0.50822,0.6234
57.819,12.02163,0.004319601,0.54188,0.62339
58.419,12.07207,0.0055827,0.58541,0.62338
59.019,12.1211,0.00664627,0.61691,0.62336
59.619,12.16817,0.005602022,0.65427,0.62335
60.219,12.21303,0.006951844,0.70065,0.62334
60.819,12.25671,0.006692176,0.72933,0.62332
61.419,12.29926,0.00614262,0.76378,0.62331
62.019,12.34107,0.007218905,0.80379,0.62329
62.619,12.38157,0.005292078,0.8365,0.62327
63.219,12.421,0.004804244,0.86694,0.62326
63.819,12.45984,0.005084438,0.88865,0.62324
64.419,12.4978,0.006583901,0.91183,0.62322
65.019,12.53523,0.006273809,0.92582,0.6232
65.619,12.5719,0.00572984,0.94276,0.62318
66.219,12.608,0.005511119,0.97347,0.62316
66.819,12.64338,0.00443497,0.9752,0.62314
67.419,12.6784,0.00423354,0.98852,0.62312
68.019,12.7128,0.003715671,0.99077,0.6231
68.619,12.74702,0.004173477,1.00329,0.62308
69.219,12.7806,0.00527648,1.01593,0.62305
69.819,12.81396,0.006308396,1.01293,0.62303
70.419,12.84693,0.00673858,1.02892,0.62301
71.019,12.87978,0.006340389,1.04843,0.62298
71.619,12.91199,0.005876681,1.05498,0.62296
72.219,12.9442,0.004982104,1.06779,0.62293
72.819,12.97613,0.00414635,1.08421,0.62291
73.419,13.0078,0.003926578,1.10144,0.62288
74.019,13.03918,0.00449014,1.10608,0.62286
74.619,13.0702,0.00537961,1.10251,0.62283
75.219,13.10108,0.00484446,1.13503,0.6228
75.819,13.13159,0.004642961,1.13808,0.62277
76.419,13.16187,0.004378803,1.15152,0.62274
77.019,13.192,0.00441368,1.15687,0.62271
77.619,13.222,0.00448725,1.18293,0.62268
78.219,13.25186,0.004159373,1.19585,0.62265
78.819,13.28155,0.00356492,1.21388,0.62262
79.419,13.311,0.004612835,1.21794,0.62259
80.019,13.34035,0.004407321,1.22486,0.62256
80.619,13.36941,0.006031904,1.23921,0.62253
81.219,13.3985,0.005421579,1.25046,0.62249
81.819,13.4273,0.00607097,1.27427,0.62246
82.419,13.4559,0.004409148,1.28939,0.62243
83.019,13.48431,0.004377293,1.31133,0.62239
83.619,13.51255,0.003601113,1.33318,0.62236
84.219,13.54062,0.004146338,1.34583,0.62232
84.819,13.5687,0.00544788,1.36516,0.62228
85.419,13.5965,0.005490619,1.39523,0.62225
86.019,13.62432,0.00411933,1.42171,0.62221
86.619,13.65194,0.00462616,1.45589,0.62217
87.219,13.6792,0.004924581,1.45822,0.62213
87.819,13.70646,0.00406635,1.48806,0.6221
88.419,13.7336,0.00454069,1.51293,0.62206
89.019,13.7607,0.004287707,1.52463,0.62202
89.619,13.78747,0.004491734,1.54118,0.62198
90.219,13.81409,0.004027282,1.56473,0.62193
90.819,13.84053,0.0051909,1.58788,0.62189
91.419,13.86684,0.00413075,1.59117,0.62185
92.019,13.8931,0.005570177,1.59272,0.62181
92.619,13.9192,0.004169517,1.60376,0.62177
93.219,13.94519,0.003841114,1.61463,0.62172
93.819,13.971,0.00367075,1.61306,0.62168
94.419,13.99666,0.003802165,1.62383,0.62163
95.019,14.0223,0.003218225,1.62469,0.62159
95.619,14.04759,0.004289881,1.63581,0.62154
96.219,14.0729,0.00548694,1.64589,0.6215
96.819,14.09809,0.005639959,1.65634,0.62145
97.419,14.12319,0.004283617,1.66842,0.6214
98.019,14.14819,0.004604916,1.66827,0.62136
98.619,14.17305,0.004103484,1.67112,0.62131
99.219,14.19772,0.004012217,1.68439,0.62126
99.819,14.2224,0.004063464,1.71125,0.62121
100.419,14.24683,0.004064239,1.71381,0.62116
101.019,14.2711,0.003959903,1.73337,0.62111
101.619,14.2955,0.003844379,1.76545,0.62106
102.219,14.3198,0.004032701,1.7725,0.62101
102.819,14.34394,0.004093441,1.79254,0.62096
103.419,14.3682,0.004050636,1.80086,0.62091
104.019,14.39225,0.004046486,1.83909,0.62085
104.619,14.4161,0.003973769,1.86026,0.6208
105.219,14.4399,0.004352904,1.87748,0.62075
105.819,14.46344,0.004113431,1.89442,0.62069
106.419,14.48695,0.00540049,1.92191,0.62064
107.019,14.51035,0.004610633,1.94694,0.62058
107.619,14.53367,0.004078821,1.9791,0.62053
108.219,14.557,0.004576028,1.97854,0.62047
108.819,14.5802,0.004026534,2.00902,0.62042
109.419,14.6033,0.004055829,2.03616,0.62036
110.019,14.62629,0.004068242,2.05766,0.6203
110.619,14.6492,0.00307,2.06774,0.62024
111.219,14.67205,0.004032415,2.09503,0.62019
111.819,14.69484,0.004152768,2.13523,0.62013
112.419,14.7176,0.002747259,2.16383,0.62007
113.019,14.74025,0.0027782,2.17696,0.62001
113.619,14.76276,0.004100557,2.19481,0.61995
114.219,14.78519,0.003949095,2.23791,0.61989
114.819,14.80745,0.00267318,2.23981,0.61982
115.419,14.82978,0.004192093,2.27471,0.61976
116.019,14.85198,0.003564018,2.29412,0.6197
116.619,14.87413,0.002871225,2.31359,0.61964
117.219,14.8963,0.002801305,2.33458,0.61957
117.819,14.91833,0.004130629,2.34411,0.61951
118.419,14.94031,0.003726985,2.36001,0.61945
119.019,14.96215,0.002807763,2.37846,0.61938
119.619,14.9839,0.004094551,2.38595,0.61932
120.219,15.00564,0.004256968,2.40238,0.61925
120.819,15.0272,0.00288266,2.41708,0.61918
121.419,15.04884,0.003812191,2.43638,0.61912
122.019,15.07042,0.004169288,2.45177,0.61905
122.619,15.09186,0.004189041,2.46925,0.61898
123.219,15.11328,0.005581899,2.4839,0.61891
123.819,15.13463,0.004575623,2.50191,0.61884
124.419,15.15585,0.004172222,2.523,0.61878
125.019,15.17699,0.003936391,2.54458,0.61871
125.619,15.19808,0.00411156,2.53542,0.61864
126.219,15.2191,0.004169801,2.55547,0.61856
126.819,15.2401,0.004167917,2.57281,0.61849
127.419,15.26095,0.00410035,2.59044,0.61842
128.019,15.28175,0.002822989,2.59589,0.61835
128.619,15.30246,0.004249579,2.59983,0.61828
129.219,15.3232,0.004166829,2.60508,0.6182
129.819,15.3438,0.004163516,2.60182,0.61813
130.419,15.3644,0.003231361,2.65154,0.61806
131.019,15.3848,0.003964178,2.65447,0.61798
131.619,15.40526,0.004157893,2.66766,0.61791
132.219,15.4257,0.003138283,2.69122,0.61783
132.819,15.4461,0.002865963,2.71666,0.61776
133.419,15.4665,0.00285042,2.72618,0.61768
134.019,15.48679,0.002842378,2.74864,0.6176
134.619,15.507,0.002588555,2.76032,0.61753
135.219,15.527,0.002795395,2.79909,0.61745
135.819,15.54713,0.002846475,2.8174,0.61737
136.419,15.5671,0.002849741,2.82618,0.61729
137.019,15.58702,0.002849965,2.83606,0.61721
137.619,15.607,0.00284977,2.84383,0.61713
138.219,15.62695,0.002846804,2.84136,0.61705
138.819,15.64679,0.00280376,2.86257,0.61697
139.419,15.6666,0.00405069,2.88357,0.61689
140.019,15.6863,0.00415574,2.90078,0.61681
140.619,15.70602,0.004210537,2.89711,0.61673
141.219,15.7257,0.0030051,2.90329,0.61665
141.819,15.74533,0.002863577,2.92963,0.61657
142.419,15.76495,0.003147729,2.94069,0.61648
143.019,15.7845,0.003926041,2.95183,0.6164
143.619,15.80395,0.00280313,2.97304,0.61631
144.219,15.8234,0.00284061,2.98459,0.61623
144.819,15.84283,0.003555193,2.98479,0.61614
145.419,15.86219,0.004144865,3.00296,0.61606
146.019,15.8815,0.004168353,3.02929,0.61597
146.619,15.9008,0.00416986,3.05377,0.61589
147.219,15.9201,0.0041697,3.06841,0.6158
147.819,15.93924,0.004169706,3.0755,0.61571
148.419,15.9584,0.004208,3.08995,0.61563
149.019,15.97754,0.002859302,3.09337,0.61554
149.619,15.99668,0.002845438,3.11034,0.61545
150.219,16.01578,0.003872702,3.1203,0.61536
150.819,16.03473,0.004135705,3.14414,0.61527
151.419,16.05376,0.00410206,3.16472,0.61518
152.019,16.0728,0.00275543,3.1764,0.61509
152.619,16.0917,0.00285705,3.20693,0.615
153.219,16.11068,0.00295691,3.22073,0.61491
153.819,16.12967,0.004171753,3.25424,0.61482
154.419,16.14852,0.004169805,3.27491,0.61472
155.019,16.16733,0.004169957,3.29655,0.61463
155.619,16.1861,0.00417003,3.31146,0.61454
156.219,16.20487,0.004170498,3.33224,0.61444
156.819,16.22365,0.004176065,3.33729,0.61435
157.419,16.24243,0.004234063,3.34889,0.61426
158.019,16.26119,0.003041142,3.34579,0.61416
158.619,16.27992,0.00286347,3.35133,0.61407
159.219,16.29857,0.00191232,3.37893,0.61397
159.819,16.31719,0.001527055,3.3865,0.61387
160.419,16.3357,0.00152561,3.40366,0.61378
161.019,16.3542,0.00147694,3.41879,0.61368
161.619,16.37281,0.002444995,3.43421,0.61358
162.219,16.3914,0.003671105,3.46237,0.61349
162.819,16.40991,0.00415413,3.47875,0.61339
163.419,16.42848,0.00416178,3.48827,0.61329
164.019,16.44709,0.0042017,3.49043,0.61319
164.619,16.46546,0.003009346,3.50749,0.61309
165.219,16.48392,0.003683625,3.50645,0.61299
165.819,16.50236,0.004134365,3.52748,0.61289
166.419,16.52074,0.00415031,3.52828,0.61279
167.019,16.53901,0.004169485,3.5439,0.61269
167.619,16.55742,0.003137427,3.55257,0.61259
168.219,16.57581,0.002947135,3.55968,0.61248
168.819,16.59412,0.00285848,3.58226,0.61238
169.419,16.61242,0.002850637,3.57662,0.61228
170.019,16.6308,0.002850033,3.58554,0.61217
170.619,16.649,0.00285,3.6011,0.61207
171.219,16.66722,0.002849999,3.61552,0.61197
171.819,16.68543,0.00284999,3.62261,0.61186
172.419,16.70364,0.002849885,3.6381,0.61176
173.019,16.72181,0.002849025,3.65117,0.61165
173.619,16.7399,0.002846515,3.664,0.61154
174.219,16.758,0.0029034,3.68442,0.61144
174.819,16.77603,0.00155624,3.68255,0.61133
175.419,16.79405,0.001531396,3.6914,0.61122
176.019,16.81205,0.001527239,3.69942,0.61112
176.619,16.83011,0.00151831,3.73086,0.61101
177.219,16.8479,0.002127835,3.72749,0.6109
177.819,16.86584,0.002151944,3.73926,0.61079
178.419,16.88379,0.00270342,3.74724,0.61068
179.019,16.9017,0.00284425,3.76801,0.61057
179.619,16.9195,0.002851046,3.76944,0.61046
180.219,16.9375,0.00279979,3.77677,0.61035
180.819,16.95544,0.003563742,3.78224,0.61024
181.419,16.97326,0.003515157,3.78161,0.61013
182.019,16.99106,0.003510239,3.79732,0.61002
182.619,17.00891,0.00351007,3.8028,0.60991
183.219,17.0267,0.003516317,3.80869,0.60979
183.819,17.04448,0.002616542,3.81316,0.60968
184.419,17.0622,0.00221521,3.81536,0.60957
185.019,17.07989,0.00219065,3.81811,0.60945
185.619,17.09757,0.002190779,3.82939,0.60934
186.219,17.11524,0.00220856,3.84172,0.60922
186.819,17.13289,0.002416575,3.83697,0.60911
187.419,17.15054,0.00282159,3.83795,0.60899
188.019,17.1681,0.00289058,3.8358,0.60888
188.619,17.18561,0.001564235,3.84057,0.60876
189.219,17.2031,0.001531955,3.86143,0.60865
189.819,17.22056,0.00153009,3.85426,0.60853
190.419,17.238,0.00152999,3.85812,0.60841
191.019,17.25556,0.00153,3.84969,0.60829
191.619,17.273,0.00153,3.85196,0.60818
192.219,17.29044,0.00153,3.87286,0.60806
192.819,17.30789,0.00153,3.89405,0.60794
193.419,17.3253,0.00153,3.91446,0.60782
194.019,17.34265,0.00153,3.93063,0.6077
194.619,17.36008,0.00153,3.93448,0.60758
195.219,17.37744,0.00153,3.94171,0.60746
195.819,17.39476,0.00153,3.94203,0.60734
196.419,17.41208,0.00153,3.96198,0.60722
197.019,17.4294,0.00153,3.93978,0.60709
197.619,17.44665,0.00153,3.96631,0.60697
198.219,17.4639,0.00153,3.95279,0.60685
198.819,17.48121,0.00153,3.97465,0.60673
199.419,17.49845,0.00153,3.97211,0.6066
200.019,17.51569,0.00153,3.97027,0.60648
200.619,17.53279,0.00153,3.97104,0.60636
201.219,17.55005,0.00153,3.99175,0.60623
201.819,17.56719,0.00153,3.98989,0.60611
202.419,17.5843,0.00153,3.98797,0.60598
203.019,17.60149,0.00153,3.98084,0.60586
203.619,17.6187,0.00153,3.98917,0.60573
204.219,17.63583,0.001530001,4.00617,0.6056
204.819,17.65296,0.001530005,4.00231,0.60548
205.419,17.67006,0.00153002,4.01274,0.60535
206.019,17.68713,0.0015297,4.01129,0.60522
206.619,17.70426,0.001525233,4.02113,0.60509
207.219,17.72137,0.001499235,4.02394,0.60497
207.819,17.73845,0.00215626,4.02327,0.60484
208.419,17.75551,0.002176033,4.02649,0.60471
209.019,17.77254,0.00218854,4.04669,0.60458
209.619,17.78955,0.002189855,4.03416,0.60445
210.219,17.80649,0.00219673,4.04237,0.60432
210.819,17.8235,0.00140642,4.04089,0.60419
211.419,17.84049,0.0008875539,4.06248,0.60406
212.019,17.85746,0.0008488904,4.05706,0.60393
212.619,17.8745,0.000373453,4.07507,0.60379
213.219,17.89136,-0.000444891,4.07324,0.60366
213.819,17.9083,-0.000439816,4.07804,0.60353
214.419,17.92525,-0.0004418564,4.09439,0.6034
215.019,17.94219,-0.0004656221,4.1037,0.60326
215.619,17.95911,-0.001746604,4.11364,0.60313
216.219,17.97608,-0.001734158,4.11677,0.603
216.819,17.993,-0.001748147,4.13057,0.60286
217.419,18.00986,-0.001749955,4.11183,0.60273
218.019,18.02672,-0.001749949,4.13454,0.60259
218.619,18.04361,-0.001749084,4.15173,0.60246
219.219,18.0605,-0.001745558,4.17246,0.60232
219.819,18.07739,-0.0003658253,4.15168,0.60219
220.419,18.0943,0.0009322145,4.17227,0.60205
221.019,18.11115,0.0008639066,4.17618,0.60191
221.619,18.12801,0.0009235739,4.19116,0.60178
222.219,18.14481,-0.0003884381,4.1896,0.60164
222.819,18.16157,-0.0003926445,4.19966,0.6015
223.419,18.17833,-0.001346014,4.205,0.60136
224.019,18.19511,-0.001755765,4.19914,0.60123
224.619,18.21186,-0.001750482,4.19399,0.60109
225.219,18.2286,-0.00174999,4.21126,0.60095
225.819,18.24541,-0.00174997,4.21857,0.60081
226.419,18.26221,-0.001749775,4.2248,0.60067
227.019,18.27901,-0.00175012,4.2345,0.60053
227.619,18.29578,-0.001768909,4.22186,0.60039
228.219,18.3125,-0.001953806,4.22499,0.60025
228.819,18.32929,-0.002408667,4.23881,0.60011
229.419,18.346,-0.002413236,4.24612,0.59996
230.019,18.36269,-0.00241011,4.25916,0.59982
230.619,18.37937,-0.002409834,4.26852,0.59968
231.219,18.39607,-0.002428488,4.2748,0.59954
231.819,18.41271,-0.002628239,4.27307,0.59939
232.419,18.42938,-0.003067723,4.28888,0.59925
233.019,18.44608,-0.0030743,4.27982,0.59911
233.619,18.46279,-0.003082267,4.28074,0.59896
234.219,18.4795,-0.00308164,4.28468,0.59882
234.819,18.49615,-0.004014251,4.29477,0.59867
235.419,18.51281,-0.004063852,4.31206,0.59853
236.019,18.52945,-0.004067386,4.31857,0.59838
236.619,18.54606,-0.005476394,4.32778,0.59824
237.219,18.56264,-0.005686665,4.31516,0.59809
237.819,18.57926,-0.005709914,4.32673,0.59795
238.419,18.5959,-0.005710164,4.33405,0.5978
239.019,18.61254,-0.00570877,4.33565,0.59765
239.619,18.62912,-0.005710189,4.34,0.5975
240.219,18.64574,-0.00590049,4.35114,0.59736
240.819,18.66232,-0.006399657,4.35176,0.59721
241.419,18.67892,-0.006366136,4.34007,0.59706
242.019,18.69545,-0.00694036,4.33516,0.59691
242.619,18.71204,-0.007021208,4.34219,0.59676
243.219,18.72865,-0.00703411,4.35533,0.59661
243.819,18.74523,-0.007372458,4.3587,0.59646
244.419,18.76176,-0.008386539,4.36556,0.59631
245.019,18.77833,-0.008337999,4.37113,0.59616
245.619,18.7949,-0.008339188,4.38301,0.59601
246.219,18.8114,-0.008339973,4.37732,0.59586
246.819,18.828,-0.008339851,4.38537,0.59571
247.419,18.8445,-0.008336274,4.39099,0.59556
248.019,18.861,-0.00832118,4.38563,0.59541
248.619,18.87748,-0.00886435,4.39322,0.59525
249.219,18.89396,-0.009797525,4.40245,0.5951
249.819,18.91041,-0.008578746,4.39277,0.59495
250.419,18.92694,-0.008336629,4.43259,0.5948
251.019,18.94346,-0.008341815,4.45262,0.59464
251.619,18.96002,-0.008345981,4.45843,0.59449
252.219,18.97654,-0.008203294,4.44273,0.59433
252.819,18.993,-0.01052725,4.44088,0.59418
253.419,19.00949,-0.01097714,4.45708,0.59402
254.019,19.02598,-0.01098312,4.48068,0.59387
254.619,19.04242,-0.01098397,4.49119,0.59371
255.219,19.05884,-0.01097616,4.49321,0.59356
255.819,19.0753,-0.0116425,4.51139,0.5934
256.419,19.09175,-0.01134491,4.52573,0.59325
257.019,19.10819,-0.01197957,4.53231,0.59309
257.619,19.12461,-0.01304248,4.55043,0.59293
258.219,19.14104,-0.01309163,4.55734,0.59277
258.819,19.15749,-0.01424464,4.57044,0.59262
259.419,19.1739,-0.01417548,4.58992,0.59246
260.019,19.19034,-0.01535419,4.6035,0.5923
260.619,19.20676,-0.01560527,4.62683,0.59214
261.219,19.22318,-0.01708333,4.63164,0.59198
261.819,19.23953,-0.01758852,4.63911,0.59182
262.419,19.2559,-0.01892824,4.68181,0.59166
263.019,19.27231,-0.02002237,4.6908,0.59151
263.619,19.28874,-0.02169506,4.70853,0.59135
264.219,19.30511,-0.02336667,4.73177,0.59118
264.819,19.32155,-0.02410963,4.75529,0.59102
265.419,19.338,-0.02513102,4.7692,0.59086
266.019,19.35437,-0.02652617,4.76056,0.5907
266.619,19.3708,-0.02702154,4.7837,0.59054
267.219,19.3872,-0.02867767,4.78766,0.59038
267.819,19.40365,-0.03004347,4.80883,0.59022
268.419,19.42001,-0.03055011,4.84065,0.59005
269.019,19.43639,-0.0320059,4.8307,0.58989
269.619,19.4528,-0.03209947,4.84701,0.58973
270.219,19.46915,-0.03290959,4.86572,0.58956
270.819,19.48555,-0.03431123,4.87074,0.5894
271.419,19.50198,-0.03504764,4.88334,0.58924
272.019,19.51837,-0.03658699,4.89999,0.58907
272.619,19.53477,-0.03810325,4.90301,0.58891
273.219,19.5511,-0.03928668,4.90763,0.58874
273.819,19.5673,-0.04032746,4.89852,0.58858
274.419,19.5837,-0.04229557,4.90146,0.58841
275.019,19.60003,-0.04404433,4.91905,0.58825
275.619,19.61637,-0.04488273,4.94578,0.58808
276.219,19.63273,-0.04642246,4.94223,0.58792
276.819,19.64914,-0.04793831,4.94308,0.58775
277.419,19.6656,-0.04993735,4.94017,0.58758
278.019,19.68197,-0.05045322,4.96919,0.58742
278.619,19.6983,-0.051679,4.99173,0.58725
279.219,19.71467,-0.05272131,4.99703,0.58708
279.819,19.73104,-0.05455702,5.02032,0.58691
280.419,19.74738,-0.0561858,5.02175,0.58674
281.019,19.7637,-0.05768985,5.0376,0.58658
281.619,19.78005,-0.05921417,5.04189,0.58641
282.219,19.7964,-0.0615677,5.0509,0.58624
282.819,19.81275,-0.06354869,5.0694,0.58607
283.419,19.8291,-0.06558451,5.04861,0.5859
284.019,19.84546,-0.06670188,5.04181,0.58573
284.619,19.86178,-0.06858284,5.06648,0.58556
285.219,19.8781,-0.07024851,5.07513,0.58539
285.819,19.8945,-0.0723368,5.0753,0.58522
286.419,19.9108,-0.07548052,5.08985,0.58505
287.019,19.9271,-0.07799766,5.08686,0.58488
287.619,19.94347,-0.0786903,5.11041,0.58471
288.219,19.95985,-0.08025575,5.11172,0.58453
288.819,19.97619,-0.08252769,5.1226,0.58436
289.419,19.9925,-0.08623305,5.14248,0.58419
290.019,20.0089,-0.08932473,5.1483,0.58402
290.619,20.02522,-0.09211695,5.15396,0.58384
291.219,20.04157,-0.09494275,5.15918,0.58367
291.819,20.05786,-0.09699513,5.15485,0.5835
292.419,20.07416,-0.10012,5.17479,0.58332
293.019,20.0905,-0.10545,5.20239,0.58315
293.619,20.10685,-0.10862,5.18268,0.58298
294.219,20.1232,-0.11216,5.1523,0.5828
294.819,20.13953,-0.11646,5.15423,0.58263
295.419,20.1559,-0.1195,5.16344,0.58245
296.019,20.17221,-0.12384,5.14791,0.58228
296.619,20.18852,-0.12683,5.19771,0.5821
297.219,20.20487,-0.13251,5.25944,0.58193
297.819,20.22117,-0.13763,5.33782,0.58175
298.419,20.2375,-0.14381,5.43901,0.58157
299.019,20.25378,-0.15095,5.5949,0.5814
299.619,20.27017,-0.15681,5.77456,0.58122
300.219,20.2865,-0.16465,5.95058,0.58104
300.819,20.30286,-0.1718,6.16157,0.58087
301.419,20.3192,-0.18047,6.3784,0.58069
302.019,20.3356,-0.18992,6.59527,0.58051
302.619,20.35201,-0.19782,6.82773,0.58033
303.219,20.36835,-0.20752,7.04685,0.58016
303.819,20.3847,-0.21558,7.27193,0.57998
304.419,20.40113,-0.2264,7.49622,0.5798
305.019,20.4175,-0.23751,7.73016,0.57962
305.619,20.4339,-0.2482,7.94275,0.57944
306.219,20.45028,-0.26163,8.13339,0.57926
306.819,20.4666,-0.27194,8.34971,0.57908
307.419,20.48301,-0.28514,8.52942,0.5789
308.019,20.49944,-0.29743,8.75468,0.57872
308.619,20.51587,-0.31036,8.94157,0.57854
309.219,20.5323,-0.32675,9.13306,0.57836
309.819,20.54883,-0.3405,9.32165,0.57818
310.419,20.56525,-0.35698,9.50131,0.578
311.019,20.58172,-0.37072,9.65712,0.57782
311.619,20.59815,-0.38645,9.81317,0.57764
312.219,20.6146,-0.40423,9.96057,0.57746
312.819,20.63113,-0.41856,10.11641,0.57727
313.419,20.6476,-0.43789,10.26212,0.57709
314.019,20.664,-0.45287,10.39837,0.57691
314.619,20.68045,-0.47165,10.53397,0.57673
315.219,20.6969,-0.49154,10.65139,0.57654
315.819,20.71331,-0.50967,10.75768,0.57636
316.419,20.72972,-0.53162,10.8657,0.57618
317.019,20.74625,-0.54791,10.97027,0.57599
317.619,20.76272,-0.56846,11.0633,0.57581
318.219,20.7792,-0.58798,11.11641,0.57563
318.819,20.79571,-0.6092,11.2021,0.57544
319.419,20.81221,-0.6329,11.26961,0.57526
320.019,20.82874,-0.65176,11.33264,0.57507
320.619,20.84522,-0.67578,11.38203,0.57489
321.219,20.8617,-0.69612,11.4306,0.5747
321.819,20.87818,-0.71863,11.46592,0.57452
322.419,20.89467,-0.74307,11.49955,0.57433
323.019,20.91112,-0.76332,11.50633,0.57414
323.619,20.9276,-0.78902,11.51793,0.57396
324.219,20.94399,-0.80933,11.50395,0.57377
324.819,20.96049,-0.83306,11.50267,0.57359
325.419,20.977,-0.85604,11.46069,0.5734
326.019,20.9935,-0.8767,11.42053,0.57321
326.619,21.00999,-0.90219,11.362,0.57302
327.219,21.02649,-0.92193,11.2882,0.57284
327.819,21.043,-0.94629,11.2044,0.57265
328.419,21.0595,-0.96734,11.14601,0.57246
329.019,21.07594,-0.98797,11.0575,0.57227
329.619,21.0924,-1.01174,10.94753,0.57209
330.219,21.10884,-1.03019,10.85337,0.5719
330.819,21.1253,-1.05345,10.74209,0.57171
331.419,21.14177,-1.0714,10.6129,0.57152
332.019,21.15825,-1.09069,10.49361,0.57133
332.619,21.17474,-1.11166,10.38077,0.57114
333.219,21.19126,-1.12939,10.2471,0.57095
333.819,21.20777,-1.15172,10.0992,0.57076
334.419,21.2243,-1.16819,9.96827,0.57057
335.019,21.24079,-1.18728,9.83868,0.57038
335.619,21.25732,-1.2054,9.71059,0.57019
336.219,21.27382,-1.22176,9.56655,0.57
336.819,21.29027,-1.24156,9.4422,0.56981
337.419,21.3067,-1.25568,9.29921,0.56962
338.019,21.3232,-1.27272,9.15658,0.56943
338.619,21.33971,-1.28794,9.01164,0.56924
339.219,21.35622,-1.30364,8.89817,0.56905
339.819,21.37276,-1.32164,8.73744,0.56885
340.419,21.38928,-1.33442,8.61785,0.56866
341.019,21.4058,-1.34978,8.47544,0.56847
341.619,21.42236,-1.36241,8.33276,0.56828
342.219,21.43887,-1.37713,8.19923,0.56809
342.819,21.45535,-1.39251,8.06629,0.56789
343.419,21.47182,-1.40463,7.94444,0.5677
344.019,21.48834,-1.41902,7.8126,0.56751
344.619,21.5048,-1.42947,7.6842,0.56731
345.219,21.52135,-1.44189,7.56554,0.56712
345.819,21.5379,-1.45374,7.44194,0.56693
346.419,21.55446,-1.46463,7.30836,0.56673
347.019,21.57108,-1.47788,7.18671,0.56654
347.619,21.58764,-1.48766,7.06139,0.56635
348.219,21.60414,-1.4993,6.93661,0.56615
348.819,21.62067,-1.50911,6.79833,0.56596
349.419,21.63716,-1.51916,6.678,0.56576
350.019,21.6536,-1.53039,6.562,0.56557
350.619,21.67011,-1.53922,6.43271,0.56537
351.219,21.68669,-1.54963,6.31399,0.56518
351.819,21.70324,-1.55724,6.16866,0.56498
352.419,21.71979,-1.56627,6.06515,0.56479
353.019,21.73645,-1.57552,5.94909,0.56459
353.619,21.75304,-1.58309,5.81896,0.56439
354.219,21.76963,-1.593,5.69416,0.5642
354.819,21.7862,-1.60071,5.55826,0.564
355.419,21.80274,-1.61031,5.4483,0.5638
356.019,21.8193,-1.61803,5.30648,0.56361
356.619,21.83588,-1.62446,5.15238,0.56341
357.219,21.8524,-1.63166,5.00464,0.56321
357.819,21.86901,-1.63765,4.89032,0.56302
358.419,21.88565,-1.64574,4.75997,0.56282
359.019,21.90221,-1.65151,4.62172,0.56262
359.619,21.91883,-1.65733,4.46576,0.56242
360.219,21.93543,-1.66347,4.3418,0.56223
360.819,21.952,-1.6691,4.20241,0.56203
361.419,21.96859,-1.67665,4.07738,0.56183
362.019,21.98529,-1.68171,3.93749,0.56163
362.619,22.00195,-1.68679,3.80325,0.56143
363.219,22.01856,-1.69122,3.69302,0.56123
363.819,22.03519,-1.69594,3.56497,0.56103
364.419,22.0518,-1.70168,3.43954,0.56083
365.019,22.06844,-1.70573,3.31084,0.56064
365.619,22.08501,-1.71147,3.19919,0.56044
366.219,22.10166,-1.71497,3.09953,0.56024
366.819,22.11833,-1.71906,2.98884,0.56004
367.419,22.135,-1.72398,2.87309,0.55984
368.019,22.1517,-1.72772,2.77698,0.55964
368.619,22.16832,-1.73169,2.66861,0.55944
369.219,22.18504,-1.73452,2.60171,0.55924
369.819,22.2017,-1.73828,2.51976,0.55904
370.419,22.2184,-1.74232,2.43898,0.55883
371.019,22.2351,-1.74412,2.35322,0.55863
371.619,22.25179,-1.74569,2.29721,0.55843
372.219,22.26851,-1.74755,2.25319,0.55823
372.819,22.28521,-1.75047,2.19807,0.55803
373.419,22.30189,-1.75323,2.14927,0.55783
374.019,22.3186,-1.75516,2.12819,0.55763
374.619,22.33531,-1.75704,2.06835,0.55743
375.219,22.35203,-1.75874,2.04976,0.55722
375.819,22.36879,-1.76097,2.0352,0.55702
376.419,22.38552,-1.76269,2.00736,0.55682
377.019,22.40224,-1.76414,2.00178,0.55662
377.619,22.41906,-1.76649,1.99919,0.55641
378.219,22.43579,-1.76901,1.98539,0.55621
378.819,22.45253,-1.77114,2.00107,0.55601
379.419,22.46934,-1.7721,1.9932,0.55581
380.019,22.48613,-1.77374,2.00635,0.5556
380.619,22.50294,-1.77509,2.0123,0.5554
381.219,22.51974,-1.77611,2.0322,0.5552
381.819,22.53663,-1.77755,2.03139,0.55499
382.419,22.55345,-1.77922,2.02921,0.55479
383.019,22.57027,-1.78087,2.05833,0.55458
383.619,22.58707,-1.78146,2.05555,0.55438
384.219,22.60386,-1.78375,2.06491,0.55418
384.819,22.62075,-1.78394,2.06247,0.55397
385.419,22.63748,-1.78413,2.07083,0.55377
386.019,22.6542,-1.78548,2.06428,0.55356
386.619,22.671,-1.78494,2.07255,0.55336
387.219,22.6879,-1.78592,2.09048,0.55315
387.819,22.7048,-1.78754,2.08121,0.55295
388.419,22.72175,-1.78839,2.10167,0.55274
389.019,22.73876,-1.78898,2.08641,0.55254
389.619,22.7558,-1.7902,2.09116,0.55233
390.219,22.7727,-1.79099,2.073,0.55213
390.819,22.78957,-1.79351,2.08849,0.55192
391.419,22.8065,-1.79434,2.08283,0.55172
392.019,22.82337,-1.79547,2.09526,0.55151
392.619,22.84025,-1.79727,2.11204,0.5513
393.219,22.8572,-1.79873,2.10227,0.5511
393.819,22.87416,-1.79953,2.11124,0.55089
394.419,22.89116,-1.80075,2.11811,0.55068
395.019,22.90822,-1.80137,2.11579,0.55048
395.619,22.92524,-1.80243,2.12284,0.55027
396.219,22.9422,-1.80378,2.1458,0.55006
396.819,22.95925,-1.80468,2.13537,0.54986
397.419,22.97622,-1.80567,2.14377,0.54965
398.019,22.99315,-1.80735,2.14012,0.54944
398.619,23.01,-1.80871,2.13724,0.54924
399.219,23.02694,-1.80932,2.15815,0.54903
399.819,23.04395,-1.81077,2.16006,0.54882
400.419,23.06094,-1.8112,2.16368,0.54861
401.019,23.07793,-1.81133,2.16922,0.54841
401.619,23.09507,-1.81303,2.16446,0.5482
402.219,23.11221,-1.81431,2.17778,0.54799
402.819,23.1292,-1.81531,2.20477,0.54778
403.419,23.14624,-1.81704,2.19377,0.54757
404.019,23.16327,-1.81882,2.22767,0.54737
404.619,23.18028,-1.82046,2.21376,0.54716
405.219,23.19738,-1.82204,2.23156,0.54695
405.819,23.21451,-1.82381,2.2412,0.54674
406.419,23.23157,-1.82489,2.24632,0.54653
407.019,23.2487,-1.82584,2.25423,0.54632
407.619,23.26585,-1.8271,2.27463,0.54611
408.219,23.28294,-1.82872,2.26459,0.5459
408.819,23.30002,-1.83159,2.29104,0.54569
409.419,23.31715,-1.83447,2.28731,0.54549
410.019,23.33429,-1.83565,2.31911,0.54528
410.619,23.35142,-1.83691,2.32952,0.54507
411.219,23.3686,-1.83838,2.34063,0.54486
411.819,23.3857,-1.84032,2.35918,0.54465
412.419,23.40288,-1.84291,2.37565,0.54444
413.019,23.41998,-1.845,2.38747,0.54423
413.619,23.4372,-1.84693,2.40345,0.54402
414.219,23.45427,-1.84874,2.41145,0.54381
414.819,23.47144,-1.85031,2.40909,0.5436
415.419,23.48858,-1.85272,2.42566,0.54339
416.019,23.50579,-1.85512,2.43396,0.54318
416.619,23.52295,-1.85826,2.43873,0.54296
417.219,23.54018,-1.85995,2.45874,0.54275
417.819,23.5574,-1.86194,2.47454,0.54254
418.419,23.57459,-1.86466,2.48751,0.54233
419.019,23.59179,-1.86858,2.50249,0.54212
419.619,23.60902,-1.8711,2.51164,0.54191
420.219,23.62622,-1.87306,2.5133,0.5417
420.819,23.64343,-1.87573,2.53673,0.54149
421.419,23.66065,-1.87813,2.54554,0.54128
422.019,23.67785,-1.88087,2.57933,0.54106
422.619,23.69507,-1.88407,2.58544,0.54085
423.219,23.71234,-1.88672,2.59613,0.54064
423.819,23.72955,-1.88953,2.5993,0.54043
424.419,23.74684,-1.89246,2.62075,0.54022
425.019,23.76416,-1.89494,2.62989,0.54001
425.619,23.78142,-1.89755,2.62772,0.53979
426.219,23.7987,-1.90079,2.62433,0.53958
426.819,23.81602,-1.9044,2.63769,0.53937
427.419,23.83328,-1.90734,2.64057,0.53916
428.019,23.85055,-1.91002,2.63684,0.53895
428.619,23.8678,-1.91346,2.6321,0.53873
429.219,23.88512,-1.91729,2.61687,0.53852
429.819,23.9024,-1.92039,2.61026,0.53831
430.419,23.91976,-1.92409,2.59959,0.53809
431.019,23.9371,-1.92778,2.59625,0.53788
431.619,23.95441,-1.93053,2.58209,0.53767
432.219,23.97175,-1.93391,2.57114,0.53746
432.819,23.9891,-1.93879,2.54769,0.53724
433.419,24.0064,-1.94123,2.55207,0.53703
434.019,24.02375,-1.94474,2.51694,0.53682
434.619,24.0411,-1.94904,2.5115,0.5366
435.219,24.05847,-1.95075,2.48002,0.53639
435.819,24.0759,-1.95403,2.43934,0.53618
436.419,24.09323,-1.95769,2.42192,0.53596
437.019,24.1107,-1.9603,2.39556,0.53575
437.619,24.12807,-1.96335,2.38033,0.53554
438.219,24.14551,-1.96786,2.33308,0.53532
438.819,24.16292,-1.97216,2.30335,0.53511
439.419,24.1803,-1.9783,2.26745,0.53489
440.019,24.19772,-1.98219,2.23523,0.53468
440.619,24.21518,-1.98595,2.21239,0.53447
441.219,24.23264,-1.99012,2.16037,0.53425
441.819,24.25006,-1.99336,2.13769,0.53404
442.419,24.26754,-1.99755,2.10117,0.53382
443.019,24.28493,-2.00128,2.06722,0.53361
443.619,24.30235,-2.00651,2.02138,0.5334
444.219,24.3198,-2.01048,1.99219,0.53318
444.819,24.33725,-2.01445,1.95321,0.53297
445.419,24.3547,-2.01772,1.93372,0.53275
446.019,24.37221,-2.02127,1.9032,0.53254
446.619,24.3897,-2.02624,1.87455,0.53232
447.219,24.4071,-2.03022,1.84105,0.53211
447.819,24.4246,-2.03459,1.81872,0.53189
448.419,24.44215,-2.03867,1.79632,0.53168
449.019,24.45964,-2.04346,1.77682,0.53146
449.619,24.47717,-2.04641,1.76495,0.53125
450.219,24.49471,-2.05035,1.72632,0.53103
450.819,24.51224,-2.05459,1.7249,0.53082
451.419,24.52979,-2.05906,1.701,0.5306
452.019,24.54731,-2.0636,1.70445,0.53039
452.619,24.56483,-2.06878,1.68305,0.53017
453.219,24.58237,-2.07303,1.68487,0.52996
453.819,24.59986,-2.07829,1.67985,0.52974
454.419,24.61739,-2.08195,1.67876,0.52953
455.019,24.63498,-2.0874,1.69135,0.52931
455.619,24.65256,-2.09246,1.67936,0.5291
456.219,24.67015,-2.09774,1.69034,0.52888
456.819,24.68776,-2.1025,1.72247,0.52866
457.419,24.70535,-2.10672,1.74453,0.52845
458.019,24.72291,-2.11359,1.76317,0.52823
458.619,24.7405,-2.11818,1.78429,0.52802
459.219,24.75807,-2.12374,1.81718,0.5278
459.819,24.77569,-2.1284,1.84704,0.52759
460.419,24.7933,-2.13461,1.87997,0.52737
461.019,24.81099,-2.14053,1.90609,0.52715
461.619,24.82868,-2.1467,1.9434,0.52694
462.219,24.84637,-2.15259,1.99346,0.52672
462.819,24.86402,-2.15762,2.03759,0.5265
463.419,24.88166,-2.16389,2.08144,0.52629
464.019,24.89933,-2.16943,2.13809,0.52607
464.619,24.91703,-2.17693,2.19412,0.52586
465.219,24.93471,-2.18272,2.25225,0.52564
465.819,24.95243,-2.18901,2.29293,0.52542
466.419,24.97008,-2.19476,2.34268,0.52521
467.019,24.9877,-2.20089,2.37554,0.52499
467.619,25.00542,-2.20807,2.42994,0.52477
468.219,25.02316,-2.21421,2.47934,0.52456
468.819,25.04091,-2.22298,2.50847,0.52434
469.419,25.05878,-2.22933,2.55263,0.52412
470.019,25.07667,-2.23744,2.58197,0.52391
470.619,25.09444,-2.24387,2.64076,0.52369
471.219,25.11224,-2.25133,2.68143,0.52347
471.819,25.13005,-2.2576,2.71557,0.52326
472.419,25.1478,-2.26361,2.7427,0.52304
473.019,25.16561,-2.27188,2.78134,0.52282
473.619,25.18347,-2.27824,2.82151,0.52261
474.219,25.20131,-2.2862,2.86133,0.52239
474.819,25.21912,-2.2922,2.88554,0.52217
475.419,25.23702,-2.30018,2.93568,0.52196
476.019,25.25488,-2.30657,2.98018,0.52174
476.619,25.27271,-2.31407,3.03651,0.52152
477.219,25.29053,-2.32053,3.08088,0.5213
477.819,25.30842,-2.32732,3.1249,0.52109
478.419,25.3263,-2.33472,3.16979,0.52087
479.019,25.3442,-2.34176,3.22831,0.52065
479.619,25.36209,-2.35002,3.25577,0.52044
480.219,25.38006,-2.35518,3.2758,0.52022
480.819,25.39797,-2.36305,3.31555,0.52
481.419,25.41587,-2.36913,3.33517,0.51978
482.019,25.43379,-2.37706,3.33112,0.51957
482.619,25.45176,-2.38395,3.36337,0.51935
483.219,25.46969,-2.39095,3.36677,0.51913
483.819,25.48763,-2.39764,3.35908,0.51891
484.419,25.5056,-2.4036,3.34822,0.5187
485.019,25.52359,-2.41053,3.35396,0.51848
485.619,25.54157,-2.41635,3.34072,0.51826
486.219,25.55956,-2.42388,3.32403,0.51805
486.819,25.57754,-2.42995,3.32256,0.51783
487.419,25.59544,-2.43816,3.28436,0.51761
488.019,25.61344,-2.44331,3.29909,0.51739
488.619,25.6315,-2.44935,3.27179,0.51718
489.219,25.64951,-2.45543,3.27463,0.51696
489.819,25.66759,-2.46201,3.25615,0.51674
490.419,25.68575,-2.46921,3.23066,0.51652
491.019,25.70382,-2.47655,3.21395,0.5163
491.619,25.72189,-2.4835,3.18639,0.51609
492.219,25.73995,-2.48858,3.18703,0.51587
492.819,25.75808,-2.49427,3.18523,0.51565
493.419,25.77618,-2.49892,3.17799,0.51543
494.019,25.79428,-2.50462,3.14384,0.51522
494.619,25.81234,-2.50942,3.12208,0.515
495.219,25.83035,-2.51476,3.10581,0.51478
495.819,25.8484,-2.52008,3.07031,0.51456
496.419,25.86647,-2.52498,3.03421,0.51435
497.019,25.88457,-2.53097,3.0097,0.51413
497.619,25.9027,-2.53622,2.97908,0.51391
498.219,25.92093,-2.54245,2.95716,0.51369
498.819,25.93909,-2.54646,2.93603,0.51347
499.419,25.95722,-2.55132,2.94921,0.51326
500.019,25.97533,-2.55431,2.92104,0.51304
500.619,25.9934,-2.55966,2.9007,0.51282
501.219,26.01155,-2.56431,2.87525,0.5126
501.819,26.0297,-2.57,2.83654,0.51239
502.419,26.04789,-2.5742,2.806,0.51217
503.019,26.0661,-2.57784,2.77657,0.51195
503.619,26.08436,-2.58192,2.7559,0.51173
504.219,26.10255,-2.58652,2.72272,0.51151
504.819,26.12077,-2.59041,2.70105,0.5113
505.419,26.13897,-2.59514,2.65593,0.51108
506.019,26.15716,-2.59577,2.64871,0.51086
506.619,26.1754,-2.59013,2.62261,0.51064
507.219,26.19363,-2.58906,2.60998,0.51043
507.819,26.2118,-2.59851,2.56867,0.51021
508.419,26.22996,-2.61721,2.51353,0.50999
509.019,26.24819,-2.62926,2.49689,0.50977
509.619,26.26635,-2.62881,2.45524,0.50955
510.219,26.28453,-2.62667,2.43126,0.50934
510.819,26.30279,-2.62717,2.3831,0.50912
511.419,26.321,-2.62925,2.35384,0.5089
512.019,26.33915,-2.63193,2.35023,0.50868
512.619,26.3574,-2.6349,2.32875,0.50846
513.219,26.3757,-2.63762,2.30458,0.50825
513.819,26.394,-2.63985,2.26938,0.50803
514.419,26.41228,-2.64265,2.23759,0.50781
515.019,26.4306,-2.64561,2.19429,0.50759
515.619,26.4489,-2.64788,2.16288,0.50738
516.219,26.46722,-2.65119,2.13923,0.50716
516.819,26.48558,-2.65295,2.11423,0.50694
517.419,26.50396,-2.65463,2.07487,0.50672
518.019,26.5223,-2.65622,2.04792,0.5065
518.619,26.54059,-2.65861,2.03285,0.50629
519.219,26.55885,-2.66181,2.035,0.50607
519.819,26.5771,-2.66389,2.04132,0.50585
520.419,26.59535,-2.66606,2.02223,0.50563
521.019,26.61365,-2.6675,1.98681,0.50542
521.619,26.632,-2.66854,1.96934,0.5052
522.219,26.65035,-2.67004,1.93189,0.50498
522.819,26.66868,-2.6718,1.92055,0.50476
523.419,26.687,-2.67359,1.88082,0.50455
524.019,26.7054,-2.67535,1.88348,0.50433
524.619,26.7238,-2.67707,1.84791,0.50411
525.219,26.7421,-2.6788,1.82785,0.50389
525.819,26.76052,-2.67638,1.81322,0.50368
526.419,26.77876,-2.67015,1.80001,0.50346
527.019,26.797,-2.66573,1.80385,0.50324
527.619,26.8151,-2.67403,1.78591,0.50302
528.219,26.8333,-2.68953,1.77758,0.50281
528.819,26.8516,-2.69818,1.75727,0.50259
529.419,26.86992,-2.69704,1.74377,0.50237
530.019,26.8884,-2.69345,1.72957,0.50215
530.619,26.90695,-2.69289,1.7406,0.50194
531.219,26.92545,-2.692,1.73897,0.50172
531.819,26.9439,-2.6912,1.72928,0.5015
532.419,26.96241,-2.69074,1.71371,0.50128
533.019,26.9808,-2.69123,1.70474,0.50107
533.619,26.99922,-2.69225,1.68173,0.50085
534.219,27.01763,-2.69392,1.67219,0.50063
534.819,27.0361,-2.69437,1.6522,0.50041
535.419,27.05453,-2.69561,1.6535,0.5002
536.019,27.07295,-2.69558,1.65542,0.49998
536.619,27.0914,-2.69706,1.66128,0.49976
537.219,27.1099,-2.69701,1.66244,0.49955
537.819,27.12828,-2.69954,1.66102,0.49933
538.419,27.1467,-2.69959,1.64619,0.49911
539.019,27.1651,-2.69959,1.63349,0.49889
539.619,27.1836,-2.69951,1.62259,0.49868
540.219,27.20205,-2.70092,1.60527,0.49846
540.819,27.2205,-2.70112,1.59098,0.49824
541.419,27.23902,-2.70146,1.60081,0.49803
542.019,27.25753,-2.70145,1.59329,0.49781
542.619,27.27597,-2.70141,1.59747,0.49759
543.219,27.29444,-2.70259,1.57706,0.49738
543.819,27.31294,-2.70283,1.58492,0.49716
544.419,27.33144,-2.70373,1.59007,0.49694
545.019,27.35,-2.7042,1.57885,0.49673
545.619,27.3685,-2.70417,1.56043,0.49651
546.219,27.3871,-2.7056,1.56723,0.49629
546.819,27.40565,-2.70563,1.55666,0.49608
547.419,27.42417,-2.70562,1.54456,0.49586
548.019,27.4427,-2.70557,1.544,0.49564
548.619,27.46125,-2.70685,1.53379,0.49543
549.219,27.47979,-2.70828,1.54147,0.49521
549.819,27.4984,-2.70826,1.52142,0.49499
550.419,27.51701,-2.70828,1.52119,0.49478
551.019,27.53562,-2.70888,1.53139,0.49456
551.619,27.5542,-2.70954,1.51911,0.49434
552.219,27.5727,-2.71057,1.51438,0.49413
552.819,27.5913,-2.711,1.5187,0.49391
553.419,27.60993,-2.71101,1.50269,0.4937
554.019,27.62861,-2.71101,1.51323,0.49348
554.619,27.64728,-2.71094,1.45756,0.49326
555.219,27.6659,-2.71229,1.44207,0.49305
555.819,27.6847,-2.7124,1.41452,0.49283
556.419,27.7033,-2.71374,1.39779,0.49262
557.019,27.72192,-2.71365,1.3614,0.4924
557.619,27.7406,-2.71364,1.35508,0.49218
558.219,27.75925,-2.71364,1.34283,0.49197
558.819,27.7779,-2.71388,1.29843,0.49175
559.419,27.7966,-2.71524,1.26857,0.49154
560.019,27.8152,-2.71586,1.26873,0.49132
560.619,27.8338,-2.71609,1.24669,0.4911
561.219,27.8525,-2.71627,1.22429,0.49089
561.819,27.87115,-2.71628,1.22761,0.49067
562.419,27.8898,-2.71666,1.2356,0.49046
563.019,27.90863,-2.7176,1.22803,0.49024
563.619,27.92734,-2.71759,1.23887,0.49003
564.219,27.94605,-2.71759,1.22531,0.48981
564.819,27.9648,-2.71758,1.23237,0.4896
565.419,27.9836,-2.71838,1.22024,0.48938
566.019,28.00233,-2.71888,1.20646,0.48917
566.619,28.02113,-2.71943,1.16605,0.48895
567.219,28.0399,-2.72022,1.15502,0.48874
567.819,28.0587,-2.71927,1.14077,0.48852
568.419,28.07747,-2.7189,1.1224,0.48831
569.019,28.09621,-2.7189,1.11324,0.48809
569.619,28.11502,-2.7189,1.11834,0.48788
570.219,28.13379,-2.7189,1.10896,0.48766
570.819,28.1526,-2.71886,1.08925,0.48745
571.419,28.1714,-2.71975,1.10649,0.48723
572.019,28.19016,-2.72021,1.10183,0.48702
572.619,28.209,-2.72022,1.1019,0.4868
573.219,28.22778,-2.72073,1.10053,0.48659
573.819,28.24656,-2.72277,1.09728,0.48637
574.419,28.26537,-2.72285,1.1061,0.48616
575.019,28.2842,-2.72285,1.09834,0.48594
575.619,28.30307,-2.72359,1.10448,0.48573
576.219,28.3219,-2.72415,1.08287,0.48552
576.819,28.3407,-2.72418,1.06186,0.4853
577.419,28.35952,-2.72347,1.04558,0.48509
578.019,28.37834,-2.72376,1.03173,0.48487
578.619,28.3972,-2.72417,1.01233,0.48466
579.219,28.4161,-2.7242,0.96641,0.48445
579.819,28.43494,-2.72472,0.98163,0.48423
580.419,28.45378,-2.7255,0.95417,0.48402
581.019,28.47267,-2.72551,0.95836,0.4838
581.619,28.4915,-2.72564,0.9734,0.48359
582.219,28.51043,-2.72754,0.94583,0.48338
582.819,28.52931,-2.72779,0.96636,0.48316
583.419,28.5482,-2.72779,0.98583,0.48295
584.019,28.56703,-2.72779,0.96728,0.48274
584.619,28.58584,-2.72779,0.98122,0.48252
585.219,28.6047,-2.72779,0.98641,0.48231
585.819,28.62355,-2.72779,0.99671,0.4821
586.419,28.6424,-2.72779,1.01022,0.48188
587.019,28.6613,-2.72779,1.0185,0.48167
587.619,28.6802,-2.7278,1.04382,0.48146
588.219,28.69909,-2.72746,1.03996,0.48124
588.819,28.718,-2.72776,1.06368,0.48103
589.419,28.7368,-2.72778,1.08804,0.48082
590.019,28.75576,-2.72775,1.1108,0.4806
590.619,28.7747,-2.72903,1.13012,0.48039
591.219,28.7936,-2.72976,1.12558,0.48018
591.819,28.8125,-2.73023,1.15303,0.47997
592.419,28.83142,-2.73041,1.15954,0.47975
593.019,28.8503,-2.73042,1.17541,0.47954
593.619,28.86924,-2.73042,1.21146,0.47933
594.219,28.88822,-2.73043,1.25887,0.47912
594.819,28.90721,-2.73092,1.25769,0.47891
595.419,28.9262,-2.73177,1.26484,0.47869
596.019,28.9451,-2.73174,1.29677,0.47848
596.619,28.9641,-2.73174,1.32103,0.47827
597.219,28.98309,-2.73174,1.35823,0.47806
597.819,29.002,-2.73174,1.39134,0.47785
598.419,29.02096,-2.73174,1.422,0.47763
599.019,29.0399,-2.73174,1.44722,0.47742
599.619,29.0589,-2.73205,1.48306,0.47721
600.219,29.0778,-2.73319,1.53638,0.477
600.819,29.0969,-2.73313,1.56947,0.47679
601.419,29.1159,-2.73433,1.61624,0.47658
602.019,29.13495,-2.73447,1.72046,0.47636
602.619,29.15403,-2.73448,1.76684,0.47615
603.219,29.1731,-2.73448,1.81822,0.47594
603.819,29.19221,-2.73448,1.87388,0.47573
604.419,29.21123,-2.73448,1.93184,0.47552
605.019,29.23025,-2.73449,1.99369,0.47531
605.619,29.2493,-2.73581,2.05902,0.4751
606.219,29.26838,-2.7358,2.10141,0.47489
606.819,29.28743,-2.7358,2.17328,0.47468
607.419,29.30657,-2.7358,2.23697,0.47447
608.019,29.3257,-2.7358,2.31778,0.47426
608.619,29.3448,-2.73579,2.39892,0.47404
609.219,29.3639,-2.73661,2.4701,0.47383
609.819,29.38297,-2.7378,2.6249,0.47362
610.419,29.4021,-2.7384,2.71969,0.47341
611.019,29.42117,-2.7385,2.79347,0.4732
611.619,29.4403,-2.73977,2.86024,0.47299
612.219,29.4594,-2.73974,2.92623,0.47278
612.819,29.47853,-2.74034,2.99904,0.47257
613.419,29.4976,-2.74054,3.02729,0.47236
614.019,29.5168,-2.74094,3.03686,0.47215
614.619,29.53593,-2.7411,3.00893,0.47194
615.219,29.55508,-2.74235,2.96496,0.47174
615.819,29.5742,-2.74259,2.87441,0.47153
616.419,29.59334,-2.74276,2.74234,0.47132
617.019,29.6124,-2.74489,2.57697,0.47111
617.619,29.6316,-2.74523,2.37062,0.4709
618.219,29.65066,-2.74533,2.16897,0.47069
618.819,29.6698,-2.74654,1.97879,0.47048
619.419,29.6889,-2.74654,1.79967,0.47027
620.019,29.70808,-2.74654,1.68182,0.47006
620.619,29.7272,-2.7466,1.56923,0.46985
621.219,29.74643,-2.74584,1.46764,0.46964
621.819,29.7656,-2.74587,1.40078,0.46944
622.419,29.78469,-2.74578,1.33296,0.46923
623.019,29.80382,-2.74712,1.29983,0.46902
623.619,29.82295,-2.7472,1.23606,0.46881
624.219,29.84204,-2.74784,1.22435,0.4686
624.819,29.8612,-2.74858,1.19849,0.46839
625.419,29.8803,-2.74939,1.1764,0.46819
626.019,29.8995,-2.75005,1.16681,0.46798
626.619,29.91848,-2.75003,1.15587,0.46777
627.219,29.93765,-2.75131,1.13641,0.46756
627.819,29.95676,-2.75136,1.09794,0.46736
628.419,29.976,-2.75137,1.07377,0.46715
629.019,29.9952,-2.75137,1.04549,0.46694
629.619,30.0144,-2.75137,1.02786,0.46673
630.219,30.0336,-2.75137,1.00049,0.46653
630.819,30.05276,-2.7514,0.9945,0.46632
631.419,30.0719,-2.75277,0.98059,0.46611
632.019,30.0911,-2.75267,0.98979,0.4659
632.619,30.11025,-2.75343,0.98223,0.4657
633.219,30.1295,-2.754,0.98569,0.46549
633.819,30.1487,-2.754,0.99117,0.46528
634.419,30.16795,-2.75494,1.00536,0.46508
635.019,30.1872,-2.75498,1.01823,0.46487
635.619,30.2064,-2.755,0.99624,0.46466
636.219,30.2256,-2.75522,1.00265,0.46446
636.819,30.2448,-2.75559,0.99371,0.46425
637.419,30.26407,-2.75692,0.97505,0.46405
638.019,30.28336,-2.75685,0.98357,0.46384
638.619,30.3026,-2.75675,0.97087,0.46363
639.219,30.32184,-2.75654,0.95937,0.46343
639.819,30.3412,-2.75653,0.96419,0.46322
640.419,30.36048,-2.75653,0.95496,0.46302
641.019,30.3798,-2.75652,0.94666,0.46281
641.619,30.399,-2.75751,0.94353,0.46261
642.219,30.4183,-2.75785,0.93664,0.4624
642.819,30.4376,-2.75787,0.92545,0.46219
643.419,30.4569,-2.75861,0.92323,0.46199
644.019,30.47621,-2.75916,0.9032,0.46178
644.619,30.4956,-2.75916,0.92024,0.46158
645.219,30.51492,-2.75916,0.91477,0.46137
645.819,30.5342,-2.75926,0.92042,0.46117
646.419,30.5536,-2.76021,0.88397,0.46097
647.019,30.57293,-2.76016,0.89015,0.46076
647.619,30.5923,-2.76024,0.87983,0.46056
648.219,30.61164,-2.76048,0.8742,0.46035
648.819,30.631,-2.76237,0.88103,0.46015
649.419,30.65038,-2.7631,0.90479,0.45994
650.019,30.66971,-2.76311,0.88168,0.45974
650.619,30.689,-2.76311,0.88995,0.45954
651.219,30.7084,-2.76312,0.88891,0.45933
651.819,30.72771,-2.76364,0.87648,0.45913
652.419,30.7471,-2.76445,0.84655,0.45892
653.019,30.76649,-2.76451,0.84955,0.45872
653.619,30.78596,-2.76313,0.8615,0.45852
654.219,30.80535,-2.76311,0.85775,0.45831
654.819,30.82473,-2.76311,0.83788,0.45811
655.419,30.8441,-2.76321,0.84267,0.45791
656.019,30.8636,-2.76416,0.84324,0.45771
656.619,30.88301,-2.7641,0.8338,0.4575
657.219,30.9024,-2.7641,0.83126,0.4573
657.819,30.92183,-2.7641,0.84872,0.4571
658.419,30.9412,-2.76406,0.85129,0.45689
659.019,30.96058,-2.7652,0.81588,0.45669
659.619,30.98,-2.76552,0.80757,0.45649
660.219,30.9995,-2.76555,0.81379,0.45629
660.819,31.0189,-2.76683,0.8129,0.45609
661.419,31.03838,-2.76781,0.79542,0.45588
662.019,31.0578,-2.76782,0.7804,0.45568
662.619,31.07732,-2.76778,0.7814,0.45548
663.219,31.09678,-2.76904,0.77909,0.45528
663.819,31.1163,-2.76913,0.7705,0.45508
664.419,31.1357,-2.76914,0.78284,0.45487
665.019,31.1551,-2.76914,0.76328,0.45467
665.619,31.1746,-2.76914,0.74864,0.45447
666.219,31.194,-2.76913,0.7358,0.45427
666.819,31.21347,-2.76991,0.74143,0.45407
667.419,31.23299,-2.77043,0.73199,0.45387
668.019,31.2525,-2.77046,0.71989,0.45367
668.619,31.27198,-2.77057,0.71274,0.45347
669.219,31.2915,-2.77182,0.70335,0.45327
669.819,31.311,-2.77177,0.70625,0.45307
670.419,31.33045,-2.77177,0.68916,0.45287
671.019,31.35,-2.77217,0.68455,0.45267
671.619,31.3695,-2.77307,0.66779,0.45247
672.219,31.38905,-2.77373,0.64602,0.45227
672.819,31.40853,-2.77441,0.66073,0.45207
673.419,31.42795,-2.7744,0.6458,0.45187
674.019,31.44732,-2.77438,0.65667,0.45167
674.619,31.4668,-2.77364,0.63524,0.45147
675.219,31.48633,-2.77304,0.61102,0.45127
675.819,31.50583,-2.77426,0.63576,0.45107
676.419,31.52552,-2.7744,0.66724,0.45087
677.019,31.54506,-2.77441,0.66225,0.45067
677.619,31.56452,-2.77441,0.64485,0.45047
678.219,31.5841,-2.77448,0.6572,0.45027
678.819,31.60357,-2.77584,0.67061,0.45007
679.419,31.6231,-2.77607,0.69362,0.44988
680.019,31.64262,-2.77706,0.69035,0.44968
680.619,31.66217,-2.77728,0.69506,0.44948
681.219,31.6817,-2.77836,0.68453,0.44928
681.819,31.7013,-2.77835,0.69229,0.44908
682.419,31.72086,-2.77834,0.70255,0.44888
683.019,31.7404,-2.77826,0.7213,0.44869
683.619,31.76006,-2.77704,0.7401,0.44849
684.219,31.77962,-2.77838,0.76132,0.44829
684.819,31.79924,-2.77836,0.79187,0.44809
685.419,31.8188,-2.77836,0.79359,0.4479
686.019,31.83843,-2.77836,0.80501,0.4477
686.619,31.85799,-2.77837,0.83501,0.4475
687.219,31.87755,-2.77887,0.82965,0.4473
687.819,31.8971,-2.7798,0.85016,0.44711
688.419,31.91672,-2.77969,0.86304,0.44691
689.019,31.9363,-2.78108,0.90117,0.44671
689.619,31.95597,-2.7811,0.92395,0.44652
690.219,31.97557,-2.7811,0.93347,0.44632
690.819,31.9952,-2.7811,0.96133,0.44612
691.419,32.01486,-2.7811,0.98734,0.44593
692.019,32.0344,-2.7811,1.00772,0.44573
692.619,32.05402,-2.78109,1.01387,0.44554
693.219,32.07365,-2.7819,1.01674,0.44534
693.819,32.09329,-2.78239,1.00074,0.44514
694.419,32.113,-2.78245,0.99647,0.44495
695.019,32.1327,-2.78383,0.96769,0.44475
695.619,32.15235,-2.78374,0.96417,0.44456
696.219,32.17198,-2.78375,0.94247,0.44436
696.819,32.19166,-2.78392,0.92544,0.44417
697.419,32.2113,-2.78506,0.90627,0.44397
698.019,32.231,-2.78506,0.89042,0.44378
698.619,32.25065,-2.78515,0.88202,0.44358
699.219,32.27033,-2.78636,0.85697,0.44339
699.819,32.29,-2.78636,0.83661,0.44319
700.419,32.30963,-2.78636,0.80165,0.443
701.019,32.32929,-2.78637,0.74732,0.44281
701.619,32.34895,-2.7879,0.68946,0.44261
702.219,32.3686,-2.78884,0.69343,0.44242
702.819,32.3882,-2.78934,0.67013,0.44222
703.419,32.40788,-2.79019,0.65935,0.44203
704.019,32.42753,-2.79066,0.63363,0.44184
704.619,32.44716,-2.79152,0.63283,0.44164
705.219,32.46687,-2.79234,0.61766,0.44145
705.819,32.48661,-2.79377,0.57671,0.44126
706.419,32.5063,-2.79372,0.5575,0.44106
707.019,32.526,-2.79371,0.53689,0.44087
707.619,32.54569,-2.79371,0.55123,0.44068
708.219,32.56534,-2.79371,0.55104,0.44048
708.819,32.58497,-2.7937,0.52491,0.44029
709.419,32.60464,-2.79463,0.51364,0.4401
710.019,32.6243,-2.79507,0.5206,0.43991
710.619,32.644,-2.79519,0.50678,0.43971
711.219,32.66369,-2.79577,0.48531,0.43952
711.819,32.68342,-2.796,0.45422,0.43933
712.419,32.70308,-2.79717,0.4333,0.43914
713.019,32.7228,-2.79729,0.43265,0.43895
713.619,32.74243,-2.79848,0.4206,0.43875
714.219,32.76215,-2.79844,0.39114,0.43856
714.819,32.78188,-2.79855,0.37877,0.43837
715.419,32.8016,-2.79978,0.34306,0.43818
716.019,32.82137,-2.79962,0.34763,0.43799
716.619,32.84117,-2.7991,0.30745,0.4378
717.219,32.86094,-2.80071,0.29543,0.43761
717.819,32.88067,-2.80062,0.2857,0.43742
718.419,32.90044,-2.80107,0.26846,0.43723
719.019,32.92022,-2.80192,0.28256,0.43704
719.619,32.93999,-2.80193,0.28496,0.43685
720.219,32.9598,-2.80193,0.27431,0.43666
720.819,32.97964,-2.80328,0.2811,0.43647
721.419,32.99945,-2.80325,0.26003,0.43628
722.019,33.0192,-2.80325,0.26596,0.43609
722.619,33.039,-2.80456,0.24192,0.4359
723.219,33.05875,-2.80457,0.22943,0.43571
723.819,33.0785,-2.80455,0.20712,0.43552
724.419,33.0983,-2.80595,0.19902,0.43533
725.019,33.1181,-2.80593,0.17747,0.43514
725.619,33.1379,-2.80751,0.17354,0.43495
726.219,33.15768,-2.80753,0.13822,0.43476
726.819,33.17752,-2.80753,0.1209,0.43457
727.419,33.19733,-2.80635,0.12547,0.43438
728.019,33.21717,-2.80624,0.1034,0.43419
728.619,33.23701,-2.80708,0.08814324,0.43401
729.219,33.2569,-2.8082,0.09424446,0.43382
729.819,33.27673,-2.80932,0.06809717,0.43363
730.419,33.2971,-2.80953,0.0737673,0.43344
731.019,33.3175,-2.80995,0.06571461,0.43325
731.419,33.33098,-2.80994,0.04124909,0.43313