File: 01_Data/Straw/STA/N2/30K_min/Straw_STA_N2_30KData_220428_R1.csv
##Temp./Â°C,Time/min,Mass loss(subtr.2)/mg,DSC(subtr.2)/(mW/mg),Sensit./(uV/mW)
48.571,10.01,-0.02029,0.00585501,1.07503
49.171,10.53238,-0.01998328,0.0442436,1.07476
49.771,10.65064,-0.01930442,0.07658209,1.0745
50.371,10.73666,-0.01899944,0.10421,1.07423
50.971,10.80573,-0.02019583,0.13096,1.07397
51.571,10.86561,-0.02001153,0.15508,1.0737
52.171,10.9184,-0.01815019,0.1761,1.07343
52.771,10.96678,-0.01879097,0.19987,1.07317
53.371,11.01148,-0.01775771,0.21816,1.0729
53.971,11.0535,-0.01759723,0.23813,1.07263
54.571,11.0931,-0.01739044,0.25543,1.07237
55.171,11.13062,-0.01832949,0.27406,1.0721
55.771,11.16613,-0.018283,0.28992,1.07183
56.371,11.2008,-0.02042044,0.30751,1.07156
56.971,11.2346,-0.02099696,0.32178,1.07129
57.571,11.26701,-0.02174873,0.33729,1.07102
58.171,11.29831,-0.02220418,0.35394,1.07075
58.771,11.32882,-0.02184894,0.36727,1.07048
59.371,11.35855,-0.02210531,0.37992,1.07021
59.971,11.38751,-0.02183082,0.39321,1.06994
60.571,11.41596,-0.02234799,0.40579,1.06967
61.171,11.44408,-0.02176589,0.41714,1.06939
61.771,11.47172,-0.02088633,0.42976,1.06912
62.371,11.49903,-0.02113566,0.4412,1.06885
62.971,11.52552,-0.02201834,0.453,1.06858
63.571,11.5517,-0.02304133,0.46374,1.0683
64.171,11.57733,-0.02247359,0.4746,1.06803
64.771,11.6029,-0.02035001,0.48455,1.06775
65.371,11.62819,-0.0202636,0.49472,1.06748
65.971,11.6531,-0.02121719,0.50418,1.0672
66.571,11.67788,-0.02244845,0.51259,1.06693
67.171,11.70236,-0.02281948,0.52502,1.06665
67.771,11.7266,-0.02301061,0.53307,1.06637
68.371,11.7506,-0.0224544,0.54351,1.0661
68.971,11.77453,-0.022333,0.55101,1.06582
69.571,11.7982,-0.02239381,0.56136,1.06554
70.171,11.8217,-0.02367279,0.56838,1.06526
70.771,11.84503,-0.02391466,0.57841,1.06499
71.371,11.868,-0.02349125,0.58577,1.06471
71.971,11.891,-0.02382155,0.59443,1.06443
72.571,11.9138,-0.02355218,0.60428,1.06415
73.171,11.9366,-0.02355599,0.6098,1.06387
73.771,11.95926,-0.024342,0.6187,1.06359
74.371,11.98188,-0.02479552,0.6264,1.06331
74.971,12.00446,-0.02390225,0.63538,1.06303
75.571,12.02685,-0.02406349,0.64237,1.06274
76.171,12.04915,-0.02488852,0.65022,1.06246
76.771,12.07128,-0.0251855,0.65827,1.06218
77.371,12.09322,-0.02480855,0.66538,1.0619
77.971,12.11518,-0.02604622,0.67309,1.06161
78.571,12.1371,-0.02692931,0.68082,1.06133
79.171,12.15892,-0.02732896,0.68637,1.06105
79.771,12.1808,-0.02642878,0.69337,1.06076
80.371,12.20233,-0.02543833,0.70191,1.06048
80.971,12.22396,-0.02615783,0.71208,1.06019
81.571,12.24547,-0.02547059,0.71638,1.05991
82.171,12.2669,-0.02646615,0.72373,1.05962
82.771,12.28817,-0.02698814,0.72974,1.05934
83.371,12.3094,-0.02645563,0.74029,1.05905
83.971,12.33062,-0.02642483,0.7456,1.05876
84.571,12.35188,-0.02679917,0.75232,1.05848
85.171,12.37313,-0.02636479,0.76152,1.05819
85.771,12.39446,-0.02743909,0.76754,1.0579
86.371,12.4155,-0.02764586,0.77515,1.05761
86.971,12.43649,-0.02903072,0.78235,1.05732
87.571,12.45728,-0.02924805,0.78592,1.05703
88.171,12.4779,-0.02930906,0.79579,1.05674
88.771,12.4985,-0.02918577,0.80389,1.05646
89.371,12.51912,-0.02917639,0.806,1.05617
89.971,12.53979,-0.03047508,0.81607,1.05587
90.571,12.56072,-0.02943427,0.82157,1.05558
91.171,12.58153,-0.03027338,0.82694,1.05529
91.771,12.60235,-0.03050053,0.8328,1.055
92.371,12.6229,-0.03072547,0.83922,1.05471
92.971,12.64352,-0.03181621,0.84457,1.05442
93.571,12.66405,-0.03263885,0.85207,1.05412
94.171,12.68458,-0.03326038,0.85837,1.05383
94.771,12.7052,-0.03437109,0.86428,1.05354
95.371,12.72558,-0.0350047,0.86923,1.05324
95.971,12.74607,-0.03493935,0.87487,1.05295
96.571,12.7665,-0.036145,0.88032,1.05266
97.171,12.7868,-0.03630114,0.88525,1.05236
97.771,12.8072,-0.03631294,0.8915,1.05207
98.371,12.82749,-0.03635694,0.89736,1.05177
98.971,12.84777,-0.03508296,0.89863,1.05147
99.571,12.86811,-0.03500042,0.90386,1.05118
100.171,12.88843,-0.03505747,0.90787,1.05088
100.771,12.9087,-0.03390953,0.91154,1.05058
101.371,12.92884,-0.03500338,0.91565,1.05029
101.971,12.94913,-0.03440498,0.91866,1.04999
102.571,12.96932,-0.03367319,0.9218,1.04969
103.171,12.9895,-0.0346179,0.92436,1.04939
103.771,13.00971,-0.03499031,0.92551,1.04909
104.371,13.02988,-0.03499001,0.92911,1.0488
104.971,13.05002,-0.03499,0.9334,1.0485
105.571,13.0703,-0.03499,0.93277,1.0482
106.171,13.09043,-0.03499001,0.93657,1.0479
106.771,13.1107,-0.03499022,0.93767,1.0476
107.371,13.1309,-0.03499424,0.93777,1.0473
107.971,13.151,-0.03505789,0.9405,1.04699
108.571,13.17115,-0.03630263,0.94177,1.04669
109.171,13.1912,-0.03674008,0.93936,1.04639
109.771,13.2112,-0.03764972,0.9413,1.04609
110.371,13.2312,-0.03897129,0.94314,1.04579
110.971,13.25123,-0.03898575,0.94116,1.04548
111.571,13.2714,-0.04027011,0.94192,1.04518
112.171,13.29145,-0.04103358,0.93982,1.04488
112.771,13.3115,-0.04156074,0.93995,1.04457
113.371,13.3316,-0.04156935,0.94054,1.04427
113.971,13.3516,-0.04157042,0.94112,1.04397
114.571,13.37154,-0.04157636,0.93925,1.04366
115.171,13.3916,-0.04166534,0.9375,1.04336
115.771,13.4116,-0.04367749,0.9368,1.04305
116.371,13.43162,-0.04419053,0.93522,1.04274
116.971,13.4516,-0.04419822,0.93358,1.04244
117.571,13.47149,-0.04418528,0.93103,1.04213
118.171,13.4914,-0.04498001,0.93207,1.04182
118.771,13.51133,-0.04551315,0.92823,1.04152
119.371,13.53115,-0.0455399,0.92746,1.04121
119.971,13.55095,-0.0444568,0.92551,1.0409
120.571,13.57078,-0.04420076,0.92371,1.04059
121.171,13.59061,-0.04420004,0.92546,1.04029
121.771,13.61041,-0.04419996,0.92197,1.03998
122.371,13.63023,-0.04419967,0.92036,1.03967
122.971,13.6501,-0.04453589,0.91718,1.03936
123.571,13.6699,-0.04584781,0.914,1.03905
124.171,13.6896,-0.04618217,0.91467,1.03874
124.771,13.7094,-0.04618028,0.91256,1.03843
125.371,13.72913,-0.04618065,0.90954,1.03812
125.971,13.7488,-0.04619123,0.90794,1.03781
126.571,13.76857,-0.04677054,0.90581,1.03749
127.171,13.78825,-0.0456406,0.9069,1.03718
127.771,13.8079,-0.04553041,0.90132,1.03687
128.371,13.82746,-0.04552091,0.90015,1.03656
128.971,13.847,-0.04552019,0.89958,1.03625
129.571,13.8666,-0.04552156,0.89899,1.03593
130.171,13.88615,-0.04561632,0.89935,1.03562
130.771,13.90567,-0.04691194,0.89734,1.03531
131.371,13.9252,-0.04683281,0.89728,1.03499
131.971,13.94465,-0.04678383,0.89476,1.03468
132.571,13.9641,-0.04782072,0.89339,1.03436
133.171,13.9836,-0.04812268,0.89416,1.03405
133.771,14.003,-0.04797066,0.89358,1.03373
134.371,14.02246,-0.04751376,0.89301,1.03342
134.971,14.0419,-0.04756583,0.8895,1.0331
135.571,14.0613,-0.04883059,0.88806,1.03279
136.171,14.0806,-0.04880124,0.88782,1.03247
136.771,14.10005,-0.04880001,0.88553,1.03215
137.371,14.11941,-0.04880003,0.88375,1.03183
137.971,14.1388,-0.04880103,0.88227,1.03152
138.571,14.1581,-0.04899527,0.88258,1.0312
139.171,14.17745,-0.05017018,0.88131,1.03088
139.771,14.1967,-0.0501247,0.88039,1.03056
140.371,14.21594,-0.05012041,0.87818,1.03024
140.971,14.23515,-0.05012003,0.87972,1.02993
141.571,14.2544,-0.05011998,0.87661,1.02961
142.171,14.27356,-0.05011975,0.8762,1.02929
142.771,14.2928,-0.05011725,0.87582,1.02897
143.371,14.31192,-0.05009413,0.87703,1.02865
143.971,14.33107,-0.05127068,0.87747,1.02833
144.571,14.35017,-0.05242711,0.87907,1.02801
145.171,14.3693,-0.05243098,0.87924,1.02768
145.771,14.3885,-0.05243051,0.88004,1.02736
146.371,14.4076,-0.0524362,0.87812,1.02704
146.971,14.42671,-0.05252605,0.88079,1.02672
147.571,14.4458,-0.05115511,0.88384,1.0264
148.171,14.46483,-0.05111006,0.88271,1.02607
148.771,14.48385,-0.0510903,0.88479,1.02575
149.371,14.50283,-0.05088068,0.88559,1.02543
149.971,14.52178,-0.04977239,0.88727,1.0251
150.571,14.54075,-0.05013346,0.88823,1.02478
151.171,14.55979,-0.05011967,0.88848,1.02446
151.771,14.5788,-0.05011964,0.89138,1.02413
152.371,14.59779,-0.05011568,0.89448,1.02381
152.971,14.6168,-0.05005034,0.89459,1.02348
153.571,14.6357,-0.05084045,0.89749,1.02316
154.171,14.65455,-0.05078499,0.90055,1.02283
154.771,14.67349,-0.05078036,0.90004,1.02251
155.371,14.6924,-0.05078002,0.90226,1.02218
155.971,14.71119,-0.05078,0.90463,1.02185
156.571,14.7301,-0.05078,0.90633,1.02153
157.171,14.74905,-0.05078,0.90495,1.0212
157.771,14.76794,-0.05077999,0.91021,1.02087
158.371,14.78684,-0.05077993,0.91207,1.02054
158.971,14.8059,-0.05077901,0.91194,1.02022
159.571,14.8248,-0.05076739,0.91316,1.01989
160.171,14.84363,-0.05060716,0.91686,1.01956
160.771,14.86249,-0.04941317,0.91809,1.01923
161.371,14.8813,-0.04945773,0.92183,1.0189
161.971,14.90015,-0.04945994,0.92229,1.01857
162.571,14.9189,-0.04946314,0.92429,1.01824
163.171,14.93772,-0.04832559,0.92765,1.01791
163.771,14.9565,-0.04816836,0.92797,1.01758
164.371,14.9753,-0.04815177,0.93306,1.01725
164.971,14.9941,-0.04815104,0.93197,1.01692
165.571,15.01281,-0.04815894,0.93482,1.01659
166.171,15.03159,-0.04770946,0.93667,1.01626
166.771,15.0504,-0.0471548,0.93985,1.01593
167.371,15.0692,-0.04683449,0.94204,1.01559
167.971,15.08796,-0.04683897,0.94398,1.01526
168.571,15.1067,-0.04684137,0.9432,1.01493
169.171,15.12539,-0.04691085,0.94913,1.0146
169.771,15.144,-0.04824674,0.94807,1.01426
170.371,15.16267,-0.04815278,0.95167,1.01393
170.971,15.1813,-0.04859972,0.95551,1.0136
171.571,15.19995,-0.04947065,0.9568,1.01326
172.171,15.2186,-0.04944001,0.95903,1.01293
172.771,15.23732,-0.05069169,0.96016,1.01259
173.371,15.256,-0.05136761,0.96322,1.01226
173.971,15.2746,-0.05249676,0.96566,1.01192
174.571,15.2932,-0.05353419,0.96926,1.01159
175.171,15.31179,-0.05348714,0.97101,1.01125
175.771,15.3304,-0.05454433,0.97272,1.01092
176.371,15.34906,-0.05484093,0.97706,1.01058
176.971,15.36774,-0.05483435,0.97693,1.01025
177.571,15.38636,-0.05474409,0.97944,1.00991
178.171,15.4049,-0.0560802,0.98347,1.00957
178.771,15.42344,-0.05614797,0.98451,1.00924
179.371,15.4419,-0.05614949,0.98664,1.0089
179.971,15.46045,-0.0561489,0.98969,1.00856
180.571,15.479,-0.05617607,0.98724,1.00822
181.171,15.49751,-0.05496786,0.99481,1.00788
181.771,15.516,-0.05542387,0.99298,1.00755
182.371,15.53447,-0.05616787,0.99659,1.00721
182.971,15.5529,-0.05616048,0.99672,1.00687
183.571,15.57129,-0.05615958,0.9992,1.00653
184.171,15.5897,-0.056161,1.0018,1.00619
184.771,15.6082,-0.0562334,1.00299,1.00585
185.371,15.62665,-0.05487223,1.00461,1.00551
185.971,15.6452,-0.0549128,1.006,1.00517
186.571,15.66365,-0.05625814,1.0073,1.00483
187.171,15.6821,-0.0561715,1.00932,1.00449
187.771,15.70057,-0.05617923,1.00955,1.00415
188.371,15.71895,-0.05743308,1.01053,1.0038
188.971,15.7374,-0.05746287,1.01216,1.00346
189.571,15.7557,-0.05746918,1.01448,1.00312
190.171,15.7741,-0.05746996,1.01605,1.00278
190.771,15.79245,-0.05747022,1.0163,1.00244
191.371,15.81083,-0.05747096,1.01685,1.00209
191.971,15.82908,-0.0574588,1.01803,1.00175
192.571,15.84746,-0.05689179,1.02225,1.00141
193.171,15.8658,-0.05754481,1.01969,1.00106
193.771,15.8841,-0.05747658,1.02332,1.00072
194.371,15.90241,-0.05747131,1.02578,1.00038
194.971,15.9207,-0.05747322,1.02673,1.00003
195.571,15.939,-0.05742082,1.02756,0.99969
196.171,15.95726,-0.05876256,1.03057,0.99934
196.771,15.97548,-0.05970153,1.0294,0.999
197.371,15.9938,-0.06008436,1.03268,0.99865
197.971,16.0121,-0.06011119,1.03311,0.99831
198.571,16.03042,-0.06048946,1.03504,0.99796
199.171,16.04863,-0.06271364,1.03708,0.99761
199.771,16.06679,-0.06273357,1.03894,0.99727
200.371,16.085,-0.06271355,1.03753,0.99692
200.971,16.1033,-0.06318625,1.04203,0.99657
201.571,16.1215,-0.06378748,1.04226,0.99623
202.171,16.13982,-0.06406094,1.04377,0.99588
202.771,16.1582,-0.06425643,1.04523,0.99553
203.371,16.17654,-0.06568915,1.0448,0.99518
203.971,16.19473,-0.06713462,1.04617,0.99484
204.571,16.21296,-0.06816672,1.04947,0.99449
205.171,16.23125,-0.06811251,1.04756,0.99414
205.771,16.24955,-0.06810979,1.05196,0.99379
206.371,16.26776,-0.068104,1.05015,0.99344
206.971,16.2861,-0.06801354,1.05334,0.99309
207.571,16.30431,-0.069345,1.05027,0.99274
208.171,16.32255,-0.06944192,1.05095,0.99239
208.771,16.34072,-0.07089184,1.0531,0.99204
209.371,16.35887,-0.07081909,1.0533,0.99169
209.971,16.37705,-0.07219133,1.05262,0.99134
210.571,16.39528,-0.07226505,1.05548,0.99099
211.171,16.4134,-0.0734253,1.05353,0.99064
211.771,16.43165,-0.07235692,1.0533,0.99029
212.371,16.44995,-0.07238857,1.05239,0.98994
212.971,16.46821,-0.0737318,1.05419,0.98959
213.571,16.48643,-0.073866,1.05322,0.98923
214.171,16.5047,-0.07561641,1.0529,0.98888
214.771,16.52296,-0.07706078,1.05487,0.98853
215.371,16.54117,-0.07779299,1.05584,0.98818
215.971,16.55936,-0.07899526,1.05508,0.98782
216.571,16.57753,-0.08027847,1.05543,0.98747
217.171,16.59572,-0.08170499,1.05467,0.98712
217.771,16.61386,-0.08336933,1.05476,0.98676
218.371,16.63203,-0.08420534,1.05544,0.98641
218.971,16.65021,-0.08477467,1.05241,0.98606
219.571,16.66842,-0.08569212,1.05479,0.9857
220.171,16.6866,-0.08575273,1.05306,0.98535
220.771,16.70486,-0.08699457,1.05364,0.98499
221.371,16.72308,-0.08765097,1.05294,0.98464
221.971,16.74126,-0.08833747,1.05265,0.98428
222.571,16.7594,-0.08963976,1.05313,0.98393
223.171,16.77756,-0.08947171,1.05299,0.98357
223.771,16.7957,-0.09017122,1.05282,0.98321
224.371,16.81385,-0.09167262,1.05329,0.98286
224.971,16.832,-0.09196928,1.05297,0.9825
225.571,16.85011,-0.09334461,1.05472,0.98214
226.171,16.86828,-0.09513459,1.05483,0.98179
226.771,16.8864,-0.09670688,1.05432,0.98143
227.371,16.90461,-0.099804,1.05717,0.98107
227.971,16.9228,-0.10123,1.05973,0.98072
228.571,16.94096,-0.10251,1.05915,0.98036
229.171,16.95891,-0.10411,1.06146,0.98
229.771,16.9771,-0.10715,1.05929,0.97964
230.371,16.99523,-0.10889,1.06374,0.97928
230.971,17.01343,-0.11063,1.06151,0.97892
231.571,17.0316,-0.11235,1.06474,0.97857
232.171,17.04991,-0.11417,1.06791,0.97821
232.771,17.06802,-0.11627,1.06887,0.97785
233.371,17.08618,-0.1188,1.06964,0.97749
233.971,17.10427,-0.12111,1.07259,0.97713
234.571,17.12239,-0.12348,1.0737,0.97677
235.171,17.1405,-0.12494,1.07743,0.97641
235.771,17.15869,-0.12672,1.07979,0.97605
236.371,17.17676,-0.12851,1.08244,0.97569
236.971,17.19487,-0.12973,1.08577,0.97532
237.571,17.21301,-0.13108,1.08523,0.97496
238.171,17.2312,-0.13226,1.08942,0.9746
238.771,17.2492,-0.13397,1.09427,0.97424
239.371,17.26736,-0.13583,1.09608,0.97388
239.971,17.28549,-0.13791,1.09985,0.97352
240.571,17.30359,-0.13994,1.10118,0.97315
241.171,17.32164,-0.14183,1.10571,0.97279
241.771,17.33974,-0.14399,1.10605,0.97243
242.371,17.35785,-0.1458,1.11071,0.97207
242.971,17.376,-0.14827,1.11291,0.9717
243.571,17.39397,-0.15109,1.1144,0.97134
244.171,17.41209,-0.1539,1.11812,0.97098
244.771,17.4302,-0.1569,1.1219,0.97061
245.371,17.44838,-0.16013,1.12308,0.97025
245.971,17.4665,-0.16275,1.1279,0.96988
246.571,17.48475,-0.16556,1.12808,0.96952
247.171,17.50284,-0.16848,1.13017,0.96915
247.771,17.52093,-0.17248,1.13552,0.96879
248.371,17.53902,-0.17824,1.13564,0.96842
248.971,17.5571,-0.18157,1.13938,0.96806
249.571,17.57518,-0.18576,1.13895,0.96769
250.171,17.5933,-0.19003,1.14145,0.96733
250.771,17.61146,-0.1928,1.14241,0.96696
251.371,17.62956,-0.1957,1.1472,0.9666
251.971,17.64771,-0.19945,1.14546,0.96623
252.571,17.6658,-0.20231,1.14778,0.96586
253.171,17.6839,-0.2056,1.14961,0.9655
253.771,17.70186,-0.20883,1.14926,0.96513
254.371,17.71979,-0.212,1.15039,0.96476
254.971,17.73776,-0.21498,1.15181,0.96439
255.571,17.75591,-0.21796,1.14944,0.96403
256.171,17.7741,-0.22171,1.15305,0.96366
256.771,17.7923,-0.22615,1.15454,0.96329
257.371,17.81054,-0.22926,1.15177,0.96292
257.971,17.82871,-0.23291,1.15245,0.96255
258.571,17.84682,-0.23757,1.15235,0.96219
259.171,17.86489,-0.24174,1.14954,0.96182
259.771,17.8829,-0.24498,1.15098,0.96145
260.371,17.90103,-0.24837,1.14824,0.96108
260.971,17.91912,-0.25245,1.1455,0.96071
261.571,17.9371,-0.25643,1.14581,0.96034
262.171,17.9551,-0.25951,1.14358,0.95997
262.771,17.9732,-0.26354,1.1392,0.9596
263.371,17.9912,-0.26799,1.13842,0.95923
263.971,18.00925,-0.27106,1.13551,0.95886
264.571,18.02736,-0.27504,1.13475,0.95849
265.171,18.0455,-0.27948,1.13136,0.95812
265.771,18.06352,-0.28407,1.12924,0.95775
266.371,18.08164,-0.28794,1.12512,0.95738
266.971,18.09972,-0.29204,1.12118,0.957
267.571,18.11776,-0.29702,1.11684,0.95663
268.171,18.13583,-0.30121,1.11505,0.95626
268.771,18.15393,-0.30633,1.11169,0.95589
269.371,18.17195,-0.31044,1.1056,0.95552
269.971,18.19001,-0.31469,1.10129,0.95514
270.571,18.20809,-0.31915,1.0967,0.95477
271.171,18.2261,-0.32319,1.0925,0.9544
271.771,18.2441,-0.32862,1.08696,0.95402
272.371,18.26226,-0.33344,1.0833,0.95365
272.971,18.2804,-0.33836,1.07783,0.95328
273.571,18.2985,-0.34235,1.07321,0.9529
274.171,18.31655,-0.34801,1.06627,0.95253
274.771,18.33466,-0.35286,1.06092,0.95216
275.371,18.35277,-0.35793,1.05569,0.95178
275.971,18.37085,-0.36177,1.04958,0.95141
276.571,18.38898,-0.36615,1.04452,0.95103
277.171,18.4071,-0.37097,1.03813,0.95066
277.771,18.42513,-0.37516,1.03199,0.95028
278.371,18.44316,-0.38027,1.02664,0.94991
278.971,18.46121,-0.38491,1.01961,0.94953
279.571,18.4793,-0.39082,1.01212,0.94916
280.171,18.4973,-0.39541,1.00525,0.94878
280.771,18.51545,-0.40112,0.99923,0.94841
281.371,18.53355,-0.40577,0.99333,0.94803
281.971,18.55165,-0.41151,0.98567,0.94765
282.571,18.5697,-0.41868,0.98011,0.94728
283.171,18.58778,-0.42455,0.97354,0.9469
283.771,18.60585,-0.43081,0.9646,0.94652
284.371,18.6239,-0.43605,0.9588,0.94615
284.971,18.64193,-0.44278,0.94994,0.94577
285.571,18.66004,-0.44808,0.94338,0.94539
286.171,18.6781,-0.45514,0.93562,0.94501
286.771,18.69614,-0.46077,0.92581,0.94464
287.371,18.71425,-0.4683,0.91952,0.94426
287.971,18.73237,-0.47497,0.91182,0.94388
288.571,18.7504,-0.48157,0.90471,0.9435
289.171,18.76855,-0.48763,0.89507,0.94312
289.771,18.78666,-0.4942,0.88554,0.94274
290.371,18.80477,-0.50211,0.87947,0.94236
290.971,18.8229,-0.50851,0.86994,0.94199
291.571,18.84091,-0.5163,0.86187,0.94161
292.171,18.85899,-0.52246,0.85325,0.94123
292.771,18.87706,-0.53098,0.8441,0.94085
293.371,18.89497,-0.53827,0.83473,0.94047
293.971,18.913,-0.54735,0.82768,0.94009
294.571,18.93117,-0.5557,0.81876,0.93971
295.171,18.94926,-0.56436,0.80723,0.93933
295.771,18.96735,-0.57312,0.79918,0.93895
296.371,18.9856,-0.58106,0.79096,0.93857
296.971,19.00372,-0.59094,0.77948,0.93818
297.571,19.0218,-0.59928,0.77039,0.9378
298.171,19.0399,-0.61035,0.76121,0.93742
298.771,19.05805,-0.6185,0.75401,0.93704
299.371,19.07602,-0.62898,0.74271,0.93666
299.971,19.0941,-0.63836,0.73072,0.93628
300.571,19.11221,-0.6495,0.72403,0.93589
301.171,19.13028,-0.65989,0.71245,0.93551
301.771,19.14826,-0.6702,0.70439,0.93513
302.371,19.16646,-0.68183,0.69323,0.93475
302.971,19.18456,-0.69213,0.68515,0.93436
303.571,19.20265,-0.70542,0.67547,0.93398
304.171,19.2208,-0.71681,0.66428,0.9336
304.771,19.23895,-0.73208,0.65516,0.93322
305.371,19.25706,-0.74415,0.64503,0.93283
305.971,19.27514,-0.75832,0.63752,0.93245
306.571,19.29325,-0.76976,0.62845,0.93206
307.171,19.3113,-0.78178,0.62176,0.93168
307.771,19.3294,-0.79453,0.60999,0.9313
308.371,19.3475,-0.80731,0.60136,0.93091
308.971,19.3656,-0.82272,0.5915,0.93053
309.571,19.38363,-0.83556,0.58384,0.93014
310.171,19.40171,-0.85208,0.57389,0.92976
310.771,19.41982,-0.8654,0.56573,0.92937
311.371,19.43778,-0.88078,0.55602,0.92899
311.971,19.45593,-0.8938,0.54874,0.9286
312.571,19.47406,-0.90864,0.53811,0.92822
313.171,19.49221,-0.92392,0.53071,0.92783
313.771,19.51031,-0.94012,0.52258,0.92745
314.371,19.52861,-0.95689,0.51743,0.92706
314.971,19.54668,-0.97261,0.50704,0.92667
315.571,19.5648,-0.99121,0.50087,0.92629
316.171,19.58288,-1.0061,0.49345,0.9259
316.771,19.601,-1.0246,0.48578,0.92551
317.371,19.6191,-1.03879,0.47954,0.92513
317.971,19.6372,-1.05772,0.47147,0.92474
318.571,19.65521,-1.0731,0.4616,0.92435
319.171,19.67334,-1.09172,0.45603,0.92397
319.771,19.69142,-1.10856,0.45033,0.92358
320.371,19.70959,-1.12611,0.4409,0.92319
320.971,19.72774,-1.14496,0.43462,0.9228
321.571,19.74595,-1.16307,0.42946,0.92241
322.171,19.76406,-1.18538,0.42352,0.92203
322.771,19.78226,-1.20257,0.41721,0.92164
323.371,19.80036,-1.22505,0.41079,0.92125
323.971,19.81853,-1.24243,0.40416,0.92086
324.571,19.8367,-1.26382,0.39804,0.92047
325.171,19.8549,-1.28281,0.39215,0.92008
325.771,19.87301,-1.30431,0.38415,0.91969
326.371,19.89118,-1.32426,0.37814,0.9193
326.971,19.90935,-1.34446,0.37238,0.91891
327.571,19.92744,-1.36562,0.36586,0.91852
328.171,19.94565,-1.38465,0.35847,0.91813
328.771,19.96384,-1.40868,0.35028,0.91774
329.371,19.98205,-1.42733,0.34464,0.91735
329.971,20.00021,-1.45095,0.33733,0.91696
330.571,20.01849,-1.46929,0.33065,0.91657
331.171,20.03667,-1.4924,0.32297,0.91618
331.771,20.0549,-1.51151,0.31531,0.91579
332.371,20.0731,-1.53399,0.30577,0.9154
332.971,20.0913,-1.55316,0.29717,0.91501
333.571,20.10951,-1.57446,0.28892,0.91462
334.171,20.1277,-1.59517,0.28076,0.91423
334.771,20.14583,-1.61535,0.27129,0.91384
335.371,20.16396,-1.63864,0.26318,0.91344
335.971,20.18215,-1.65689,0.25349,0.91305
336.571,20.2002,-1.68022,0.24125,0.91266
337.171,20.2184,-1.69845,0.23277,0.91227
337.771,20.23661,-1.72195,0.21979,0.91188
338.371,20.2549,-1.74102,0.21061,0.91148
338.971,20.27311,-1.76353,0.19878,0.91109
339.571,20.2914,-1.78462,0.1877,0.9107
340.171,20.3097,-1.80611,0.17145,0.9103
340.771,20.32796,-1.82776,0.15974,0.90991
341.371,20.3462,-1.84697,0.14527,0.90952
341.971,20.36448,-1.86977,0.13331,0.90912
342.571,20.38281,-1.88918,0.11839,0.90873
343.171,20.40109,-1.91146,0.10546,0.90834
343.771,20.41939,-1.92873,0.09060393,0.90794
344.371,20.43769,-1.9507,0.07711263,0.90755
344.971,20.45596,-1.9694,0.06249346,0.90715
345.571,20.47418,-1.99004,0.0496514,0.90676
346.171,20.49247,-2.00763,0.03780039,0.90637
346.771,20.51075,-2.02613,0.0244583,0.90597
347.371,20.529,-2.04393,0.01544127,0.90558
347.971,20.54734,-2.05999,0.006057697,0.90518
348.571,20.56565,-2.07701,-0.000965781,0.90479
349.171,20.5839,-2.09092,-0.00609121,0.90439
349.771,20.60216,-2.10774,-0.01062447,0.90399
350.371,20.62046,-2.12037,-0.01254371,0.9036
350.971,20.63862,-2.13565,-0.01195127,0.9032
351.571,20.65689,-2.14668,-0.00870983,0.90281
352.171,20.67524,-2.15889,-0.0003908107,0.90241
352.771,20.69365,-2.16956,0.005956275,0.90201
353.371,20.71198,-2.18127,0.01681066,0.90162
353.971,20.73043,-2.1924,0.02604426,0.90122
354.571,20.74881,-2.20264,0.04441852,0.90082
355.171,20.76716,-2.21268,0.0569025,0.90043
355.771,20.7855,-2.22103,0.07309832,0.90003
356.371,20.80389,-2.2323,0.09218728,0.89963
356.971,20.82235,-2.24004,0.10733,0.89924
357.571,20.84076,-2.24846,0.12146,0.89884
358.171,20.85921,-2.25573,0.13671,0.89844
358.771,20.8776,-2.26249,0.14964,0.89804
359.371,20.89601,-2.26704,0.16172,0.89765
359.971,20.91439,-2.27243,0.17302,0.89725
360.571,20.93284,-2.27722,0.1848,0.89685
361.171,20.95124,-2.28239,0.19338,0.89645
361.771,20.96965,-2.28677,0.20045,0.89605
362.371,20.9881,-2.29104,0.20606,0.89565
362.971,21.00656,-2.29573,0.21203,0.89525
363.571,21.025,-2.30008,0.21586,0.89486
364.171,21.04351,-2.30501,0.22177,0.89446
364.771,21.06202,-2.30867,0.22476,0.89406
365.371,21.0805,-2.31327,0.22593,0.89366
365.971,21.0989,-2.31542,0.22725,0.89326
366.571,21.11732,-2.3199,0.22621,0.89286
367.171,21.13579,-2.32206,0.22886,0.89246
367.771,21.15415,-2.32654,0.22923,0.89206
368.371,21.17266,-2.32919,0.22913,0.89166
368.971,21.19119,-2.33163,0.22936,0.89126
369.571,21.20974,-2.33386,0.23014,0.89086
370.171,21.2283,-2.33747,0.22789,0.89046
370.771,21.24695,-2.34114,0.22801,0.89006
371.371,21.2653,-2.34388,0.22577,0.88966
371.971,21.28377,-2.34703,0.22406,0.88926
372.571,21.3022,-2.34959,0.22158,0.88885
373.171,21.32068,-2.35157,0.2201,0.88845
373.771,21.3392,-2.35312,0.21824,0.88805
374.371,21.3579,-2.35614,0.2161,0.88765
374.971,21.37642,-2.35899,0.21265,0.88725
375.571,21.39495,-2.36134,0.2103,0.88685
376.171,21.4134,-2.36354,0.20553,0.88645
376.771,21.43189,-2.36563,0.20586,0.88604
377.371,21.45037,-2.36783,0.20661,0.88564
377.971,21.4689,-2.37053,0.20385,0.88524
378.571,21.48741,-2.37337,0.19974,0.88484
379.171,21.50594,-2.37717,0.19837,0.88443
379.771,21.52449,-2.38022,0.19652,0.88403
380.371,21.54306,-2.38479,0.19343,0.88363
380.971,21.5616,-2.3868,0.18907,0.88322
381.571,21.58028,-2.38856,0.18832,0.88282
382.171,21.59893,-2.39058,0.18637,0.88242
382.771,21.61749,-2.39225,0.18222,0.88201
383.371,21.63607,-2.39548,0.18045,0.88161
383.971,21.65466,-2.39811,0.17593,0.88121
384.571,21.6732,-2.40097,0.17594,0.8808
385.171,21.69172,-2.40414,0.17494,0.8804
385.771,21.71029,-2.40713,0.17247,0.88
386.371,21.72881,-2.41006,0.16858,0.87959
386.971,21.7473,-2.41342,0.1671,0.87919
387.571,21.7658,-2.41695,0.16296,0.87878
388.171,21.78446,-2.41971,0.16026,0.87838
388.771,21.80311,-2.4233,0.15954,0.87797
389.371,21.82174,-2.42556,0.15587,0.87757
389.971,21.84039,-2.42739,0.1535,0.87716
390.571,21.85902,-2.42923,0.1492,0.87676
391.171,21.87762,-2.4311,0.1462,0.87635
391.771,21.89622,-2.43288,0.14318,0.87595
392.371,21.9148,-2.43413,0.14356,0.87554
392.971,21.93344,-2.43445,0.14029,0.87514
393.571,21.95202,-2.4341,0.13926,0.87473
394.171,21.97065,-2.43523,0.13645,0.87432
394.771,21.98925,-2.43624,0.13261,0.87392
395.371,22.00788,-2.43755,0.1292,0.87351
395.971,22.02658,-2.43866,0.12949,0.8731
396.571,22.04526,-2.43972,0.12526,0.8727
397.171,22.06387,-2.44166,0.12489,0.87229
397.771,22.08248,-2.44506,0.12323,0.87188
398.371,22.10112,-2.44676,0.12203,0.87148
398.971,22.11971,-2.44829,0.12074,0.87107
399.571,22.13835,-2.45004,0.11684,0.87066
400.171,22.15693,-2.4519,0.11507,0.87026
400.771,22.17561,-2.45363,0.11524,0.86985
401.371,22.1942,-2.45559,0.11323,0.86944
401.971,22.21293,-2.45769,0.11195,0.86903
402.571,22.23165,-2.45966,0.10891,0.86862
403.171,22.25038,-2.46128,0.10739,0.86822
403.771,22.26909,-2.46312,0.1076,0.86781
404.371,22.28779,-2.4654,0.10337,0.8674
404.971,22.30644,-2.46733,0.10632,0.86699
405.571,22.3251,-2.46932,0.10219,0.86658
406.171,22.34381,-2.4715,0.10311,0.86618
406.771,22.36249,-2.47347,0.09957453,0.86577
407.371,22.3812,-2.47581,0.10217,0.86536
407.971,22.39998,-2.4777,0.10056,0.86495
408.571,22.41866,-2.47942,0.09917219,0.86454
409.171,22.4374,-2.48111,0.09752284,0.86413
409.771,22.45606,-2.48261,0.10113,0.86372
410.371,22.4747,-2.48414,0.09885416,0.86331
410.971,22.49343,-2.48545,0.09610584,0.8629
411.571,22.51215,-2.48664,0.10069,0.86249
412.171,22.53085,-2.4883,0.09700014,0.86208
412.771,22.54962,-2.49047,0.0987466,0.86167
413.371,22.5684,-2.49303,0.09735313,0.86126
413.971,22.5871,-2.49508,0.09983418,0.86085
414.571,22.60589,-2.49671,0.09812176,0.86044
415.171,22.62463,-2.49811,0.09785624,0.86003
415.771,22.64341,-2.49973,0.09911976,0.85962
416.371,22.66216,-2.50112,0.09958371,0.85921
416.971,22.681,-2.502,0.09979128,0.8588
417.571,22.69978,-2.50368,0.10085,0.85839
418.171,22.71854,-2.50537,0.10156,0.85798
418.771,22.7373,-2.50698,0.10744,0.85756
419.371,22.75606,-2.508,0.10823,0.85715
419.971,22.7747,-2.50965,0.1037,0.85674
420.571,22.79345,-2.51168,0.10786,0.85633
421.171,22.8122,-2.51322,0.10908,0.85592
421.771,22.8309,-2.51388,0.11157,0.85551
422.371,22.84974,-2.51507,0.1124,0.85509
422.971,22.86855,-2.51672,0.11382,0.85468
423.571,22.88746,-2.51833,0.11277,0.85427
424.171,22.90626,-2.51976,0.11563,0.85386
424.771,22.9251,-2.52122,0.11749,0.85344
425.371,22.94388,-2.52294,0.12008,0.85303
425.971,22.9627,-2.52468,0.12246,0.85262
426.571,22.98142,-2.52643,0.12542,0.85221
427.171,23.0002,-2.52839,0.12497,0.85179
427.771,23.01899,-2.52988,0.12839,0.85138
428.371,23.03782,-2.53132,0.129,0.85097
428.971,23.05663,-2.53277,0.12945,0.85055
429.571,23.07551,-2.53427,0.1324,0.85014
430.171,23.09431,-2.53573,0.13792,0.84973
430.771,23.11315,-2.53661,0.13902,0.84931
431.371,23.13196,-2.53818,0.13682,0.8489
431.971,23.15075,-2.53979,0.14041,0.84848
432.571,23.1694,-2.53972,0.14587,0.84807
433.171,23.18816,-2.54093,0.14338,0.84766
433.771,23.20695,-2.54189,0.14557,0.84724
434.371,23.2258,-2.54369,0.15071,0.84683
434.971,23.2447,-2.54519,0.15097,0.84641
435.571,23.2637,-2.54654,0.15445,0.846
436.171,23.28266,-2.54947,0.15606,0.84558
436.771,23.30151,-2.55115,0.1596,0.84517
437.371,23.3204,-2.55287,0.15976,0.84475
437.971,23.33932,-2.55423,0.16187,0.84434
438.571,23.35816,-2.55622,0.16432,0.84392
439.171,23.37702,-2.55779,0.16859,0.84351
439.771,23.39592,-2.55952,0.16885,0.84309
440.371,23.41475,-2.56117,0.16762,0.84268
440.971,23.43364,-2.56244,0.16927,0.84226
441.571,23.4526,-2.56317,0.17321,0.84185
442.171,23.4714,-2.56486,0.17457,0.84143
442.771,23.4903,-2.56655,0.1774,0.84101
443.371,23.5092,-2.56822,0.17756,0.8406
443.971,23.52809,-2.56878,0.18074,0.84018
444.571,23.54716,-2.5696,0.18323,0.83976
445.171,23.56622,-2.57108,0.18266,0.83935
445.771,23.5852,-2.57275,0.18519,0.83893
446.371,23.6042,-2.57448,0.18752,0.83851
446.971,23.6232,-2.57562,0.19063,0.8381
447.571,23.642,-2.5774,0.19394,0.83768
448.171,23.661,-2.57935,0.19603,0.83726
448.771,23.67989,-2.5808,0.19599,0.83685
449.371,23.69876,-2.58137,0.19533,0.83643
449.971,23.71769,-2.58116,0.19792,0.83601
450.571,23.7366,-2.5824,0.20325,0.83559
451.171,23.7556,-2.58338,0.20367,0.83518
451.771,23.77456,-2.58482,0.2039,0.83476
452.371,23.79353,-2.58751,0.20648,0.83434
452.971,23.81247,-2.58844,0.20906,0.83392
453.571,23.83149,-2.58914,0.20902,0.8335
454.171,23.85045,-2.59059,0.20922,0.83309
454.771,23.8694,-2.59208,0.21232,0.83267
455.371,23.88843,-2.59316,0.21599,0.83225
455.971,23.9074,-2.59268,0.21654,0.83183
456.571,23.9264,-2.594,0.21594,0.83141
457.171,23.94525,-2.59534,0.21738,0.83099
457.771,23.964,-2.59702,0.21856,0.83057
458.371,23.98297,-2.59874,0.21872,0.83015
458.971,24.00195,-2.60176,0.2239,0.82974
459.571,24.02092,-2.60316,0.22373,0.82932
460.171,24.04004,-2.60428,0.22689,0.8289
460.771,24.0592,-2.60564,0.22593,0.82848
461.371,24.07818,-2.60582,0.22684,0.82806
461.971,24.0972,-2.6084,0.22947,0.82764
462.571,24.11617,-2.609,0.22947,0.82722
463.171,24.13521,-2.60988,0.23058,0.8268
463.771,24.1542,-2.61071,0.2326,0.82638
464.371,24.1732,-2.61125,0.23361,0.82596
464.971,24.19219,-2.61382,0.23537,0.82554
465.571,24.21124,-2.61475,0.23362,0.82512
466.171,24.23023,-2.61613,0.23678,0.8247
466.771,24.24924,-2.61795,0.24112,0.82428
467.371,24.2683,-2.61966,0.239,0.82386
467.971,24.28736,-2.62269,0.24099,0.82344
468.571,24.30635,-2.62375,0.24014,0.82301
469.171,24.32536,-2.62512,0.24058,0.82259
469.771,24.3443,-2.62654,0.24179,0.82217
470.371,24.3633,-2.62778,0.24468,0.82175
470.971,24.3824,-2.62798,0.24334,0.82133
471.571,24.40149,-2.62913,0.24582,0.82091
472.171,24.42066,-2.62822,0.24272,0.82049
472.771,24.43979,-2.62972,0.24305,0.82006
473.371,24.45879,-2.62839,0.24532,0.81964
473.971,24.4779,-2.62973,0.24313,0.81922
474.571,24.49687,-2.62983,0.24768,0.8188
475.171,24.51588,-2.62957,0.24567,0.81838
475.771,24.53494,-2.63046,0.2468,0.81796
476.371,24.554,-2.63188,0.24916,0.81753
476.971,24.57306,-2.63223,0.24842,0.81711
477.571,24.5922,-2.63407,0.24776,0.81669
478.171,24.61129,-2.63544,0.25133,0.81627
478.771,24.6303,-2.63667,0.25022,0.81584
479.371,24.6494,-2.63771,0.25012,0.81542
479.971,24.66853,-2.63915,0.24868,0.815
480.571,24.68761,-2.63989,0.25073,0.81457
481.171,24.7068,-2.64067,0.25031,0.81415
481.771,24.72591,-2.6424,0.2521,0.81373
482.371,24.74504,-2.64372,0.25238,0.8133
482.971,24.76416,-2.64464,0.25221,0.81288
483.571,24.7833,-2.64679,0.25466,0.81246
484.171,24.8023,-2.6473,0.2543,0.81203
484.771,24.82143,-2.64813,0.25429,0.81161
485.371,24.84056,-2.64972,0.25527,0.81119
485.971,24.85962,-2.64969,0.25502,0.81076
486.571,24.87872,-2.65023,0.25436,0.81034
487.171,24.8978,-2.65102,0.25471,0.80991
487.771,24.91692,-2.651,0.25555,0.80949
488.371,24.93603,-2.65197,0.2564,0.80906
488.971,24.9552,-2.65231,0.25546,0.80864
489.571,24.97435,-2.65254,0.25539,0.80822
490.171,24.99352,-2.6537,0.25541,0.80779
490.771,25.0126,-2.65377,0.25688,0.80737
491.371,25.03182,-2.65638,0.2569,0.80694
491.971,25.05088,-2.65627,0.26112,0.80652
492.571,25.07006,-2.65693,0.25627,0.80609
493.171,25.08915,-2.6576,0.25769,0.80567
493.771,25.10824,-2.65811,0.25724,0.80524
494.371,25.1274,-2.65896,0.26,0.80482
494.971,25.14658,-2.65973,0.25815,0.80439
495.571,25.16574,-2.6609,0.25745,0.80396
496.171,25.18492,-2.66184,0.25927,0.80354
496.771,25.20421,-2.6626,0.25801,0.80311
497.371,25.22341,-2.66455,0.25783,0.80269
497.971,25.24259,-2.66702,0.25799,0.80226
498.571,25.26182,-2.66901,0.26101,0.80183
499.171,25.28099,-2.67138,0.2624,0.80141
499.771,25.30014,-2.67351,0.26051,0.80098
500.371,25.31927,-2.67537,0.26325,0.80056
500.971,25.33848,-2.67685,0.26369,0.80013
501.571,25.3577,-2.67698,0.26175,0.7997
502.171,25.37686,-2.677,0.2653,0.79928
502.771,25.3961,-2.6771,0.26246,0.79885
503.371,25.41527,-2.67841,0.26109,0.79842
503.971,25.43443,-2.67832,0.26485,0.79799
504.571,25.45361,-2.67905,0.26488,0.79757
505.171,25.4728,-2.67966,0.26605,0.79714
505.771,25.492,-2.68089,0.26339,0.79671
506.371,25.51118,-2.68166,0.26543,0.79629
506.971,25.53039,-2.68304,0.26461,0.79586
507.571,25.54963,-2.68415,0.26673,0.79543
508.171,25.56886,-2.68443,0.26757,0.795
508.771,25.58812,-2.68556,0.27026,0.79458
509.371,25.6074,-2.68682,0.26652,0.79415
509.971,25.62665,-2.68834,0.26787,0.79372
510.571,25.64591,-2.68834,0.26856,0.79329
511.171,25.66512,-2.68946,0.268,0.79286
511.771,25.68433,-2.68961,0.2687,0.79243
512.371,25.70354,-2.69128,0.26641,0.79201
512.971,25.72277,-2.69267,0.26789,0.79158
513.571,25.74202,-2.69414,0.26849,0.79115
514.171,25.7613,-2.69572,0.26859,0.79072
514.771,25.78059,-2.69603,0.2703,0.79029
515.371,25.79984,-2.69719,0.26877,0.78986
515.971,25.81916,-2.69809,0.26932,0.78943
516.571,25.83846,-2.69863,0.27032,0.78901
517.171,25.85766,-2.69908,0.26953,0.78858
517.771,25.8769,-2.69995,0.26693,0.78815
518.371,25.89615,-2.69983,0.26761,0.78772
518.971,25.9154,-2.7013,0.26834,0.78729
519.571,25.9346,-2.7004,0.2715,0.78686
520.171,25.95393,-2.7013,0.26956,0.78643
520.771,25.97318,-2.70253,0.27016,0.786
521.371,25.9925,-2.70265,0.27117,0.78557
521.971,26.0119,-2.70317,0.2693,0.78514
522.571,26.03122,-2.70397,0.27246,0.78471
523.171,26.05058,-2.704,0.27117,0.78428
523.771,26.06993,-2.70529,0.27229,0.78385
524.371,26.0892,-2.70529,0.27321,0.78342
524.971,26.1084,-2.70556,0.27267,0.78299
525.571,26.12769,-2.70619,0.27067,0.78256
526.171,26.14699,-2.7077,0.27216,0.78213
526.771,26.16633,-2.70786,0.2716,0.7817
527.371,26.18565,-2.70909,0.27218,0.78127
527.971,26.20504,-2.70935,0.27441,0.78084
528.571,26.2244,-2.70941,0.27238,0.7804
529.171,26.24372,-2.71076,0.2742,0.77997
529.771,26.26305,-2.71065,0.27273,0.77954
530.371,26.28248,-2.71094,0.27335,0.77911
530.971,26.30172,-2.71057,0.27425,0.77868
531.571,26.32095,-2.71055,0.27006,0.77825
532.171,26.34028,-2.711,0.274,0.77782
532.771,26.35959,-2.71206,0.27116,0.77739
533.371,26.37892,-2.71252,0.27124,0.77695
533.971,26.39835,-2.7138,0.27103,0.77652
534.571,26.4178,-2.71386,0.26897,0.77609
535.171,26.43716,-2.71426,0.27309,0.77566
535.771,26.4565,-2.71509,0.27203,0.77523
536.371,26.47588,-2.71592,0.27105,0.77479
536.971,26.49532,-2.71625,0.27186,0.77436
537.571,26.51469,-2.71626,0.27386,0.77393
538.171,26.5341,-2.71619,0.27407,0.7735
538.771,26.5534,-2.71748,0.27425,0.77306
539.371,26.57282,-2.71771,0.27459,0.77263
539.971,26.59214,-2.71909,0.27218,0.7722
540.571,26.61151,-2.72022,0.27533,0.77177
541.171,26.6309,-2.7202,0.27447,0.77133
541.771,26.65026,-2.72122,0.27612,0.7709
542.371,26.66964,-2.72153,0.27549,0.77047
542.971,26.6891,-2.72288,0.27478,0.77003
543.571,26.70845,-2.72288,0.2799,0.7696
544.171,26.7278,-2.72435,0.28215,0.76917
544.771,26.74728,-2.7244,0.28245,0.76874
545.371,26.76673,-2.72504,0.2839,0.7683
545.971,26.7861,-2.7257,0.28312,0.76787
546.571,26.8055,-2.7257,0.28525,0.76743
547.171,26.82491,-2.72566,0.2839,0.767
547.771,26.8442,-2.72673,0.28734,0.76657
548.371,26.86344,-2.72703,0.2882,0.76613
548.971,26.8828,-2.72829,0.2878,0.7657
549.571,26.9022,-2.72844,0.28883,0.76527
550.171,26.9216,-2.72844,0.2911,0.76483
550.771,26.94108,-2.72714,0.29345,0.7644
551.371,26.96064,-2.72851,0.29339,0.76396
551.971,26.97999,-2.72734,0.29577,0.76353
552.571,26.9994,-2.72859,0.29728,0.76309
553.171,27.01871,-2.72718,0.29697,0.76266
553.771,27.03817,-2.72854,0.29717,0.76222
554.371,27.05762,-2.72855,0.29896,0.76179
554.971,27.0771,-2.72971,0.30251,0.76135
555.571,27.0967,-2.72996,0.30444,0.76092
556.171,27.11621,-2.73032,0.30338,0.76048
556.771,27.13573,-2.73133,0.30746,0.76005
557.371,27.15506,-2.7313,0.309,0.75961
557.971,27.1745,-2.73131,0.30862,0.75918
558.571,27.194,-2.73166,0.31029,0.75874
559.171,27.2133,-2.7328,0.3125,0.75831
559.771,27.23276,-2.73424,0.31937,0.75787
560.371,27.25218,-2.73568,0.31709,0.75744
560.971,27.2717,-2.73653,0.31697,0.757
561.571,27.2911,-2.73845,0.32113,0.75657
562.171,27.31065,-2.73842,0.31926,0.75613
562.771,27.33022,-2.73986,0.3218,0.75569
563.371,27.34975,-2.74016,0.32425,0.75526
563.971,27.36915,-2.74244,0.32614,0.75482
564.571,27.38865,-2.74245,0.3288,0.75439
565.171,27.4082,-2.7439,0.32828,0.75395
565.771,27.4277,-2.74327,0.33068,0.75351
566.371,27.44718,-2.7434,0.33235,0.75308
566.971,27.46657,-2.74401,0.33175,0.75264
567.571,27.48606,-2.744,0.33275,0.7522
568.171,27.50556,-2.74493,0.33457,0.75177
568.771,27.52512,-2.74532,0.33596,0.75133
569.371,27.54467,-2.74657,0.33421,0.75089
569.971,27.5643,-2.74795,0.33788,0.75046
570.571,27.5838,-2.7479,0.33962,0.75002
571.171,27.6033,-2.74919,0.33685,0.74958
571.771,27.6227,-2.74939,0.342,0.74914
572.371,27.64224,-2.74939,0.34124,0.74871
572.971,27.66177,-2.74939,0.33989,0.74827
573.571,27.68133,-2.7494,0.34164,0.74783
574.171,27.70092,-2.74865,0.34088,0.7474
574.771,27.72048,-2.74931,0.34097,0.74696
575.371,27.74,-2.74775,0.34338,0.74652
575.971,27.7596,-2.74746,0.34282,0.74608
576.571,27.7791,-2.74618,0.34468,0.74564
577.171,27.7986,-2.74535,0.34379,0.74521
577.771,27.81819,-2.7449,0.3479,0.74477
578.371,27.8377,-2.7449,0.34627,0.74433
578.971,27.85722,-2.7449,0.34538,0.74389
579.571,27.8768,-2.74502,0.3451,0.74345
580.171,27.89635,-2.74618,0.34503,0.74302
580.771,27.91589,-2.74748,0.34527,0.74258
581.371,27.93543,-2.74752,0.34654,0.74214
581.971,27.95498,-2.74751,0.34506,0.7417
582.571,27.9745,-2.74745,0.34505,0.74126
583.171,27.99407,-2.74895,0.34663,0.74082
583.771,28.0137,-2.75021,0.34663,0.74038
584.371,28.0332,-2.75084,0.34544,0.73995
584.971,28.05283,-2.75298,0.34989,0.73951
585.571,28.0724,-2.75351,0.35023,0.73907
586.171,28.092,-2.75438,0.3474,0.73863
586.771,28.11161,-2.75553,0.34606,0.73819
587.371,28.1312,-2.75652,0.35052,0.73775
587.971,28.15079,-2.75632,0.34837,0.73731
588.571,28.1704,-2.75552,0.34863,0.73687
589.171,28.18999,-2.75399,0.34913,0.73643
589.771,28.2096,-2.75434,0.34976,0.73599
590.371,28.2292,-2.75377,0.34773,0.73555
590.971,28.2488,-2.75348,0.34652,0.73511
591.571,28.2684,-2.75374,0.34784,0.73467
592.171,28.2881,-2.7538,0.34978,0.73423
592.771,28.3078,-2.75454,0.3473,0.73379
593.371,28.32742,-2.75522,0.34696,0.73335
593.971,28.3471,-2.75562,0.34704,0.73291
594.571,28.36676,-2.75655,0.34909,0.73247
595.171,28.38638,-2.75652,0.34884,0.73203
595.771,28.406,-2.75652,0.34661,0.73159
596.371,28.4257,-2.75652,0.34173,0.73115
596.971,28.4454,-2.75654,0.34442,0.73071
597.571,28.4649,-2.75695,0.34154,0.73027
598.171,28.4845,-2.75797,0.34597,0.72983
598.771,28.5041,-2.75814,0.34345,0.72939
599.371,28.5237,-2.75931,0.34364,0.72895
599.971,28.54335,-2.75928,0.34132,0.72851
600.571,28.5631,-2.75948,0.3413,0.72807
601.171,28.58278,-2.7614,0.34456,0.72763
601.771,28.60244,-2.76158,0.34398,0.72719
602.371,28.6221,-2.76172,0.34481,0.72674
602.971,28.64162,-2.76289,0.34196,0.7263
603.571,28.6612,-2.76288,0.34266,0.72586
604.171,28.68088,-2.76288,0.34562,0.72542
604.771,28.70055,-2.76288,0.34395,0.72498
605.371,28.7203,-2.76322,0.34064,0.72454
605.971,28.7401,-2.76355,0.34035,0.7241
606.571,28.7598,-2.76495,0.34006,0.72365
607.171,28.77945,-2.76596,0.33995,0.72321
607.771,28.79915,-2.76595,0.34118,0.72277
608.371,28.81885,-2.76595,0.33964,0.72233
608.971,28.83853,-2.76595,0.34116,0.72189
609.571,28.8582,-2.76595,0.33794,0.72145
610.171,28.87793,-2.76611,0.33959,0.721
610.771,28.8975,-2.76668,0.33908,0.72056
611.371,28.91718,-2.76603,0.33529,0.72012
611.971,28.93682,-2.76645,0.33172,0.71968
612.571,28.95648,-2.76604,0.33431,0.71923
613.171,28.9762,-2.76606,0.3324,0.71879
613.771,28.9959,-2.76604,0.3338,0.71835
614.371,29.0156,-2.7668,0.33432,0.71791
614.971,29.03523,-2.76703,0.33315,0.71746
615.571,29.05485,-2.76705,0.32971,0.71702
616.171,29.07452,-2.76705,0.33136,0.71658
616.771,29.09413,-2.76704,0.33282,0.71614
617.371,29.11383,-2.76777,0.32858,0.71569
617.971,29.13366,-2.76833,0.33048,0.71525
618.571,29.15336,-2.76836,0.32872,0.71481
619.171,29.17312,-2.76836,0.33407,0.71436
619.771,29.1928,-2.76836,0.32991,0.71392
620.371,29.2125,-2.76836,0.33086,0.71348
620.971,29.2322,-2.76836,0.32685,0.71303
621.571,29.25187,-2.76837,0.32695,0.71259
622.171,29.27161,-2.76975,0.32714,0.71215
622.771,29.29135,-2.76968,0.32601,0.7117
623.371,29.31113,-2.77011,0.3286,0.71126
623.971,29.3309,-2.77099,0.32894,0.71082
624.571,29.3506,-2.771,0.32739,0.71037
625.171,29.37029,-2.771,0.32584,0.70993
625.771,29.38992,-2.77165,0.3269,0.70949
626.371,29.4097,-2.77232,0.3257,0.70904
626.971,29.4294,-2.77232,0.32822,0.7086
627.571,29.44908,-2.77232,0.32772,0.70815
628.171,29.4688,-2.77227,0.32484,0.70771
628.771,29.4886,-2.77362,0.32799,0.70727
629.371,29.5082,-2.77363,0.32689,0.70682
629.971,29.528,-2.77363,0.32874,0.70638
630.571,29.54768,-2.7738,0.32545,0.70593
631.171,29.5674,-2.77612,0.325,0.70549
631.771,29.5871,-2.77626,0.32459,0.70504
632.371,29.6068,-2.77627,0.32342,0.7046
632.971,29.6266,-2.77627,0.32443,0.70415
633.571,29.6462,-2.77627,0.32314,0.70371
634.171,29.66596,-2.77622,0.32439,0.70326
634.771,29.68575,-2.77737,0.32278,0.70282
635.371,29.70545,-2.77756,0.32174,0.70237
635.971,29.7252,-2.77749,0.32356,0.70193
636.571,29.74496,-2.77883,0.32328,0.70148
637.171,29.7647,-2.77881,0.32096,0.70104
637.771,29.7845,-2.78015,0.32081,0.70059
638.371,29.80426,-2.78043,0.31972,0.70015
638.971,29.824,-2.78158,0.32175,0.6997
639.571,29.8437,-2.78155,0.32245,0.69926
640.171,29.86341,-2.78181,0.32012,0.69881
640.771,29.8832,-2.7828,0.31909,0.69837
641.371,29.9029,-2.78402,0.318,0.69792
641.971,29.92254,-2.78416,0.31687,0.69748
642.571,29.94217,-2.78417,0.32049,0.69703
643.171,29.96185,-2.78555,0.31884,0.69659
643.771,29.9816,-2.78548,0.31608,0.69614
644.371,30.0015,-2.78548,0.31552,0.69569
644.971,30.0215,-2.78549,0.31796,0.69525
645.571,30.0414,-2.78686,0.31635,0.6948
646.171,30.0612,-2.78683,0.31531,0.69436
646.771,30.081,-2.78919,0.31426,0.69391
647.371,30.10071,-2.78941,0.31731,0.69346
647.971,30.1203,-2.79011,0.31319,0.69302
648.571,30.14007,-2.79074,0.31561,0.69257
649.171,30.15983,-2.78944,0.31611,0.69212
649.771,30.1796,-2.78943,0.31087,0.69168
650.371,30.1994,-2.78887,0.3122,0.69123
650.971,30.2194,-2.78655,0.31051,0.69079
651.571,30.23923,-2.78489,0.31034,0.69034
652.171,30.2591,-2.78426,0.30693,0.68989
652.771,30.2789,-2.78392,0.30261,0.68945
653.371,30.29875,-2.78265,0.30657,0.689
653.971,30.3185,-2.7827,0.30334,0.68855
654.571,30.33826,-2.78132,0.30531,0.68811
655.171,30.35805,-2.78128,0.30435,0.68766
655.771,30.37787,-2.78165,0.30255,0.68721
656.371,30.3977,-2.7816,0.3024,0.68676
656.971,30.41752,-2.78285,0.29964,0.68632
657.571,30.43729,-2.78286,0.29947,0.68587
658.171,30.45707,-2.78423,0.30053,0.68542
658.771,30.4769,-2.78587,0.29812,0.68498
659.371,30.4967,-2.78735,0.29921,0.68453
659.971,30.5166,-2.78924,0.30162,0.68408
660.571,30.5365,-2.79119,0.30075,0.68363
661.171,30.55635,-2.793,0.29643,0.68319
661.771,30.5762,-2.7938,0.29622,0.68274
662.371,30.59603,-2.79488,0.29706,0.68229
662.971,30.6159,-2.79357,0.29329,0.68184
663.571,30.6357,-2.79334,0.29309,0.6814
664.171,30.6555,-2.79217,0.29284,0.68095
664.771,30.6753,-2.79071,0.28952,0.6805
665.371,30.69515,-2.789,0.28879,0.68005
665.971,30.71497,-2.78907,0.28695,0.6796
666.571,30.7348,-2.78878,0.28679,0.67916
667.171,30.7546,-2.78845,0.2863,0.67871
667.771,30.77437,-2.78843,0.28238,0.67826
668.371,30.7942,-2.78928,0.28257,0.67781
668.971,30.81395,-2.7899,0.28066,0.67736
669.571,30.8338,-2.79099,0.28224,0.67692
670.171,30.85363,-2.79156,0.28104,0.67647
670.771,30.8735,-2.79277,0.28197,0.67602
671.371,30.8934,-2.79272,0.27616,0.67557
671.971,30.9132,-2.79272,0.27431,0.67512
672.571,30.9331,-2.79272,0.27297,0.67467
673.171,30.95291,-2.79272,0.27194,0.67422
673.771,30.9727,-2.7927,0.27062,0.67378
674.371,30.99247,-2.79129,0.2691,0.67333
674.971,31.0123,-2.78999,0.26961,0.67288
675.571,31.0321,-2.79007,0.26933,0.67243
676.171,31.05193,-2.79008,0.26929,0.67198
676.771,31.07178,-2.79008,0.26403,0.67153
677.371,31.0915,-2.79008,0.2628,0.67108
677.971,31.1112,-2.79008,0.26425,0.67063
678.571,31.13099,-2.79007,0.26384,0.67019
679.171,31.15077,-2.7908,0.26249,0.66974
679.771,31.1707,-2.79139,0.2619,0.66929
680.371,31.19068,-2.7914,0.25771,0.66884
680.971,31.21057,-2.79138,0.25969,0.66839
681.571,31.2305,-2.79042,0.25415,0.66794
682.171,31.2503,-2.78973,0.25561,0.66749
682.771,31.2702,-2.78899,0.25531,0.66704
683.371,31.2901,-2.78899,0.2524,0.66659
683.971,31.31008,-2.7901,0.25053,0.66614
684.571,31.33,-2.79053,0.25357,0.66569
685.171,31.3499,-2.79184,0.25172,0.66524
685.771,31.3696,-2.79185,0.25045,0.66479
686.371,31.3896,-2.79279,0.25023,0.66434
686.971,31.40946,-2.79316,0.24817,0.66389
687.571,31.42932,-2.79316,0.24274,0.66344
688.171,31.4493,-2.79316,0.24451,0.66299
688.771,31.4692,-2.79343,0.24088,0.66254
689.371,31.48909,-2.79448,0.24093,0.66209
689.971,31.50899,-2.79571,0.2431,0.66164
690.571,31.5289,-2.79712,0.23937,0.66119
691.171,31.5488,-2.79715,0.24195,0.66074
691.771,31.56878,-2.79862,0.24024,0.66029
692.371,31.5886,-2.80006,0.24152,0.65984
692.971,31.6085,-2.80068,0.23797,0.65939
693.571,31.6284,-2.8017,0.23803,0.65894
694.171,31.6483,-2.80305,0.23888,0.65849
694.771,31.66818,-2.80312,0.23602,0.65804
695.371,31.68807,-2.80313,0.23635,0.65759
695.971,31.708,-2.80312,0.2328,0.65714
696.571,31.7279,-2.80265,0.23186,0.65669
697.171,31.7479,-2.8018,0.23377,0.65624
697.771,31.7678,-2.80182,0.23037,0.65579
698.371,31.7877,-2.80182,0.2293,0.65534
698.971,31.80762,-2.80183,0.22858,0.65489
699.571,31.82749,-2.80069,0.23265,0.65444
700.171,31.8474,-2.80008,0.22659,0.65399
700.771,31.86737,-2.79916,0.23225,0.65354
701.371,31.8873,-2.79919,0.22603,0.65309
701.971,31.90724,-2.79919,0.22618,0.65264
702.571,31.9272,-2.79919,0.22367,0.65218
703.171,31.94711,-2.79919,0.22473,0.65173
703.771,31.9671,-2.79919,0.22367,0.65128
704.371,31.987,-2.79919,0.22125,0.65083
704.971,32.00697,-2.79919,0.2195,0.65038
705.571,32.02691,-2.79921,0.21994,0.64993
706.171,32.0469,-2.79965,0.21871,0.64948
706.771,32.06681,-2.79982,0.21854,0.64903
707.371,32.08672,-2.79974,0.21408,0.64858
707.971,32.1066,-2.80113,0.21631,0.64812
708.571,32.12652,-2.80116,0.21685,0.64767
709.171,32.14648,-2.80114,0.21677,0.64722
709.771,32.16644,-2.80072,0.21583,0.64677
710.371,32.1864,-2.80051,0.21105,0.64632
710.971,32.20641,-2.8005,0.21195,0.64587
711.571,32.22636,-2.8005,0.20877,0.64542
712.171,32.24633,-2.8005,0.21149,0.64496
712.771,32.26632,-2.8005,0.2113,0.64451
713.371,32.28632,-2.8005,0.21209,0.64406
713.971,32.30632,-2.8005,0.20825,0.64361
714.571,32.32625,-2.8005,0.20945,0.64316
715.171,32.34621,-2.80049,0.20976,0.64271
715.771,32.36618,-2.8004,0.20863,0.64225
716.371,32.3861,-2.80178,0.20606,0.6418
716.971,32.40607,-2.80191,0.2056,0.64135
717.571,32.42606,-2.80323,0.20935,0.6409
718.171,32.44603,-2.80379,0.21136,0.64045
718.771,32.46602,-2.8061,0.20895,0.64
719.371,32.48603,-2.80632,0.20841,0.63954
719.971,32.50597,-2.80745,0.20718,0.63909
720.571,32.5259,-2.80732,0.20834,0.63864
721.171,32.54585,-2.80869,0.20823,0.63819
721.771,32.56581,-2.80873,0.2072,0.63774
722.371,32.58578,-2.80873,0.20079,0.63728
722.971,32.6058,-2.80878,0.20362,0.63683
723.571,32.62578,-2.80762,0.20174,0.63638
724.171,32.6458,-2.80742,0.20415,0.63593
724.771,32.66576,-2.80741,0.20286,0.63547
725.371,32.6857,-2.80741,0.20095,0.63502
725.971,32.70564,-2.80732,0.20259,0.63457
726.571,32.7256,-2.80601,0.20006,0.63412
727.171,32.74555,-2.80608,0.19927,0.63366
727.771,32.76549,-2.80609,0.19819,0.63321
728.371,32.7855,-2.80609,0.19506,0.63276
728.971,32.8055,-2.80612,0.19722,0.63231
729.571,32.8255,-2.80661,0.19393,0.63185
730.171,32.84556,-2.80741,0.19587,0.6314
730.771,32.86549,-2.80736,0.19721,0.63095
731.371,32.8855,-2.80851,0.19059,0.6305
731.971,32.90549,-2.80877,0.19657,0.63004
732.571,32.92545,-2.80765,0.19041,0.62959
733.171,32.9455,-2.80744,0.1908,0.62914
733.771,32.96545,-2.80752,0.18967,0.62869
734.371,32.98542,-2.80615,0.18671,0.62823
734.971,33.00543,-2.8061,0.18819,0.62778
735.571,33.0254,-2.80607,0.18816,0.62733
736.171,33.0454,-2.80559,0.18756,0.62687
736.771,33.0654,-2.80477,0.18732,0.62642
737.371,33.0854,-2.80478,0.18753,0.62597
737.971,33.10543,-2.80478,0.18761,0.62552
738.571,33.12543,-2.80478,0.18702,0.62506
739.171,33.14541,-2.80475,0.18302,0.62461
739.771,33.16547,-2.80427,0.18472,0.62416
740.371,33.18537,-2.80346,0.18263,0.6237
740.971,33.20524,-2.80348,0.18188,0.62325
741.571,33.2252,-2.80394,0.18023,0.6228
742.171,33.24508,-2.80479,0.18329,0.62234
742.771,33.26511,-2.80478,0.18178,0.62189
743.371,33.28523,-2.80484,0.18079,0.62144
743.971,33.3065,-2.80618,0.18013,0.62098
744.571,33.32806,-2.8061,0.18355,0.62053
744.771,33.33282,-2.8061,0.18285,0.62038