File: 01_Data/Straw/STA/N2/30K_min/Straw_STA_N2_30KData_220429_R2.csv
##Temp./Â°C,Time/min,Mass loss(subtr.2)/mg,DSC(subtr.2)/(mW/mg),Sensit./(uV/mW)
48.538,10.00667,-0.01065,0.006468068,1.07504
49.138,10.5365,-0.01190008,0.03892968,1.07478
49.738,10.65404,-0.01109428,0.06846205,1.07451
50.338,10.7392,-0.009192152,0.09445758,1.07425
50.938,10.80743,-0.01079275,0.11775,1.07398
51.538,10.866,-0.01060267,0.1417,1.07372
52.138,10.91886,-0.01078216,0.16288,1.07345
52.738,10.96752,-0.00900565,0.18311,1.07318
53.338,11.01211,-0.01045731,0.20173,1.07292
53.938,11.05366,-0.01010964,0.21913,1.07265
54.538,11.09285,-0.01173818,0.23732,1.07238
55.138,11.13033,-0.01170219,0.2521,1.07211
55.738,11.16658,-0.01208354,0.2692,1.07184
56.338,11.20105,-0.01161197,0.28167,1.07158
56.938,11.23409,-0.0117449,0.29931,1.07131
57.538,11.2665,-0.01163555,0.3123,1.07104
58.138,11.29804,-0.01196925,0.32685,1.07077
58.738,11.32869,-0.01261318,0.3388,1.0705
59.338,11.35838,-0.01163122,0.35395,1.07022
59.938,11.38724,-0.011907,0.36415,1.06995
60.538,11.4154,-0.01168706,0.37759,1.06968
61.138,11.44345,-0.01237876,0.38913,1.06941
61.738,11.47083,-0.01314179,0.40056,1.06914
62.338,11.49785,-0.01366613,0.41047,1.06886
62.938,11.52449,-0.01300487,0.42137,1.06859
63.538,11.55085,-0.01307701,0.43149,1.06832
64.138,11.57671,-0.01289451,0.44162,1.06804
64.738,11.6022,-0.01299442,0.44987,1.06777
65.338,11.6272,-0.01320494,0.46086,1.06749
65.938,11.65216,-0.01274082,0.4681,1.06722
66.538,11.6768,-0.0126208,0.47939,1.06694
67.138,11.70139,-0.01280281,0.48565,1.06667
67.738,11.72565,-0.0123417,0.49656,1.06639
68.338,11.74957,-0.01232746,0.5057,1.06611
68.938,11.77337,-0.01283944,0.51269,1.06583
69.538,11.79696,-0.01305185,0.51852,1.06556
70.138,11.82036,-0.01281439,0.52856,1.06528
70.738,11.8436,-0.01346739,0.53676,1.065
71.338,11.8666,-0.01349857,0.54657,1.06472
71.938,11.8897,-0.01352069,0.55284,1.06444
72.538,11.91257,-0.01281234,0.55838,1.06416
73.138,11.9353,-0.01241053,0.56794,1.06388
73.738,11.9579,-0.01239551,0.57358,1.0636
74.338,11.9804,-0.01304409,0.58138,1.06332
74.938,12.00292,-0.01322863,0.58651,1.06304
75.538,12.0253,-0.01400707,0.59501,1.06276
76.138,12.04752,-0.01332849,0.60303,1.06248
76.738,12.06948,-0.0131926,0.6079,1.0622
77.338,12.0914,-0.01367745,0.61639,1.06191
77.938,12.11319,-0.01285534,0.61913,1.06163
78.538,12.13512,-0.01326994,0.62567,1.06135
79.138,12.15698,-0.01183695,0.63261,1.06106
79.738,12.17878,-0.01314002,0.63919,1.06078
80.338,12.20042,-0.01337146,0.64434,1.06049
80.938,12.22189,-0.01350762,0.65002,1.06021
81.538,12.24346,-0.01457278,0.65597,1.05992
82.138,12.26489,-0.01369072,0.66134,1.05964
82.738,12.28625,-0.01319488,0.66753,1.05935
83.338,12.3074,-0.01319421,0.67426,1.05907
83.938,12.3286,-0.01302123,0.67633,1.05878
84.538,12.34978,-0.01347767,0.68533,1.05849
85.138,12.37093,-0.01284759,0.6882,1.0582
85.738,12.39205,-0.01272627,0.69624,1.05792
86.338,12.4131,-0.01271925,0.69845,1.05763
86.938,12.43409,-0.01266819,0.70441,1.05734
87.538,12.45496,-0.01283055,0.70917,1.05705
88.138,12.47587,-0.01414262,0.71476,1.05676
88.738,12.49676,-0.01416038,0.72212,1.05647
89.338,12.51742,-0.01415364,0.72505,1.05618
89.938,12.53814,-0.01415097,0.73195,1.05589
90.538,12.55878,-0.01392662,0.73341,1.0556
91.138,12.57949,-0.01413126,0.74067,1.05531
91.738,12.59992,-0.01416015,0.74418,1.05502
92.338,12.62047,-0.0141829,0.75023,1.05473
92.938,12.64102,-0.01556717,0.75546,1.05443
93.538,12.6614,-0.01566794,0.76141,1.05414
94.138,12.68211,-0.01688533,0.76508,1.05385
94.738,12.7026,-0.01695124,0.76801,1.05355
95.338,12.72307,-0.01655728,0.77453,1.05326
95.938,12.7435,-0.01690911,0.7806,1.05297
96.538,12.7638,-0.01759937,0.78511,1.05267
97.138,12.78387,-0.01820672,0.78858,1.05238
97.738,12.8039,-0.01815734,0.79262,1.05208
98.338,12.82417,-0.01956698,0.79796,1.05179
98.938,12.8447,-0.01972172,0.80288,1.05149
99.538,12.8652,-0.02046445,0.80676,1.05119
100.138,12.88561,-0.01993594,0.80995,1.0509
100.738,12.90574,-0.02129351,0.81268,1.0506
101.338,12.9258,-0.02127976,0.81821,1.0503
101.938,12.94603,-0.02128,0.82153,1.05001
102.538,12.9662,-0.02128,0.82288,1.04971
103.138,12.98652,-0.02128001,0.8282,1.04941
103.738,13.00671,-0.02128018,0.83051,1.04911
104.338,13.02691,-0.02196233,0.83333,1.04881
104.938,13.0471,-0.02227037,0.83712,1.04851
105.538,13.06718,-0.02227017,0.84099,1.04821
106.138,13.08739,-0.02225628,0.84486,1.04791
106.738,13.1075,-0.0209494,0.84568,1.04761
107.338,13.12756,-0.02096022,0.84577,1.04731
107.938,13.14781,-0.02095999,0.85021,1.04701
108.538,13.16792,-0.02096,0.85129,1.04671
109.138,13.1881,-0.02096,0.85191,1.04641
109.738,13.20824,-0.02096,0.85601,1.04611
110.338,13.22834,-0.02096,0.85631,1.0458
110.938,13.24838,-0.02096,0.85596,1.0455
111.538,13.2684,-0.02096001,0.85674,1.0452
112.138,13.28825,-0.02095934,0.86118,1.04489
112.738,13.30824,-0.0209978,0.85793,1.04459
113.338,13.3282,-0.02228568,0.86098,1.04429
113.938,13.34823,-0.0222697,0.86221,1.04398
114.538,13.36825,-0.02227001,0.86442,1.04368
115.138,13.38824,-0.02227,0.86423,1.04337
115.738,13.4082,-0.02227,0.8653,1.04307
116.338,13.42816,-0.02226996,0.86453,1.04276
116.938,13.44808,-0.02227215,0.86553,1.04245
117.538,13.468,-0.02272451,0.86742,1.04215
118.138,13.48799,-0.02358588,0.86654,1.04184
118.738,13.50782,-0.02359019,0.86829,1.04153
119.338,13.52767,-0.02358461,0.86721,1.04123
119.938,13.5475,-0.0246459,0.86848,1.04092
120.538,13.56732,-0.02491066,0.867,1.04061
121.138,13.5871,-0.02490999,0.86675,1.0403
121.738,13.60682,-0.02490999,0.86693,1.03999
122.338,13.6266,-0.02490968,0.86781,1.03968
122.938,13.64631,-0.025516,0.86668,1.03937
123.538,13.6662,-0.02622011,0.86578,1.03907
124.138,13.6859,-0.02561409,0.86757,1.03876
124.738,13.7056,-0.02555825,0.86636,1.03844
125.338,13.72528,-0.02557153,0.86536,1.03813
125.938,13.745,-0.0267734,0.86668,1.03782
126.538,13.76472,-0.0268822,0.86673,1.03751
127.138,13.7844,-0.02688031,0.86635,1.0372
127.738,13.80395,-0.02686087,0.86849,1.03689
128.338,13.82344,-0.02809706,0.86794,1.03658
128.938,13.84295,-0.02820136,0.86774,1.03626
129.538,13.86251,-0.02819997,0.86691,1.03595
130.138,13.88205,-0.0282,0.86819,1.03564
130.738,13.9017,-0.0282,0.86686,1.03532
131.338,13.92126,-0.0282,0.86445,1.03501
131.938,13.9408,-0.0282,0.86485,1.03469
132.538,13.9603,-0.0282,0.86274,1.03438
133.138,13.97969,-0.0282,0.86654,1.03407
133.738,13.9991,-0.02819996,0.86282,1.03375
134.338,14.0182,-0.02820317,0.86171,1.03343
134.938,14.0376,-0.02910171,0.86268,1.03312
135.538,14.05689,-0.03084268,0.86275,1.0328
136.138,14.0763,-0.03082985,0.86057,1.03249
136.738,14.0959,-0.03082475,0.85967,1.03217
137.338,14.1152,-0.03038583,0.85767,1.03185
137.938,14.13445,-0.03016861,0.85639,1.03153
138.538,14.15368,-0.03017028,0.85737,1.03122
139.138,14.173,-0.03018214,0.85818,1.0309
139.738,14.1922,-0.0284911,0.85617,1.03058
140.338,14.2115,-0.02852094,0.85772,1.03026
140.938,14.23078,-0.02851997,0.85731,1.02994
141.538,14.25,-0.02852,0.85698,1.02962
142.138,14.26927,-0.02852,0.8564,1.0293
142.738,14.2885,-0.02851995,0.85505,1.02898
143.338,14.30761,-0.02852135,0.85684,1.02866
143.938,14.32675,-0.0285148,0.85628,1.02834
144.538,14.34583,-0.02785316,0.8568,1.02802
145.138,14.3649,-0.0291373,0.86105,1.0277
145.738,14.384,-0.0291811,0.86021,1.02738
146.338,14.40305,-0.02917997,0.86054,1.02706
146.938,14.42213,-0.02918,0.8603,1.02674
147.538,14.4411,-0.02917997,0.86319,1.02641
148.138,14.4602,-0.02918023,0.86533,1.02609
148.738,14.47928,-0.02945157,0.86531,1.02577
149.338,14.4983,-0.03050962,0.86778,1.02545
149.938,14.5174,-0.03049972,0.8685,1.02512
150.538,14.53641,-0.03050001,0.87003,1.0248
151.138,14.55538,-0.0305,0.86967,1.02447
151.738,14.57436,-0.0305,0.87284,1.02415
152.338,14.59329,-0.0305,0.87234,1.02383
152.938,14.61224,-0.03050001,0.87441,1.0235
153.538,14.6309,-0.03049948,0.87493,1.02317
154.138,14.6496,-0.03052252,0.87964,1.02285
154.738,14.6686,-0.02981534,0.87869,1.02252
155.338,14.68762,-0.02984032,0.87982,1.0222
155.938,14.70681,-0.02984,0.88196,1.02187
156.538,14.72595,-0.02984,0.88384,1.02154
157.138,14.7448,-0.02984,0.88548,1.02122
157.738,14.76361,-0.02984,0.88741,1.02089
158.338,14.7825,-0.02984,0.88727,1.02056
158.938,14.80131,-0.02983987,0.89203,1.02023
159.538,14.8201,-0.0298405,0.89161,1.01991
160.138,14.83893,-0.02895771,0.89452,1.01958
160.738,14.8578,-0.02854735,0.89734,1.01925
161.338,14.8766,-0.02957485,0.90123,1.01892
161.938,14.8954,-0.02984356,0.90056,1.01859
162.538,14.91421,-0.02983996,0.90251,1.01826
163.138,14.933,-0.02984,0.90569,1.01793
163.738,14.9519,-0.02984,0.90679,1.0176
164.338,14.9707,-0.02984,0.90827,1.01727
164.938,14.98965,-0.02984,0.90952,1.01694
165.538,15.0084,-0.02984,0.91192,1.01661
166.138,15.02713,-0.02984,0.91554,1.01628
166.738,15.04587,-0.02983999,0.91657,1.01594
167.338,15.0646,-0.02984049,0.91769,1.01561
167.938,15.08337,-0.02981517,0.91971,1.01528
168.538,15.10215,-0.03052552,0.92318,1.01495
169.138,15.12091,-0.03049962,0.92387,1.01462
169.738,15.13965,-0.03049894,0.9272,1.01428
170.338,15.15835,-0.03095545,0.92786,1.01395
170.938,15.177,-0.03180795,0.93232,1.01362
171.538,15.1957,-0.03182029,0.93397,1.01328
172.138,15.2143,-0.03181948,0.93651,1.01295
172.738,15.23299,-0.03181262,0.93918,1.01261
173.338,15.25164,-0.03248279,0.93901,1.01228
173.938,15.2702,-0.03246956,0.94067,1.01194
174.538,15.28878,-0.03247002,0.94062,1.01161
175.138,15.30735,-0.03246975,0.94462,1.01127
175.738,15.32595,-0.03246027,0.94616,1.01094
176.338,15.3446,-0.03373615,0.94867,1.0106
176.938,15.36326,-0.03379239,0.95035,1.01026
177.538,15.38195,-0.03375368,0.95084,1.00993
178.138,15.4006,-0.03478744,0.95466,1.00959
178.738,15.41915,-0.03478028,0.95768,1.00925
179.338,15.43767,-0.03477998,0.95853,1.00892
179.938,15.45619,-0.03478,0.9614,1.00858
180.538,15.4747,-0.03477993,0.96289,1.00824
181.138,15.4932,-0.03477972,0.9654,1.0079
181.738,15.51172,-0.03504125,0.96649,1.00756
182.338,15.53016,-0.03511234,0.96916,1.00723
182.938,15.5486,-0.03510997,0.9701,1.00689
183.538,15.5671,-0.03510978,0.97132,1.00655
184.138,15.58566,-0.03509261,0.9715,1.00621
184.738,15.6041,-0.03579,0.9732,1.00587
185.338,15.6226,-0.03576949,0.97571,1.00553
185.938,15.641,-0.03577015,0.97526,1.00519
186.538,15.6594,-0.03577303,0.97975,1.00485
187.138,15.67789,-0.03635731,0.98072,1.00451
187.738,15.69622,-0.03643185,0.9819,1.00416
188.338,15.7146,-0.03642997,0.98316,1.00382
188.938,15.733,-0.03643,0.98397,1.00348
189.538,15.75146,-0.03642975,0.98627,1.00314
190.138,15.7699,-0.03644254,0.98726,1.0028
190.738,15.78829,-0.03728008,0.98681,1.00245
191.338,15.8065,-0.03773678,0.99127,1.00211
191.938,15.82474,-0.03900116,0.99086,1.00177
192.538,15.84296,-0.03905136,0.99388,1.00143
193.138,15.8611,-0.03904998,0.99244,1.00108
193.738,15.8794,-0.03905,0.99572,1.00074
194.338,15.8978,-0.03905007,0.99656,1.00039
194.938,15.9162,-0.0390469,0.99744,1.00005
195.538,15.93472,-0.03913434,1.00099,0.99971
196.138,15.9531,-0.04037297,1.00114,0.99936
196.738,15.97145,-0.04037038,1.00047,0.99902
197.338,15.9898,-0.04032332,1.00392,0.99867
197.938,16.00808,-0.04173337,1.00164,0.99832
198.538,16.02629,-0.04169036,1.00459,0.99798
199.138,16.0445,-0.04168993,1.00605,0.99763
199.738,16.0628,-0.04169081,1.00845,0.99729
200.338,16.08108,-0.04167427,1.00847,0.99694
200.938,16.0994,-0.04296904,1.00808,0.99659
201.538,16.11767,-0.04300237,1.01173,0.99625
202.138,16.1359,-0.04301178,1.01308,0.9959
202.738,16.15418,-0.0419899,1.01335,0.99555
203.338,16.17248,-0.04302349,1.01575,0.9952
203.938,16.19071,-0.04300951,1.01464,0.99486
204.538,16.20893,-0.04299676,1.01809,0.99451
205.138,16.22717,-0.04403113,1.01742,0.99416
205.738,16.24536,-0.04431831,1.02023,0.99381
206.338,16.2636,-0.04430182,1.019,0.99346
206.938,16.28181,-0.04544603,1.01988,0.99311
207.538,16.3,-0.04563999,1.02162,0.99276
208.138,16.31815,-0.04606035,1.02226,0.99241
208.738,16.3364,-0.04705219,1.0207,0.99206
209.338,16.35466,-0.04710093,1.02231,0.99171
209.938,16.37284,-0.04837056,1.02203,0.99136
210.538,16.39106,-0.04838083,1.02207,0.99101
211.138,16.40926,-0.0483839,1.02393,0.99066
211.738,16.4275,-0.04878489,1.02437,0.99031
212.338,16.44576,-0.04970532,1.02608,0.98996
212.938,16.464,-0.04964997,1.02576,0.9896
213.538,16.48227,-0.05118047,1.02395,0.98925
214.138,16.50044,-0.05113737,1.02392,0.9889
214.738,16.5186,-0.05354736,1.02326,0.98855
215.338,16.53687,-0.05469263,1.02304,0.9882
215.938,16.55508,-0.0555112,1.02221,0.98784
216.538,16.57326,-0.05615165,1.02432,0.98749
217.138,16.59143,-0.05751469,1.02145,0.98714
217.738,16.60957,-0.05827273,1.0224,0.98678
218.338,16.62771,-0.0593222,1.01967,0.98643
218.938,16.6459,-0.06115419,1.02056,0.98607
219.538,16.66405,-0.0613421,1.02172,0.98572
220.138,16.68225,-0.06297034,1.02146,0.98537
220.738,16.70044,-0.06474673,1.02071,0.98501
221.338,16.71864,-0.06566774,1.01824,0.98466
221.938,16.73689,-0.06636476,1.01811,0.9843
222.538,16.755,-0.06779273,1.02044,0.98394
223.138,16.77316,-0.06942661,1.0206,0.98359
223.738,16.79131,-0.07029655,1.02068,0.98323
224.338,16.80945,-0.07124716,1.02,0.98288
224.938,16.82769,-0.07273367,1.02111,0.98252
225.538,16.84591,-0.07424927,1.02195,0.98216
226.138,16.86403,-0.07511811,1.02336,0.98181
226.738,16.88215,-0.07595533,1.02358,0.98145
227.338,16.90029,-0.07745268,1.02534,0.98109
227.938,16.91842,-0.07904346,1.02723,0.98074
228.538,16.93654,-0.08015302,1.02835,0.98038
229.138,16.95467,-0.08187606,1.02821,0.98002
229.738,16.9727,-0.08373995,1.02822,0.97966
230.338,16.99079,-0.08593923,1.03133,0.9793
230.938,17.009,-0.08786333,1.03297,0.97894
231.538,17.0271,-0.08941828,1.03491,0.97858
232.138,17.0453,-0.09129541,1.03603,0.97823
232.738,17.06339,-0.09310653,1.03594,0.97787
233.338,17.08145,-0.09487042,1.03964,0.97751
233.938,17.09959,-0.09657916,1.04193,0.97715
234.538,17.11767,-0.09850403,1.04289,0.97679
235.138,17.13577,-0.10061,1.0466,0.97643
235.738,17.15392,-0.10385,1.04683,0.97607
236.338,17.17202,-0.10593,1.05209,0.97571
236.938,17.19013,-0.10821,1.05481,0.97534
237.538,17.20834,-0.11041,1.05623,0.97498
238.138,17.22648,-0.11168,1.06042,0.97462
238.738,17.24458,-0.11336,1.06471,0.97426
239.338,17.2626,-0.11579,1.0666,0.9739
239.938,17.28071,-0.11694,1.06679,0.97354
240.538,17.2988,-0.11956,1.07096,0.97317
241.138,17.31697,-0.12234,1.07199,0.97281
241.738,17.33522,-0.12522,1.07657,0.97245
242.338,17.35333,-0.12801,1.07832,0.97209
242.938,17.37143,-0.13088,1.08424,0.97172
243.538,17.38949,-0.13359,1.0861,0.97136
244.138,17.40762,-0.13595,1.08807,0.971
244.738,17.42568,-0.13892,1.09041,0.97063
245.338,17.4437,-0.1417,1.09418,0.97027
245.938,17.46171,-0.14483,1.09688,0.9699
246.538,17.4796,-0.14716,1.10009,0.96954
247.138,17.49759,-0.15078,1.10004,0.96917
247.738,17.5158,-0.1551,1.10258,0.96881
248.338,17.53402,-0.1585,1.10513,0.96844
248.938,17.55232,-0.1618,1.10708,0.96808
249.538,17.57056,-0.1647,1.10848,0.96771
250.138,17.58859,-0.16767,1.11133,0.96735
250.738,17.60663,-0.17078,1.11357,0.96698
251.338,17.62463,-0.17466,1.11514,0.96662
251.938,17.6427,-0.17807,1.1168,0.96625
252.538,17.66077,-0.18233,1.11793,0.96588
253.138,17.67894,-0.18548,1.12015,0.96552
253.738,17.69705,-0.18895,1.11929,0.96515
254.338,17.7151,-0.19161,1.11847,0.96478
254.938,17.73315,-0.19479,1.1196,0.96441
255.538,17.75114,-0.198,1.12178,0.96405
256.138,17.76924,-0.20175,1.12137,0.96368
256.738,17.78731,-0.20554,1.12019,0.96331
257.338,17.80542,-0.20938,1.11911,0.96294
257.938,17.8235,-0.21351,1.11972,0.96257
258.538,17.84156,-0.21711,1.11894,0.96221
259.138,17.85966,-0.22171,1.11856,0.96184
259.738,17.87774,-0.22521,1.11619,0.96147
260.338,17.89582,-0.22918,1.11509,0.9611
260.938,17.91389,-0.23251,1.11217,0.96073
261.538,17.93195,-0.23667,1.11268,0.96036
262.138,17.94998,-0.24051,1.1127,0.95999
262.738,17.968,-0.24431,1.1082,0.95962
263.338,17.9861,-0.24816,1.10661,0.95925
263.938,18.00413,-0.25233,1.1025,0.95888
264.538,18.02223,-0.25677,1.10251,0.95851
265.138,18.0403,-0.26059,1.09972,0.95814
265.738,18.05846,-0.26444,1.09533,0.95777
266.338,18.07658,-0.26778,1.09083,0.9574
266.938,18.09467,-0.27252,1.09025,0.95702
267.538,18.11271,-0.27617,1.08581,0.95665
268.138,18.1308,-0.28096,1.08294,0.95628
268.738,18.14878,-0.28544,1.07846,0.95591
269.338,18.16682,-0.28929,1.07409,0.95554
269.938,18.18485,-0.29408,1.0706,0.95516
270.538,18.20288,-0.29848,1.06548,0.95479
271.138,18.22091,-0.30244,1.05926,0.95442
271.738,18.239,-0.30728,1.05719,0.95405
272.338,18.2571,-0.31168,1.05066,0.95367
272.938,18.27521,-0.3162,1.0451,0.9533
273.538,18.2933,-0.32127,1.04103,0.95293
274.138,18.31129,-0.32488,1.03673,0.95255
274.738,18.3293,-0.32905,1.03054,0.95218
275.338,18.34732,-0.33338,1.02655,0.9518
275.938,18.36541,-0.33788,1.02232,0.95143
276.538,18.3835,-0.34324,1.01443,0.95105
277.138,18.40156,-0.34825,1.00982,0.95068
277.738,18.41964,-0.35245,1.00459,0.9503
278.338,18.43764,-0.35754,0.99746,0.94993
278.938,18.4557,-0.36266,0.99267,0.94955
279.538,18.47373,-0.36736,0.98634,0.94918
280.138,18.49183,-0.37317,0.9801,0.9488
280.738,18.50994,-0.3783,0.97248,0.94843
281.338,18.52802,-0.38352,0.96565,0.94805
281.938,18.5461,-0.38933,0.9591,0.94767
282.538,18.56417,-0.39424,0.953,0.9473
283.138,18.5822,-0.39957,0.94577,0.94692
283.738,18.6002,-0.40647,0.94243,0.94654
284.338,18.61823,-0.41308,0.93318,0.94617
284.938,18.63626,-0.41949,0.92265,0.94579
285.538,18.65436,-0.42634,0.91587,0.94541
286.138,18.67249,-0.43201,0.90878,0.94503
286.738,18.6906,-0.43902,0.90231,0.94466
287.338,18.70859,-0.4454,0.89562,0.94428
287.938,18.72662,-0.45069,0.88832,0.9439
288.538,18.74472,-0.45814,0.87865,0.94352
289.138,18.76285,-0.46494,0.86934,0.94314
289.738,18.78108,-0.47148,0.86549,0.94276
290.338,18.79919,-0.47942,0.85617,0.94239
290.938,18.81727,-0.4863,0.84699,0.94201
291.538,18.83537,-0.49419,0.83988,0.94163
292.138,18.85343,-0.50416,0.83082,0.94125
292.738,18.87154,-0.51149,0.82203,0.94087
293.338,18.88966,-0.52007,0.8132,0.94049
293.938,18.90775,-0.52889,0.80487,0.94011
294.538,18.92576,-0.53622,0.79564,0.93973
295.138,18.94366,-0.54546,0.78701,0.93935
295.738,18.96164,-0.55468,0.78004,0.93897
296.338,18.97965,-0.56277,0.77197,0.93859
296.938,18.99782,-0.57134,0.7623,0.93821
297.538,19.01608,-0.58081,0.75135,0.93782
298.138,19.03426,-0.5897,0.74355,0.93744
298.738,19.0524,-0.60063,0.73375,0.93706
299.338,19.0704,-0.61004,0.72524,0.93668
299.938,19.08849,-0.621,0.71466,0.9363
300.538,19.10656,-0.6325,0.70649,0.93592
301.138,19.12462,-0.64185,0.6969,0.93553
301.738,19.14271,-0.65296,0.68813,0.93515
302.338,19.16078,-0.66508,0.67956,0.93477
302.938,19.17884,-0.6747,0.66894,0.93439
303.538,19.19687,-0.68741,0.6607,0.934
304.138,19.21496,-0.69966,0.65144,0.93362
304.738,19.23307,-0.71028,0.64232,0.93324
305.338,19.2512,-0.72371,0.63307,0.93285
305.938,19.26932,-0.73617,0.62202,0.93247
306.538,19.28742,-0.7479,0.61381,0.93209
307.138,19.30547,-0.76262,0.60834,0.9317
307.738,19.3235,-0.77508,0.59646,0.93132
308.338,19.34155,-0.78772,0.58783,0.93093
308.938,19.35964,-0.80241,0.57998,0.93055
309.538,19.37775,-0.81511,0.5721,0.93016
310.138,19.39582,-0.82967,0.56418,0.92978
310.738,19.41394,-0.84593,0.55425,0.92939
311.338,19.43196,-0.85934,0.54566,0.92901
311.938,19.45005,-0.87536,0.53847,0.92862
312.538,19.46815,-0.89167,0.5309,0.92824
313.138,19.48625,-0.90557,0.52374,0.92785
313.738,19.5044,-0.92281,0.5181,0.92747
314.338,19.52252,-0.9385,0.50742,0.92708
314.938,19.54061,-0.95323,0.50118,0.92669
315.538,19.5587,-0.97165,0.49527,0.92631
316.138,19.57687,-0.98761,0.48873,0.92592
316.738,19.59496,-1.00377,0.48001,0.92554
317.338,19.61307,-1.02267,0.47463,0.92515
317.938,19.63115,-1.03832,0.46829,0.92476
318.538,19.64926,-1.05768,0.45868,0.92437
319.138,19.6674,-1.07788,0.45464,0.92399
319.738,19.68551,-1.09425,0.44741,0.9236
320.338,19.70368,-1.1138,0.44305,0.92321
320.938,19.72178,-1.13245,0.43765,0.92282
321.538,19.73992,-1.14889,0.43263,0.92244
322.138,19.75805,-1.16868,0.42548,0.92205
322.738,19.77616,-1.18842,0.42175,0.92166
323.338,19.79424,-1.2069,0.41581,0.92127
323.938,19.81241,-1.22878,0.40868,0.92088
324.538,19.8305,-1.24659,0.40277,0.92049
325.138,19.84863,-1.26697,0.39774,0.9201
325.738,19.86683,-1.28932,0.39288,0.91971
326.338,19.88496,-1.3073,0.38522,0.91933
326.938,19.90309,-1.32826,0.37971,0.91894
327.538,19.9212,-1.35018,0.37434,0.91855
328.138,19.93935,-1.36761,0.36846,0.91816
328.738,19.95751,-1.39003,0.36118,0.91777
329.338,19.97574,-1.41085,0.35456,0.91738
329.938,19.99399,-1.42972,0.34921,0.91699
330.538,20.0122,-1.45319,0.3416,0.9166
331.138,20.0304,-1.47259,0.33503,0.9162
331.738,20.04857,-1.49308,0.32724,0.91581
332.338,20.06675,-1.51641,0.31981,0.91542
332.938,20.08492,-1.53527,0.30995,0.91503
333.538,20.1031,-1.55835,0.30452,0.91464
334.138,20.12133,-1.58086,0.29387,0.91425
334.738,20.13953,-1.59971,0.28482,0.91386
335.338,20.1577,-1.62305,0.2763,0.91347
335.938,20.17596,-1.64414,0.26694,0.91307
336.538,20.19419,-1.66387,0.25858,0.91268
337.138,20.21237,-1.68758,0.24703,0.91229
337.738,20.2306,-1.70676,0.23594,0.9119
338.338,20.24887,-1.7277,0.22611,0.9115
338.938,20.26711,-1.74985,0.2137,0.91111
339.538,20.28538,-1.76838,0.20265,0.91072
340.138,20.30359,-1.79033,0.19243,0.91033
340.738,20.3218,-1.81163,0.17762,0.90993
341.338,20.34006,-1.82986,0.166,0.90954
341.938,20.35829,-1.85238,0.15172,0.90915
342.538,20.3766,-1.87181,0.14042,0.90875
343.138,20.39487,-1.89005,0.12412,0.90836
343.738,20.41307,-1.91143,0.11021,0.90796
344.338,20.43131,-1.92912,0.09851312,0.90757
344.938,20.44959,-1.94882,0.08448735,0.90718
345.538,20.46785,-1.96983,0.06988576,0.90678
346.138,20.48626,-1.98702,0.05764279,0.90639
346.738,20.50461,-2.00742,0.04580504,0.90599
347.338,20.5229,-2.02485,0.03640286,0.9056
347.938,20.5411,-2.04071,0.0263638,0.9052
348.538,20.5594,-2.0593,0.02080719,0.90481
349.138,20.5777,-2.07435,0.01553346,0.90441
349.738,20.596,-2.09046,0.01131763,0.90402
350.338,20.61426,-2.10675,0.01137627,0.90362
350.938,20.63251,-2.11946,0.01291389,0.90322
351.538,20.65084,-2.1332,0.01712255,0.90283
352.138,20.66919,-2.14565,0.02408287,0.90243
352.738,20.68767,-2.15624,0.03181035,0.90204
353.338,20.7061,-2.16848,0.04070071,0.90164
353.938,20.7245,-2.17843,0.05201372,0.90124
354.538,20.74295,-2.18951,0.06752675,0.90085
355.138,20.76135,-2.20013,0.08118426,0.90045
355.738,20.77976,-2.20789,0.09745781,0.90005
356.338,20.7982,-2.2162,0.11526,0.89966
356.938,20.8166,-2.22307,0.12967,0.89926
357.538,20.835,-2.22983,0.1456,0.89886
358.138,20.8534,-2.23763,0.15999,0.89846
358.738,20.87177,-2.24326,0.1725,0.89807
359.338,20.8902,-2.24974,0.18735,0.89767
359.938,20.90861,-2.25624,0.19673,0.89727
360.538,20.92696,-2.2606,0.20614,0.89687
361.138,20.9454,-2.26586,0.21437,0.89647
361.738,20.9639,-2.27034,0.22309,0.89607
362.338,20.98238,-2.27543,0.23013,0.89568
362.938,21.00093,-2.2808,0.23687,0.89528
363.538,21.0194,-2.28464,0.24107,0.89488
364.138,21.03789,-2.28926,0.24663,0.89448
364.738,21.05634,-2.29299,0.24916,0.89408
365.338,21.0747,-2.29688,0.25283,0.89368
365.938,21.09316,-2.29977,0.2545,0.89328
366.538,21.11156,-2.30326,0.25599,0.89288
367.138,21.13,-2.3064,0.25494,0.89248
367.738,21.1486,-2.3099,0.25809,0.89208
368.338,21.1671,-2.31351,0.25582,0.89168
368.938,21.18561,-2.31717,0.25779,0.89128
369.538,21.20415,-2.32129,0.25885,0.89088
370.138,21.22265,-2.32441,0.25643,0.89048
370.738,21.24115,-2.32801,0.25929,0.89008
371.338,21.2595,-2.33023,0.25458,0.88968
371.938,21.27788,-2.33332,0.25408,0.88928
372.538,21.29641,-2.33601,0.25137,0.88888
373.138,21.31498,-2.33898,0.25161,0.88848
373.738,21.3336,-2.34197,0.25102,0.88807
374.338,21.3522,-2.34487,0.24834,0.88767
374.938,21.37067,-2.34742,0.24864,0.88727
375.538,21.38909,-2.34973,0.24641,0.88687
376.138,21.40759,-2.35219,0.24396,0.88647
376.738,21.42611,-2.35405,0.2443,0.88607
377.338,21.4446,-2.35639,0.23857,0.88566
377.938,21.46315,-2.35849,0.23758,0.88526
378.538,21.4817,-2.36152,0.23688,0.88486
379.138,21.5003,-2.36492,0.23526,0.88446
379.738,21.51886,-2.36794,0.23351,0.88405
380.338,21.53738,-2.36994,0.22909,0.88365
380.938,21.55593,-2.37176,0.22959,0.88325
381.538,21.57447,-2.37367,0.22633,0.88284
382.138,21.593,-2.37588,0.2252,0.88244
382.738,21.6115,-2.37815,0.22248,0.88204
383.338,21.63006,-2.38031,0.218,0.88163
383.938,21.64858,-2.38224,0.21594,0.88123
384.538,21.66715,-2.38418,0.21486,0.88083
385.138,21.68569,-2.38671,0.21292,0.88042
385.738,21.7042,-2.38886,0.21086,0.88002
386.338,21.72271,-2.39093,0.2107,0.87961
386.938,21.74127,-2.39309,0.2065,0.87921
387.538,21.75985,-2.39499,0.20444,0.8788
388.138,21.77845,-2.39769,0.20084,0.8784
388.738,21.79704,-2.39994,0.19884,0.87799
389.338,21.8156,-2.40163,0.19707,0.87759
389.938,21.83418,-2.40354,0.1939,0.87718
390.538,21.85272,-2.4054,0.19309,0.87678
391.138,21.8713,-2.40733,0.19097,0.87637
391.738,21.88982,-2.40933,0.18602,0.87597
392.338,21.9084,-2.41153,0.18588,0.87556
392.938,21.92696,-2.41344,0.18297,0.87516
393.538,21.94554,-2.41541,0.18002,0.87475
394.138,21.96415,-2.41728,0.17846,0.87435
394.738,21.9828,-2.41954,0.17568,0.87394
395.338,22.0014,-2.42151,0.17501,0.87353
395.938,22.01995,-2.4233,0.17344,0.87313
396.538,22.0385,-2.42511,0.17014,0.87272
397.138,22.05704,-2.42682,0.16864,0.87231
397.738,22.07565,-2.42851,0.1668,0.87191
398.338,22.0943,-2.43031,0.16359,0.8715
398.938,22.11289,-2.43138,0.16109,0.87109
399.538,22.13157,-2.43382,0.16176,0.87069
400.138,22.15019,-2.43543,0.15936,0.87028
400.738,22.1687,-2.43682,0.15937,0.86987
401.338,22.18737,-2.43836,0.15681,0.86946
401.938,22.20605,-2.44008,0.15432,0.86906
402.538,22.22474,-2.44053,0.15257,0.86865
403.138,22.24351,-2.44199,0.15227,0.86824
403.738,22.26216,-2.44367,0.15128,0.86783
404.338,22.28079,-2.44562,0.14781,0.86742
404.938,22.29944,-2.4486,0.14647,0.86701
405.538,22.3181,-2.45049,0.14714,0.86661
406.138,22.33676,-2.4523,0.14563,0.8662
406.738,22.35537,-2.45405,0.1457,0.86579
407.338,22.374,-2.45523,0.14609,0.86538
407.938,22.3927,-2.45646,0.1421,0.86497
408.538,22.41133,-2.45836,0.14189,0.86456
409.138,22.43005,-2.46027,0.1412,0.86415
409.738,22.44874,-2.46221,0.14224,0.86374
410.338,22.46746,-2.46402,0.1415,0.86333
410.938,22.48617,-2.46584,0.14156,0.86292
411.538,22.5049,-2.46766,0.14143,0.86251
412.138,22.5236,-2.46936,0.13977,0.8621
412.738,22.5424,-2.47093,0.13861,0.86169
413.338,22.56113,-2.47276,0.13768,0.86128
413.938,22.5797,-2.47397,0.13962,0.86087
414.538,22.5982,-2.47596,0.13979,0.86046
415.138,22.61684,-2.47837,0.14045,0.86005
415.738,22.63551,-2.48055,0.14266,0.85964
416.338,22.65439,-2.48302,0.13844,0.85923
416.938,22.67331,-2.48517,0.13989,0.85882
417.538,22.69213,-2.48621,0.13945,0.85841
418.138,22.7109,-2.48705,0.14126,0.858
418.738,22.72964,-2.48868,0.14225,0.85759
419.338,22.74843,-2.49027,0.14264,0.85718
419.938,22.76716,-2.4916,0.14408,0.85676
420.538,22.7859,-2.4927,0.1447,0.85635
421.138,22.80469,-2.49438,0.14611,0.85594
421.738,22.82339,-2.49594,0.14963,0.85553
422.338,22.84216,-2.49777,0.14782,0.85512
422.938,22.86083,-2.49935,0.15113,0.8547
423.538,22.87964,-2.50118,0.15216,0.85429
424.138,22.89845,-2.50429,0.15551,0.85388
424.738,22.91721,-2.5059,0.15458,0.85347
425.338,22.93604,-2.50663,0.15761,0.85305
425.938,22.95476,-2.50762,0.15667,0.85264
426.538,22.97352,-2.50929,0.16226,0.85223
427.138,22.99235,-2.51102,0.16113,0.85182
427.738,23.01119,-2.51245,0.16202,0.8514
428.338,23.02993,-2.51346,0.16498,0.85099
428.938,23.04869,-2.51428,0.16641,0.85058
429.538,23.0674,-2.5158,0.16769,0.85016
430.138,23.08622,-2.51774,0.16794,0.84975
430.738,23.10515,-2.51976,0.17109,0.84934
431.338,23.12405,-2.52127,0.17508,0.84892
431.938,23.1429,-2.52204,0.17834,0.84851
432.538,23.1617,-2.52317,0.17939,0.84809
433.138,23.18048,-2.52432,0.18124,0.84768
433.738,23.1993,-2.52606,0.17849,0.84727
434.338,23.21814,-2.52697,0.18118,0.84685
434.938,23.23698,-2.5277,0.18695,0.84644
435.538,23.25585,-2.52956,0.18948,0.84602
436.138,23.27463,-2.5315,0.19042,0.84561
436.738,23.29345,-2.53344,0.19289,0.84519
437.338,23.31235,-2.53494,0.19296,0.84478
437.938,23.3312,-2.5363,0.19558,0.84436
438.538,23.3502,-2.53722,0.19721,0.84395
439.138,23.36907,-2.53871,0.20272,0.84353
439.738,23.3879,-2.53986,0.20189,0.84312
440.338,23.4068,-2.54165,0.20261,0.8427
440.938,23.42566,-2.54339,0.20787,0.84228
441.538,23.44458,-2.54368,0.20839,0.84187
442.138,23.46346,-2.54456,0.20909,0.84145
442.738,23.48239,-2.5455,0.21182,0.84104
443.338,23.50125,-2.54811,0.21369,0.84062
443.938,23.52015,-2.54988,0.21681,0.8402
444.538,23.53906,-2.55049,0.2163,0.83979
445.138,23.55801,-2.55276,0.21695,0.83937
445.738,23.57696,-2.55424,0.22107,0.83895
446.338,23.59589,-2.55505,0.22424,0.83854
446.938,23.61478,-2.55632,0.22417,0.83812
447.538,23.63372,-2.55799,0.22888,0.8377
448.138,23.65266,-2.55952,0.23103,0.83729
448.738,23.67159,-2.56128,0.23193,0.83687
449.338,23.6906,-2.56282,0.23358,0.83645
449.938,23.7095,-2.56383,0.23366,0.83603
450.538,23.72853,-2.56493,0.23592,0.83562
451.138,23.7475,-2.56646,0.23712,0.8352
451.738,23.76644,-2.56716,0.24194,0.83478
452.338,23.7853,-2.56803,0.24198,0.83436
452.938,23.80407,-2.56989,0.24509,0.83395
453.538,23.82281,-2.57136,0.24333,0.83353
454.138,23.84161,-2.57264,0.24628,0.83311
454.738,23.8605,-2.57373,0.24766,0.83269
455.338,23.87963,-2.5751,0.2484,0.83227
455.938,23.8988,-2.57649,0.24994,0.83185
456.538,23.9179,-2.57582,0.25232,0.83143
457.138,23.93694,-2.57679,0.25381,0.83102
457.738,23.9559,-2.5787,0.25477,0.8306
458.338,23.97494,-2.58062,0.25671,0.83018
458.938,23.99399,-2.58266,0.25909,0.82976
459.538,24.01306,-2.58344,0.25742,0.82934
460.138,24.03197,-2.58344,0.26155,0.82892
460.738,24.0509,-2.58344,0.26117,0.8285
461.338,24.06994,-2.58344,0.26107,0.82808
461.938,24.08894,-2.58348,0.26442,0.82766
462.538,24.10809,-2.58547,0.26253,0.82724
463.138,24.1271,-2.58819,0.26163,0.82682
463.738,24.14612,-2.59014,0.26493,0.8264
464.338,24.16518,-2.59141,0.26406,0.82598
464.938,24.18422,-2.59183,0.26796,0.82556
465.538,24.2031,-2.59351,0.26726,0.82514
466.138,24.22198,-2.59552,0.26905,0.82472
466.738,24.2409,-2.59748,0.2699,0.8243
467.338,24.25981,-2.59922,0.26789,0.82388
467.938,24.27901,-2.60032,0.26833,0.82346
468.538,24.29826,-2.60105,0.26998,0.82304
469.138,24.31749,-2.60271,0.2681,0.82262
469.738,24.33672,-2.60456,0.27388,0.8222
470.338,24.3558,-2.60626,0.27258,0.82177
470.938,24.3749,-2.60734,0.27319,0.82135
471.538,24.39391,-2.60856,0.27363,0.82093
472.138,24.41297,-2.60917,0.26999,0.82051
472.738,24.43199,-2.61005,0.27367,0.82009
473.338,24.45102,-2.61189,0.27524,0.81967
473.938,24.47016,-2.61324,0.27413,0.81924
474.538,24.48912,-2.61355,0.27351,0.81882
475.138,24.5081,-2.61491,0.27504,0.8184
475.738,24.52725,-2.61567,0.27643,0.81798
476.338,24.54629,-2.61645,0.27621,0.81756
476.938,24.56557,-2.61665,0.27493,0.81713
477.538,24.58471,-2.61722,0.27428,0.81671
478.138,24.6038,-2.61799,0.27624,0.81629
478.738,24.6229,-2.6187,0.27545,0.81587
479.338,24.64195,-2.62048,0.27843,0.81544
479.938,24.66104,-2.62122,0.27905,0.81502
480.538,24.68016,-2.62195,0.27722,0.8146
481.138,24.6994,-2.62338,0.27697,0.81417
481.738,24.71859,-2.62359,0.27932,0.81375
482.338,24.73776,-2.62408,0.2771,0.81333
482.938,24.75685,-2.62574,0.27936,0.8129
483.538,24.77597,-2.62628,0.2791,0.81248
484.138,24.79509,-2.62717,0.2789,0.81206
484.738,24.8142,-2.62879,0.28028,0.81163
485.338,24.83336,-2.6294,0.27929,0.81121
485.938,24.8525,-2.62894,0.27925,0.81078
486.538,24.87162,-2.63077,0.27993,0.81036
487.138,24.89077,-2.63145,0.27949,0.80994
487.738,24.90992,-2.63215,0.27789,0.80951
488.338,24.92905,-2.6327,0.28044,0.80909
488.938,24.9482,-2.63355,0.28035,0.80866
489.538,24.9674,-2.63594,0.28077,0.80824
490.138,24.98656,-2.63663,0.27881,0.80781
490.738,25.00571,-2.63786,0.28189,0.80739
491.338,25.02489,-2.63913,0.28059,0.80696
491.938,25.04405,-2.63955,0.28044,0.80654
492.538,25.06329,-2.6424,0.27864,0.80611
493.138,25.08251,-2.64334,0.28074,0.80569
493.738,25.1017,-2.64376,0.27851,0.80526
494.338,25.12087,-2.64455,0.28065,0.80484
494.938,25.14004,-2.64431,0.27972,0.80441
495.538,25.15925,-2.64552,0.28156,0.80399
496.138,25.17846,-2.647,0.28,0.80356
496.738,25.19765,-2.64741,0.28261,0.80314
497.338,25.21686,-2.64853,0.28026,0.80271
497.938,25.23612,-2.6502,0.28102,0.80228
498.538,25.25531,-2.65025,0.28142,0.80186
499.138,25.27457,-2.65164,0.28025,0.80143
499.738,25.2938,-2.65168,0.27934,0.80101
500.338,25.313,-2.6531,0.2811,0.80058
500.938,25.33227,-2.65465,0.28201,0.80015
501.538,25.35146,-2.65546,0.28092,0.79973
502.138,25.3707,-2.65684,0.28238,0.7993
502.738,25.38993,-2.65706,0.28006,0.79887
503.338,25.40912,-2.65823,0.27947,0.79845
503.938,25.42834,-2.65825,0.27929,0.79802
504.538,25.44751,-2.65827,0.2816,0.79759
505.138,25.46671,-2.65956,0.28082,0.79716
505.738,25.486,-2.65956,0.2804,0.79674
506.338,25.50517,-2.66003,0.27959,0.79631
506.938,25.5244,-2.66085,0.28191,0.79588
507.538,25.54364,-2.66229,0.28154,0.79545
508.138,25.56288,-2.66301,0.28308,0.79503
508.738,25.5822,-2.66382,0.28437,0.7946
509.338,25.60142,-2.66494,0.28312,0.79417
509.938,25.62071,-2.66518,0.28242,0.79374
510.538,25.63994,-2.66658,0.28218,0.79331
511.138,25.65918,-2.66684,0.28184,0.79289
511.738,25.67841,-2.66814,0.28531,0.79246
512.338,25.6977,-2.66942,0.28465,0.79203
512.938,25.71696,-2.66977,0.28258,0.7916
513.538,25.73622,-2.67122,0.28558,0.79117
514.138,25.7555,-2.67175,0.28528,0.79074
514.738,25.7746,-2.67272,0.28422,0.79032
515.338,25.79385,-2.67275,0.28484,0.78989
515.938,25.81302,-2.6747,0.28483,0.78946
516.538,25.83227,-2.6747,0.2847,0.78903
517.138,25.85152,-2.67465,0.28848,0.7886
517.738,25.87076,-2.67606,0.28457,0.78817
518.338,25.89002,-2.67601,0.28533,0.78774
518.938,25.9093,-2.67768,0.28697,0.78731
519.538,25.92855,-2.678,0.2872,0.78688
520.138,25.9479,-2.67882,0.28757,0.78645
520.738,25.96719,-2.67942,0.28783,0.78602
521.338,25.9865,-2.68095,0.29118,0.78559
521.938,26.00581,-2.68093,0.28859,0.78516
522.538,26.02506,-2.68252,0.2894,0.78473
523.138,26.04436,-2.68287,0.29117,0.7843
523.738,26.0637,-2.6838,0.29179,0.78387
524.338,26.083,-2.6839,0.29071,0.78344
524.938,26.1023,-2.68538,0.29127,0.78301
525.538,26.12164,-2.68625,0.29161,0.78258
526.138,26.1409,-2.68687,0.29261,0.78215
526.738,26.16027,-2.6882,0.28956,0.78172
527.338,26.17961,-2.68819,0.28959,0.78129
527.938,26.1989,-2.68815,0.29122,0.78086
528.538,26.2182,-2.68954,0.29246,0.78043
529.138,26.23739,-2.68952,0.29242,0.78
529.738,26.2566,-2.69056,0.29127,0.77957
530.338,26.2758,-2.6908,0.29524,0.77913
530.938,26.29516,-2.69243,0.29871,0.7787
531.538,26.31458,-2.69235,0.29845,0.77827
532.138,26.33398,-2.6934,0.29873,0.77784
532.738,26.3534,-2.69368,0.30289,0.77741
533.338,26.3728,-2.69462,0.30318,0.77698
533.938,26.3921,-2.695,0.30521,0.77655
534.538,26.4114,-2.695,0.30678,0.77611
535.138,26.4307,-2.6954,0.31022,0.77568
535.738,26.44995,-2.69565,0.31042,0.77525
536.338,26.46929,-2.6959,0.31508,0.77482
536.938,26.48862,-2.69631,0.31485,0.77439
537.538,26.50801,-2.69631,0.31524,0.77395
538.138,26.5273,-2.69631,0.32011,0.77352
538.738,26.54662,-2.69708,0.32029,0.77309
539.338,26.5659,-2.69877,0.3229,0.77266
539.938,26.58506,-2.69988,0.32353,0.77222
540.538,26.6043,-2.69952,0.32764,0.77179
541.138,26.6237,-2.70131,0.32885,0.77136
541.738,26.64319,-2.70147,0.32817,0.77092
542.338,26.66283,-2.70276,0.33107,0.77049
542.938,26.68238,-2.70295,0.33355,0.77006
543.538,26.70178,-2.70409,0.33337,0.76963
544.138,26.72115,-2.7041,0.33674,0.76919
544.738,26.74052,-2.7041,0.33811,0.76876
545.338,26.75988,-2.7041,0.34263,0.76833
545.938,26.77924,-2.70377,0.3447,0.76789
546.538,26.79865,-2.70464,0.34336,0.76746
547.138,26.81802,-2.70508,0.34576,0.76702
547.738,26.8374,-2.70506,0.34583,0.76659
548.338,26.85678,-2.7063,0.35049,0.76616
548.938,26.87615,-2.7064,0.34778,0.76572
549.538,26.89558,-2.7064,0.35207,0.76529
550.138,26.915,-2.70651,0.35479,0.76485
550.738,26.9344,-2.70771,0.35538,0.76442
551.338,26.95385,-2.70771,0.35608,0.76399
551.938,26.97327,-2.70903,0.35668,0.76355
552.538,26.9927,-2.70903,0.36054,0.76312
553.138,27.01217,-2.70954,0.36066,0.76268
553.738,27.03156,-2.71034,0.35887,0.76225
554.338,27.05097,-2.7103,0.36146,0.76181
554.938,27.07037,-2.71195,0.36322,0.76138
555.538,27.0898,-2.71211,0.36411,0.76094
556.138,27.10929,-2.7134,0.36637,0.76051
556.738,27.1287,-2.71341,0.36759,0.76007
557.338,27.14815,-2.71452,0.36676,0.75964
557.938,27.16757,-2.71474,0.36728,0.7592
558.538,27.18705,-2.71474,0.36959,0.75877
559.138,27.2066,-2.71571,0.36806,0.75833
559.738,27.2261,-2.71605,0.36893,0.7579
560.338,27.24558,-2.71604,0.36996,0.75746
560.938,27.265,-2.71567,0.37098,0.75703
561.538,27.28449,-2.71604,0.36955,0.75659
562.138,27.3039,-2.71605,0.37123,0.75615
562.738,27.32334,-2.71605,0.36786,0.75572
563.338,27.3428,-2.71614,0.36933,0.75528
563.938,27.3623,-2.71751,0.36675,0.75485
564.538,27.38178,-2.71797,0.36782,0.75441
565.138,27.40125,-2.71879,0.36694,0.75397
565.738,27.4207,-2.71878,0.36161,0.75354
566.338,27.44025,-2.72012,0.36201,0.7531
566.938,27.45978,-2.72011,0.36005,0.75266
567.538,27.4793,-2.72012,0.35652,0.75223
568.138,27.49881,-2.72135,0.35731,0.75179
568.738,27.5182,-2.72142,0.35486,0.75135
569.338,27.53765,-2.72143,0.35026,0.75092
569.938,27.5571,-2.72252,0.34962,0.75048
570.538,27.5767,-2.72274,0.34618,0.75004
571.138,27.5964,-2.72274,0.3469,0.74961
571.738,27.6159,-2.7227,0.34575,0.74917
572.338,27.6355,-2.72411,0.34148,0.74873
572.938,27.655,-2.72407,0.33974,0.74829
573.538,27.67452,-2.72486,0.33851,0.74786
574.138,27.6941,-2.72537,0.33886,0.74742
574.738,27.7137,-2.72537,0.33637,0.74698
575.338,27.7332,-2.72537,0.33665,0.74654
575.938,27.7527,-2.72538,0.33594,0.74611
576.538,27.7723,-2.72687,0.33475,0.74567
577.138,27.7918,-2.72802,0.33063,0.74523
577.738,27.8113,-2.72819,0.33444,0.74479
578.338,27.83091,-2.72934,0.33573,0.74435
578.938,27.85047,-2.72933,0.33422,0.74392
579.538,27.87,-2.72934,0.33276,0.74348
580.138,27.8896,-2.73033,0.33263,0.74304
580.738,27.9092,-2.73064,0.33181,0.7426
581.338,27.9288,-2.73063,0.33263,0.74216
581.938,27.94837,-2.73176,0.32974,0.74172
582.538,27.9679,-2.73196,0.32923,0.74129
583.138,27.9874,-2.73196,0.32999,0.74085
583.738,28.007,-2.73196,0.33121,0.74041
584.338,28.0266,-2.73196,0.32995,0.73997
584.938,28.04624,-2.73257,0.32802,0.73953
585.538,28.06584,-2.73327,0.3275,0.73909
586.138,28.0855,-2.73327,0.32991,0.73865
586.738,28.10502,-2.73322,0.32866,0.73821
587.338,28.1246,-2.73462,0.3273,0.73777
587.938,28.1442,-2.73457,0.32465,0.73734
588.538,28.16385,-2.73583,0.32688,0.7369
589.138,28.18355,-2.73591,0.32878,0.73646
589.738,28.2032,-2.73591,0.32777,0.73602
590.338,28.2229,-2.73591,0.32835,0.73558
590.938,28.2425,-2.73592,0.32842,0.73514
591.538,28.26209,-2.73637,0.32616,0.7347
592.138,28.28169,-2.73668,0.32718,0.73426
592.738,28.3013,-2.73787,0.32465,0.73382
593.338,28.3209,-2.73788,0.32536,0.73338
593.938,28.3404,-2.73789,0.32657,0.73294
594.538,28.36007,-2.7392,0.3254,0.7325
595.138,28.37974,-2.7392,0.32435,0.73206
595.738,28.3994,-2.7392,0.32474,0.73162
596.338,28.41913,-2.73975,0.3243,0.73118
596.938,28.4388,-2.74052,0.32302,0.73074
597.538,28.45843,-2.74052,0.32116,0.7303
598.138,28.4781,-2.7407,0.32262,0.72986
598.738,28.4977,-2.74147,0.32387,0.72941
599.338,28.5174,-2.74052,0.32194,0.72897
599.938,28.53707,-2.74051,0.3193,0.72853
600.538,28.5567,-2.74051,0.32128,0.72809
601.138,28.57643,-2.74049,0.32127,0.72765
601.738,28.5961,-2.74169,0.32127,0.72721
602.338,28.61575,-2.74183,0.32021,0.72677
602.938,28.63543,-2.74181,0.32073,0.72633
603.538,28.6551,-2.74407,0.32202,0.72589
604.138,28.67485,-2.74446,0.32341,0.72545
604.738,28.6945,-2.74446,0.32059,0.725
605.338,28.7142,-2.74446,0.32065,0.72456
605.938,28.7339,-2.74446,0.31992,0.72412
606.538,28.7536,-2.74446,0.31958,0.72368
607.138,28.7733,-2.74446,0.31806,0.72324
607.738,28.793,-2.74446,0.3162,0.7228
608.338,28.8126,-2.74447,0.31576,0.72235
608.938,28.83219,-2.74571,0.31691,0.72191
609.538,28.85193,-2.74578,0.31504,0.72147
610.138,28.8716,-2.74578,0.31605,0.72103
610.738,28.89135,-2.74573,0.31525,0.72059
611.338,28.9111,-2.74713,0.32121,0.72014
611.938,28.9308,-2.74709,0.32025,0.7197
612.538,28.95058,-2.74709,0.3202,0.71926
613.138,28.9703,-2.74707,0.32119,0.71882
613.738,28.99,-2.74835,0.3193,0.71837
614.338,29.00961,-2.74705,0.31768,0.71793
614.938,29.02928,-2.7471,0.31853,0.71749
615.538,29.04897,-2.7471,0.31649,0.71705
616.138,29.06871,-2.7471,0.31683,0.7166
616.738,29.0885,-2.74712,0.31578,0.71616
617.338,29.1082,-2.7488,0.31726,0.71572
617.938,29.128,-2.74973,0.31412,0.71527
618.538,29.1478,-2.74972,0.31366,0.71483
619.138,29.1674,-2.74972,0.31448,0.71439
619.738,29.1869,-2.75041,0.31051,0.71395
620.338,29.2066,-2.75104,0.31267,0.7135
620.938,29.2264,-2.75104,0.30799,0.71306
621.538,29.2463,-2.75103,0.31154,0.71262
622.138,29.26625,-2.75141,0.30838,0.71217
622.738,29.28595,-2.75105,0.30814,0.71173
623.338,29.3057,-2.75105,0.30443,0.71128
623.938,29.3254,-2.75105,0.30611,0.71084
624.538,29.34497,-2.75105,0.30522,0.7104
625.138,29.3647,-2.75106,0.30469,0.70995
625.738,29.3845,-2.75222,0.29954,0.70951
626.338,29.4044,-2.75236,0.29928,0.70907
626.938,29.4243,-2.75274,0.29971,0.70862
627.538,29.44408,-2.75479,0.30008,0.70818
628.138,29.4638,-2.75499,0.29535,0.70773
628.738,29.4835,-2.75499,0.29401,0.70729
629.338,29.5032,-2.75499,0.29467,0.70685
629.938,29.52293,-2.75493,0.29411,0.7064
630.538,29.5426,-2.75539,0.29362,0.70596
631.138,29.56237,-2.755,0.29418,0.70551
631.738,29.5821,-2.755,0.29231,0.70507
632.338,29.60192,-2.755,0.29071,0.70462
632.938,29.6217,-2.755,0.28954,0.70418
633.538,29.6415,-2.755,0.28991,0.70373
634.138,29.6612,-2.75507,0.28907,0.70329
634.738,29.681,-2.7563,0.2849,0.70284
635.338,29.7007,-2.75631,0.28532,0.7024
635.938,29.7204,-2.75631,0.28178,0.70195
636.538,29.7402,-2.75666,0.2844,0.70151
637.138,29.75998,-2.75828,0.28074,0.70106
637.738,29.7798,-2.75828,0.28208,0.70062
638.338,29.79963,-2.75827,0.27976,0.70017
638.938,29.8194,-2.75958,0.27672,0.69973
639.538,29.83918,-2.75959,0.2797,0.69928
640.138,29.85892,-2.75959,0.27593,0.69884
640.738,29.87872,-2.75959,0.2719,0.69839
641.338,29.8985,-2.75959,0.27312,0.69795
641.938,29.91822,-2.75959,0.27059,0.6975
642.538,29.93787,-2.75959,0.27063,0.69706
643.138,29.9574,-2.75945,0.27063,0.69661
643.738,29.9772,-2.75827,0.26993,0.69616
644.338,29.99707,-2.75823,0.26768,0.69572
644.938,30.017,-2.75965,0.26531,0.69527
645.538,30.0369,-2.7596,0.2657,0.69483
646.138,30.0567,-2.7596,0.26791,0.69438
646.738,30.07643,-2.7596,0.26355,0.69393
647.338,30.09624,-2.7596,0.26496,0.69349
647.938,30.116,-2.7596,0.26405,0.69304
648.538,30.13577,-2.75977,0.26602,0.6926
649.138,30.1556,-2.76091,0.26225,0.69215
649.738,30.1753,-2.76092,0.2593,0.6917
650.338,30.19496,-2.76092,0.26052,0.69126
650.938,30.21473,-2.76101,0.25849,0.69081
651.538,30.23439,-2.76222,0.25903,0.69036
652.138,30.2543,-2.76223,0.25364,0.68992
652.738,30.27427,-2.76223,0.25325,0.68947
653.338,30.2941,-2.76223,0.254,0.68902
653.938,30.3139,-2.76223,0.25594,0.68858
654.538,30.33366,-2.76223,0.25084,0.68813
655.138,30.35342,-2.76355,0.2491,0.68768
655.738,30.3732,-2.76355,0.24818,0.68724
656.338,30.39307,-2.76355,0.2455,0.68679
656.938,30.41286,-2.76355,0.24585,0.68634
657.538,30.4327,-2.76355,0.24577,0.68589
658.138,30.45243,-2.76355,0.24249,0.68545
658.738,30.47223,-2.76351,0.24294,0.685
659.338,30.49203,-2.76489,0.24211,0.68455
659.938,30.51179,-2.76487,0.23939,0.68411
660.538,30.5316,-2.76487,0.23896,0.68366
661.138,30.5514,-2.76485,0.23725,0.68321
661.738,30.57123,-2.76612,0.23428,0.68276
662.338,30.59106,-2.76618,0.23609,0.68232
662.938,30.6109,-2.76618,0.23126,0.68187
663.538,30.6307,-2.76652,0.23125,0.68142
664.138,30.6505,-2.76748,0.2293,0.68097
664.738,30.67029,-2.76696,0.22986,0.68052
665.338,30.6901,-2.76684,0.22951,0.68008
665.938,30.70983,-2.76684,0.23013,0.67963
666.538,30.72962,-2.76684,0.22566,0.67918
667.138,30.7495,-2.76705,0.22526,0.67873
667.738,30.76935,-2.76814,0.22673,0.67828
668.338,30.7891,-2.76815,0.22381,0.67784
668.938,30.8088,-2.76814,0.22229,0.67739
669.538,30.8284,-2.76927,0.22396,0.67694
670.138,30.848,-2.76947,0.22232,0.67649
670.738,30.86784,-2.76947,0.21954,0.67604
671.338,30.8878,-2.76947,0.21574,0.67559
671.938,30.9078,-2.76947,0.21719,0.67515
672.538,30.92782,-2.76947,0.21552,0.6747
673.138,30.94765,-2.76947,0.21334,0.67425
673.738,30.9674,-2.76947,0.21606,0.6738
674.338,30.9872,-2.76947,0.21287,0.67335
674.938,31.0071,-2.76947,0.21095,0.6729
675.538,31.027,-2.76947,0.21391,0.67245
676.138,31.0469,-2.76947,0.20964,0.67201
676.738,31.06669,-2.77079,0.20822,0.67156
677.338,31.0865,-2.77079,0.20637,0.67111
677.938,31.10632,-2.77079,0.2054,0.67066
678.538,31.12609,-2.77207,0.20576,0.67021
679.138,31.14593,-2.7721,0.20127,0.66976
679.738,31.1658,-2.7721,0.20178,0.66931
680.338,31.18563,-2.7721,0.20181,0.66886
680.938,31.2055,-2.7721,0.19615,0.66841
681.538,31.22537,-2.7721,0.19761,0.66796
682.138,31.24523,-2.77261,0.19526,0.66751
682.738,31.26507,-2.77309,0.19704,0.66707
683.338,31.28493,-2.77309,0.19495,0.66662
683.938,31.30482,-2.7731,0.1933,0.66617
684.538,31.3248,-2.77256,0.19204,0.66572
685.138,31.34468,-2.77275,0.19583,0.66527
685.738,31.3646,-2.77277,0.19066,0.66482
686.338,31.3845,-2.77354,0.18756,0.66437
686.938,31.40438,-2.77408,0.1919,0.66392
687.538,31.4243,-2.77408,0.19157,0.66347
688.138,31.4442,-2.77408,0.18661,0.66302
688.738,31.46401,-2.77408,0.18787,0.66257
689.338,31.48388,-2.7744,0.18523,0.66212
689.938,31.50368,-2.77539,0.18559,0.66167
690.538,31.5234,-2.7754,0.17903,0.66122
691.138,31.543,-2.77541,0.18235,0.66077
691.738,31.5629,-2.7764,0.18106,0.66032
692.338,31.5829,-2.77671,0.18134,0.65987
692.938,31.603,-2.77671,0.17792,0.65942
693.538,31.62306,-2.77671,0.17952,0.65897
694.138,31.64286,-2.77669,0.17586,0.65852
694.738,31.66272,-2.77789,0.17329,0.65807
695.338,31.6826,-2.7781,0.17287,0.65762
695.938,31.70249,-2.77937,0.1739,0.65717
696.538,31.72225,-2.77816,0.16946,0.65672
697.138,31.7421,-2.77791,0.17344,0.65627
697.738,31.762,-2.77701,0.17436,0.65582
698.338,31.78179,-2.7766,0.16862,0.65536
698.938,31.80175,-2.7766,0.1669,0.65491
699.538,31.8217,-2.7766,0.16791,0.65446
700.138,31.8417,-2.77709,0.16237,0.65401
700.738,31.86184,-2.77791,0.16572,0.65356
701.338,31.88174,-2.77791,0.16181,0.65311
701.938,31.9016,-2.77791,0.16106,0.65266
702.538,31.9215,-2.77792,0.16056,0.65221
703.138,31.9414,-2.77874,0.16151,0.65176
703.738,31.9614,-2.77923,0.16227,0.65131
704.338,31.98139,-2.77914,0.16187,0.65086
704.938,32.0013,-2.77793,0.1602,0.65041
705.538,32.0212,-2.77792,0.15976,0.64995
706.138,32.0411,-2.77792,0.15907,0.6495
706.738,32.06108,-2.77792,0.15892,0.64905
707.338,32.08106,-2.77871,0.1589,0.6486
707.938,32.10107,-2.77924,0.15691,0.64815
708.538,32.12103,-2.77924,0.15243,0.6477
709.138,32.14092,-2.77924,0.15661,0.64725
709.738,32.1608,-2.77928,0.15119,0.6468
710.338,32.1807,-2.78054,0.1533,0.64634
710.938,32.20065,-2.78055,0.14746,0.64589
711.538,32.2206,-2.78055,0.15045,0.64544
712.138,32.24062,-2.78055,0.14793,0.64499
712.738,32.26056,-2.78055,0.14778,0.64454
713.338,32.28055,-2.78055,0.14603,0.64409
713.938,32.30049,-2.78055,0.14615,0.64363
714.538,32.32047,-2.78056,0.14438,0.64318
715.138,32.3405,-2.78188,0.1425,0.64273
715.738,32.36056,-2.78187,0.14508,0.64228
716.338,32.38051,-2.78187,0.13795,0.64183
716.938,32.40052,-2.78187,0.14112,0.64138
717.538,32.42044,-2.78186,0.13812,0.64092
718.138,32.44041,-2.78321,0.13436,0.64047
718.738,32.46022,-2.78319,0.13489,0.64002
719.338,32.48018,-2.78319,0.13767,0.63957
719.938,32.50018,-2.78319,0.13783,0.63912
720.538,32.5201,-2.78219,0.13762,0.63866
721.138,32.54023,-2.78187,0.13464,0.63821
721.738,32.56022,-2.78187,0.13456,0.63776
722.338,32.58019,-2.78187,0.13369,0.63731
722.938,32.6002,-2.78187,0.13658,0.63686
723.538,32.6203,-2.78055,0.13667,0.6364
724.138,32.6403,-2.78055,0.13536,0.63595
724.738,32.66029,-2.78055,0.1341,0.6355
725.338,32.68023,-2.78055,0.13533,0.63505
725.938,32.70019,-2.78055,0.12877,0.63459
726.538,32.7202,-2.78055,0.12617,0.63414
727.138,32.74021,-2.78055,0.12647,0.63369
727.738,32.76017,-2.77957,0.13023,0.63324
728.338,32.78015,-2.78055,0.13279,0.63278
728.938,32.8002,-2.78055,0.12988,0.63233
729.538,32.8202,-2.78055,0.13079,0.63188
730.138,32.84028,-2.78055,0.1312,0.63143
730.738,32.86033,-2.78187,0.12974,0.63097
731.338,32.8803,-2.78256,0.12701,0.63052
731.938,32.9003,-2.78318,0.12306,0.63007
732.538,32.9203,-2.78354,0.12513,0.62962
733.138,32.9403,-2.78449,0.12683,0.62916
733.738,32.96025,-2.78449,0.12569,0.62871
734.338,32.98025,-2.7855,0.12387,0.62826
734.938,33.0002,-2.78581,0.12,0.62781
735.538,33.02026,-2.78581,0.1195,0.62735
736.138,33.04034,-2.78581,0.12126,0.6269
736.738,33.0604,-2.78581,0.11988,0.62645
737.338,33.08034,-2.78651,0.1175,0.62599
737.938,33.1004,-2.78713,0.12235,0.62554
738.538,33.1205,-2.78713,0.1187,0.62509
739.138,33.14056,-2.78712,0.11794,0.62463
739.738,33.16066,-2.78848,0.11505,0.62418
740.338,33.1806,-2.78844,0.1154,0.62373
740.938,33.2006,-2.78979,0.11754,0.62328
741.538,33.22059,-2.78977,0.11178,0.62282
742.138,33.24051,-2.78976,0.11365,0.62237
742.738,33.26059,-2.78844,0.11171,0.62192
743.338,33.2806,-2.78844,0.11248,0.62146
743.938,33.3007,-2.78979,0.11071,0.62101
744.538,33.3207,-2.78871,0.10748,0.62056
744.838,33.3309,-2.78842,0.1071,0.62033