File: 01_Data/Straw/STA/N2/30K_min/Straw_STA_N2_30KData_22054_R3.csv
##Temp./Â°C,Time/min,Mass loss(subtr.2)/mg,DSC(subtr.2)/(mW/mg),Sensit./(uV/mW)
48.735,10.00667,0.00527,0.009813816,1.07495
49.335,10.53553,0.00259644,0.04710864,1.07469
49.935,10.65433,0.00367698,0.08055321,1.07442
50.535,10.7383,0.004335183,0.10944,1.07416
51.135,10.807,0.004686438,0.13665,1.07389
51.735,10.86627,0.003125633,0.16091,1.07363
52.335,10.91867,0.003720222,0.18479,1.07336
52.935,10.96673,0.003187355,0.20647,1.0731
53.535,11.01095,0.003916223,0.22726,1.07283
54.135,11.05301,0.003102842,0.24835,1.07256
54.735,11.09225,0.001392141,0.26591,1.07229
55.335,11.1296,0.002071325,0.28303,1.07202
55.935,11.16505,0.002247797,0.29905,1.07176
56.535,11.19928,0.00248684,0.31759,1.07149
57.135,11.23278,0.002830674,0.33245,1.07122
57.735,11.26551,0.003571119,0.34804,1.07095
58.335,11.29675,0.00447936,0.36228,1.07068
58.935,11.3272,0.003467562,0.37784,1.07041
59.535,11.35698,0.002920255,0.39148,1.07014
60.135,11.38591,0.002807455,0.40479,1.06986
60.735,11.41427,0.003417209,0.41847,1.06959
61.335,11.4423,0.00366094,0.43223,1.06932
61.935,11.46965,0.00365766,0.44531,1.06905
62.535,11.49669,0.003086725,0.45624,1.06877
63.135,11.52323,0.004052803,0.46964,1.0685
63.735,11.5494,0.005173232,0.48018,1.06823
64.335,11.57513,0.00443357,0.49315,1.06795
64.935,11.6005,0.004155627,0.50466,1.06768
65.535,11.62565,0.003634011,0.51482,1.0674
66.135,11.65058,0.002284211,0.52348,1.06713
66.735,11.6752,0.002193511,0.53491,1.06685
67.335,11.6995,0.00181258,0.54672,1.06657
67.935,11.72375,0.001505778,0.55595,1.0663
68.535,11.74785,0.00176899,0.56618,1.06602
69.135,11.7718,0.001832954,0.57636,1.06574
69.735,11.79525,0.00165165,0.585,1.06547
70.335,11.81862,0.002507793,0.59364,1.06519
70.935,11.84188,0.002605989,0.60242,1.06491
71.535,11.86519,0.002506022,0.61201,1.06463
72.135,11.8883,0.002396926,0.6215,1.06435
72.735,11.91122,0.002569943,0.63138,1.06407
73.335,11.93392,0.00258681,0.64049,1.06379
73.935,11.9564,0.002280861,0.64945,1.06351
74.535,11.97896,0.00296352,0.65911,1.06323
75.135,12.00146,0.002132079,0.66622,1.06295
75.735,12.02379,0.0012454,0.67487,1.06267
76.335,12.04599,0.001251235,0.68169,1.06238
76.935,12.06813,0.00208401,0.68996,1.0621
77.535,12.0902,0.001404347,0.69795,1.06182
78.135,12.11209,0.0009132334,0.70671,1.06154
78.735,12.13393,0.0008661161,0.71618,1.06125
79.335,12.15575,0.0005965925,0.72354,1.06097
79.935,12.17762,-0.000916536,0.73092,1.06068
80.535,12.1994,-4.40408e-05,0.73936,1.0604
81.135,12.2211,-0.0006944549,0.74901,1.06011
81.735,12.24258,-0.0007965356,0.75488,1.05983
82.335,12.2639,-0.001308066,0.76294,1.05954
82.935,12.28513,-0.002189155,0.77366,1.05926
83.535,12.30635,-0.001392067,0.77975,1.05897
84.135,12.32755,-0.002402455,0.7884,1.05868
84.735,12.34877,-0.00163925,0.79456,1.0584
85.335,12.37003,-0.002403407,0.8037,1.05811
85.935,12.39113,-0.002421295,0.80793,1.05782
86.535,12.41213,-0.002410153,0.8175,1.05753
87.135,12.43314,-0.002409399,0.82487,1.05724
87.735,12.45406,-0.003160715,0.83338,1.05696
88.335,12.47495,-0.003735602,0.83992,1.05667
88.935,12.49586,-0.004315378,0.84729,1.05638
89.535,12.5167,-0.003825867,0.8543,1.05609
90.135,12.53753,-0.00453019,0.86053,1.0558
90.735,12.55834,-0.005260779,0.86868,1.0555
91.335,12.57907,-0.006167924,0.87315,1.05521
91.935,12.59967,-0.005960169,0.87919,1.05492
92.535,12.6203,-0.005268964,0.88723,1.05463
93.135,12.64085,-0.005269172,0.89355,1.05434
93.735,12.66138,-0.005352759,0.90016,1.05404
94.335,12.68192,-0.00656635,0.90563,1.05375
94.935,12.70244,-0.00657759,0.91178,1.05346
95.535,12.72294,-0.0068022,0.91714,1.05316
96.135,12.74341,-0.007886783,0.9219,1.05287
96.735,12.7639,-0.007913839,0.92662,1.05257
97.335,12.7842,-0.00903379,0.93198,1.05228
97.935,12.80447,-0.009212424,0.9383,1.05198
98.535,12.8248,-0.00920998,0.94084,1.05169
99.135,12.84505,-0.009208817,0.94516,1.05139
99.735,12.8652,-0.009426588,0.94865,1.0511
100.335,12.8855,-0.01052223,0.95318,1.0508
100.935,12.90572,-0.00985088,0.95598,1.0505
101.535,12.92603,-0.009870397,0.96126,1.05021
102.135,12.9465,-0.009867941,0.96098,1.04991
102.735,12.96673,-0.01119112,0.96468,1.04961
103.335,12.98701,-0.01118991,0.96612,1.04931
103.935,13.00729,-0.01118937,0.9701,1.04901
104.535,13.02742,-0.01123094,0.97248,1.04871
105.135,13.04758,-0.0125103,0.97332,1.04841
105.735,13.0678,-0.01382322,0.9736,1.04811
106.335,13.08797,-0.01380986,0.9787,1.04781
106.935,13.10813,-0.01380179,0.97951,1.04751
107.535,13.12834,-0.01492692,0.97925,1.04721
108.135,13.1484,-0.01513844,0.97956,1.04691
108.735,13.1686,-0.01602811,0.98096,1.04661
109.335,13.1886,-0.01645282,0.97965,1.04631
109.935,13.2086,-0.01650027,0.97812,1.04601
110.535,13.2287,-0.01778839,0.97843,1.0457
111.135,13.2487,-0.01776965,0.97738,1.0454
111.735,13.2689,-0.01776995,0.97641,1.0451
112.335,13.289,-0.01777338,0.97421,1.04479
112.935,13.30904,-0.0183183,0.97432,1.04449
113.535,13.3292,-0.01907494,0.97292,1.04419
114.135,13.3493,-0.0190801,0.97016,1.04388
114.735,13.3694,-0.01907978,0.9708,1.04358
115.335,13.3894,-0.01909122,0.96954,1.04327
115.935,13.4094,-0.02007851,0.96653,1.04297
116.535,13.42937,-0.02102674,0.96593,1.04266
117.135,13.44938,-0.02139436,0.9626,1.04235
117.735,13.46931,-0.02138977,0.96179,1.04205
118.335,13.4892,-0.02139715,0.9593,1.04174
118.935,13.509,-0.02175556,0.95812,1.04143
119.535,13.52891,-0.0217223,0.95712,1.04113
120.135,13.5488,-0.02155343,0.9566,1.04082
120.735,13.56865,-0.02073426,0.95398,1.04051
121.335,13.5885,-0.02072997,0.95156,1.0402
121.935,13.6083,-0.02072789,0.9479,1.03989
122.535,13.6281,-0.02083077,0.94756,1.03958
123.135,13.6479,-0.02171666,0.94447,1.03927
123.735,13.6676,-0.02172006,0.94175,1.03896
124.335,13.68741,-0.02172,0.94123,1.03865
124.935,13.70716,-0.02171998,0.93633,1.03834
125.535,13.7269,-0.02172057,0.93515,1.03803
126.135,13.7466,-0.02203853,0.93272,1.03772
126.735,13.7661,-0.0220404,0.93044,1.03741
127.335,13.7856,-0.0220395,0.9281,1.0371
127.935,13.80525,-0.02223102,0.92927,1.03679
128.535,13.82499,-0.02369485,0.92765,1.03647
129.135,13.84479,-0.0236899,0.92871,1.03616
129.735,13.86449,-0.02369,0.92583,1.03585
130.335,13.88401,-0.02369,0.92335,1.03553
130.935,13.90355,-0.02369,0.92252,1.03522
131.535,13.9231,-0.02369,0.92303,1.03491
132.135,13.94245,-0.02369,0.92167,1.03459
132.735,13.9618,-0.02369,0.92161,1.03428
133.335,13.98121,-0.02369,0.91878,1.03396
133.935,14.00063,-0.02369,0.91628,1.03365
134.535,14.02007,-0.02369,0.91462,1.03333
135.135,14.03948,-0.02368897,0.91411,1.03301
135.735,14.05894,-0.02397875,0.91301,1.0327
136.335,14.0783,-0.02402131,0.91139,1.03238
136.935,14.0976,-0.02401996,0.90808,1.03207
137.535,14.117,-0.02402,0.90831,1.03175
138.135,14.1364,-0.02402,0.90764,1.03143
138.735,14.1557,-0.02401994,0.90845,1.03111
139.335,14.17503,-0.02402238,0.90735,1.03079
139.935,14.19425,-0.0239549,0.90626,1.03048
140.535,14.21344,-0.02402629,0.90461,1.03016
141.135,14.23271,-0.02402079,0.90371,1.02984
141.735,14.2519,-0.02401996,0.90472,1.02952
142.335,14.27115,-0.02402,0.90439,1.0292
142.935,14.29028,-0.02402,0.90409,1.02888
143.535,14.3094,-0.02402,0.90273,1.02856
144.135,14.32855,-0.02402,0.90397,1.02824
144.735,14.3477,-0.02402,0.90513,1.02792
145.335,14.36695,-0.02401999,0.90685,1.0276
145.935,14.38604,-0.02401912,0.90723,1.02727
146.535,14.4051,-0.02425587,0.90761,1.02695
147.135,14.42419,-0.02460434,0.90818,1.02663
147.735,14.44319,-0.0253307,0.90994,1.02631
148.335,14.4622,-0.0257056,0.91111,1.02599
148.935,14.48125,-0.02566947,0.90922,1.02566
149.535,14.50029,-0.02567001,0.91115,1.02534
150.135,14.5194,-0.02567064,0.91335,1.02502
150.735,14.53845,-0.02545849,0.9157,1.02469
151.335,14.5575,-0.02433572,0.91509,1.02437
151.935,14.57644,-0.02435064,0.91731,1.02404
152.535,14.5953,-0.02434003,0.91983,1.02372
153.135,14.6142,-0.02536757,0.91892,1.02339
153.735,14.633,-0.02533034,0.92267,1.02307
154.335,14.65196,-0.02532997,0.92334,1.02274
154.935,14.67095,-0.02533,0.92528,1.02242
155.535,14.68987,-0.02533,0.92876,1.02209
156.135,14.709,-0.02533,0.92952,1.02176
156.735,14.7278,-0.02533,0.93187,1.02144
157.335,14.7467,-0.02533,0.93334,1.02111
157.935,14.76571,-0.02533,0.93541,1.02078
158.535,14.78459,-0.02533,0.93675,1.02045
159.135,14.8036,-0.02532999,0.93819,1.02013
159.735,14.8225,-0.02533027,0.94104,1.0198
160.335,14.8413,-0.02532286,0.94173,1.01947
160.935,14.86011,-0.02632899,0.94497,1.01914
161.535,14.879,-0.0266485,0.94782,1.01881
162.135,14.89771,-0.02665007,0.94729,1.01848
162.735,14.91656,-0.02665001,0.95093,1.01815
163.335,14.9354,-0.02664957,0.95134,1.01782
163.935,14.95416,-0.0266582,0.95555,1.01749
164.535,14.973,-0.02631679,0.95693,1.01716
165.135,14.99182,-0.02632031,0.96001,1.01683
165.735,15.0107,-0.02631999,0.96127,1.0165
166.335,15.02948,-0.02632,0.96272,1.01617
166.935,15.04824,-0.02632003,0.96463,1.01584
167.535,15.0669,-0.02631976,0.96734,1.0155
168.135,15.08562,-0.02628408,0.96804,1.01517
168.735,15.10436,-0.02767577,0.97128,1.01484
169.335,15.12314,-0.02763905,0.97416,1.01451
169.935,15.14195,-0.02764001,0.97665,1.01417
170.535,15.1606,-0.02764006,0.97673,1.01384
171.135,15.17935,-0.02764246,0.9788,1.01351
171.735,15.198,-0.02843604,0.98356,1.01317
172.335,15.2166,-0.02895519,0.98521,1.01284
172.935,15.23531,-0.0289601,0.98774,1.0125
173.535,15.254,-0.02896,0.99018,1.01217
174.135,15.27275,-0.02896,0.99094,1.01183
174.735,15.29139,-0.0289603,0.99095,1.0115
175.335,15.31008,-0.0289443,0.99576,1.01116
175.935,15.32872,-0.02813902,0.99605,1.01083
176.535,15.34738,-0.02796939,0.99963,1.01049
177.135,15.366,-0.02796998,1.00149,1.01015
177.735,15.3845,-0.02797,1.00291,1.00982
178.335,15.4031,-0.02797,1.00686,1.00948
178.935,15.4216,-0.02797,1.00715,1.00914
179.535,15.4402,-0.02797,1.01024,1.00881
180.135,15.45881,-0.02797,1.01066,1.00847
180.735,15.47735,-0.02797,1.01317,1.00813
181.335,15.4958,-0.02797005,1.01839,1.00779
181.935,15.5143,-0.02796909,1.01688,1.00745
182.535,15.5328,-0.02795123,1.01861,1.00711
183.135,15.5513,-0.02990503,1.02164,1.00677
183.735,15.5697,-0.02994075,1.02438,1.00644
184.335,15.5881,-0.02993999,1.02379,1.0061
184.935,15.60651,-0.02994,1.02753,1.00576
185.535,15.6249,-0.02994,1.02817,1.00542
186.135,15.6434,-0.02994,1.03034,1.00507
186.735,15.66189,-0.02993999,1.03323,1.00473
187.335,15.68038,-0.0299401,1.03366,1.00439
187.935,15.69883,-0.02995017,1.0348,1.00405
188.535,15.7172,-0.03105106,1.0371,1.00371
189.135,15.7356,-0.03126369,1.03913,1.00337
189.735,15.7539,-0.03125995,1.0395,1.00303
190.335,15.77225,-0.03125902,1.04124,1.00268
190.935,15.79062,-0.03140017,1.04205,1.00234
191.535,15.80901,-0.03259902,1.0437,1.002
192.135,15.82749,-0.0325799,1.04943,1.00166
192.735,15.84586,-0.03258395,1.04882,1.00131
193.335,15.86423,-0.03315297,1.0498,1.00097
193.935,15.8825,-0.03324187,1.05146,1.00063
194.535,15.90083,-0.03323998,1.05153,1.00028
195.135,15.9191,-0.03324,1.05349,0.99994
195.735,15.9375,-0.03324,1.05568,0.99959
196.335,15.9558,-0.03324,1.05852,0.99925
196.935,15.97414,-0.03324,1.05854,0.9989
197.535,15.99249,-0.03323994,1.0576,0.99856
198.135,16.01079,-0.03324515,1.05931,0.99821
198.735,16.02907,-0.03379935,1.06136,0.99787
199.335,16.04733,-0.0345474,1.0627,0.99752
199.935,16.0656,-0.03454893,1.06493,0.99717
200.535,16.08386,-0.0346844,1.06645,0.99683
201.135,16.10215,-0.03588891,1.06565,0.99648
201.735,16.1204,-0.03586988,1.06859,0.99613
202.335,16.1387,-0.03587001,1.06775,0.99578
202.935,16.15694,-0.03586867,1.07049,0.99544
203.535,16.17519,-0.03591689,1.06872,0.99509
204.135,16.19337,-0.03719068,1.07167,0.99474
204.735,16.21153,-0.03719105,1.07057,0.99439
205.335,16.2298,-0.037174,1.07336,0.99404
205.935,16.2481,-0.03827918,1.07426,0.99369
206.535,16.26645,-0.03849979,1.07563,0.99335
207.135,16.28485,-0.03848244,1.07311,0.993
207.735,16.30304,-0.03969752,1.07612,0.99265
208.335,16.3213,-0.03982098,1.07429,0.9923
208.935,16.33953,-0.03981873,1.07481,0.99195
209.535,16.35774,-0.04019279,1.07568,0.9916
210.135,16.37606,-0.04122347,1.07534,0.99125
210.735,16.3943,-0.04123519,1.07668,0.9909
211.335,16.41243,-0.04214847,1.07627,0.99054
211.935,16.4307,-0.04257135,1.07613,0.99019
212.535,16.44892,-0.04368586,1.07532,0.98984
213.135,16.46712,-0.04421881,1.0754,0.98949
213.735,16.48537,-0.04569807,1.07571,0.98914
214.335,16.50359,-0.04572328,1.07632,0.98879
214.935,16.5218,-0.0468654,1.07494,0.98843
215.535,16.5401,-0.04706004,1.07604,0.98808
216.135,16.55829,-0.04701498,1.07605,0.98773
216.735,16.57633,-0.04854334,1.07246,0.98737
217.335,16.59458,-0.04893908,1.07295,0.98702
217.935,16.61273,-0.05031595,1.07642,0.98667
218.535,16.63101,-0.05178153,1.07428,0.98631
219.135,16.64937,-0.05195194,1.07756,0.98596
219.735,16.66753,-0.05333515,1.07199,0.9856
220.335,16.68582,-0.05456178,1.07386,0.98525
220.935,16.70401,-0.05586289,1.07222,0.98489
221.535,16.72225,-0.05682144,1.07512,0.98454
222.135,16.74043,-0.05736744,1.0718,0.98418
222.735,16.75856,-0.05885082,1.07389,0.98383
223.335,16.77673,-0.05914077,1.07512,0.98347
223.935,16.79489,-0.06005717,1.07676,0.98312
224.535,16.81307,-0.06109932,1.07501,0.98276
225.135,16.83116,-0.06287138,1.07601,0.9824
225.735,16.84933,-0.064289,1.07642,0.98205
226.335,16.86744,-0.0658395,1.07722,0.98169
226.935,16.8856,-0.06728038,1.07867,0.98133
227.535,16.90383,-0.06859647,1.08117,0.98098
228.135,16.92203,-0.07061737,1.07997,0.98062
228.735,16.94021,-0.07229552,1.08081,0.98026
229.335,16.95842,-0.07528579,1.08165,0.9799
229.935,16.97655,-0.07714834,1.08387,0.97954
230.535,16.99461,-0.07835245,1.08275,0.97918
231.135,17.01282,-0.07998079,1.0858,0.97883
231.735,17.03095,-0.08146257,1.08979,0.97847
232.335,17.0491,-0.08353991,1.0902,0.97811
232.935,17.0673,-0.08590566,1.0931,0.97775
233.535,17.08548,-0.08828458,1.09343,0.97739
234.135,17.10361,-0.09076638,1.09467,0.97703
234.735,17.12174,-0.09298049,1.09748,0.97667
235.335,17.13992,-0.09486341,1.10076,0.97631
235.935,17.15803,-0.09699693,1.10171,0.97595
236.535,17.17622,-0.09899683,1.10649,0.97559
237.135,17.1944,-0.10081,1.10838,0.97523
237.735,17.21256,-0.10157,1.1121,0.97486
238.335,17.23064,-0.10318,1.11343,0.9745
238.935,17.24876,-0.10601,1.11611,0.97414
239.535,17.26688,-0.10853,1.11803,0.97378
240.135,17.28497,-0.1113,1.12267,0.97342
240.735,17.30311,-0.11499,1.12544,0.97305
241.335,17.3212,-0.11834,1.12815,0.97269
241.935,17.3393,-0.12121,1.13047,0.97233
242.535,17.35737,-0.12337,1.1323,0.97197
243.135,17.37545,-0.12609,1.13818,0.9716
243.735,17.3936,-0.12878,1.1398,0.97124
244.335,17.41178,-0.13118,1.14255,0.97088
244.935,17.42991,-0.1338,1.14534,0.97051
245.535,17.44811,-0.13653,1.14932,0.97015
246.135,17.46621,-0.13961,1.14966,0.96978
246.735,17.48432,-0.14311,1.15397,0.96942
247.335,17.50251,-0.14552,1.15787,0.96905
247.935,17.52065,-0.14842,1.15905,0.96869
248.535,17.53866,-0.15166,1.1603,0.96832
249.135,17.55663,-0.15477,1.16397,0.96796
249.735,17.57453,-0.15867,1.16406,0.96759
250.335,17.5926,-0.16181,1.16785,0.96723
250.935,17.61084,-0.16509,1.16717,0.96686
251.535,17.62914,-0.16736,1.16969,0.9665
252.135,17.6475,-0.16991,1.16934,0.96613
252.735,17.66566,-0.17313,1.17071,0.96576
253.335,17.6838,-0.17707,1.17123,0.9654
253.935,17.70185,-0.18108,1.17429,0.96503
254.535,17.71986,-0.18457,1.17403,0.96466
255.135,17.73789,-0.18884,1.17439,0.96429
255.735,17.756,-0.1926,1.17518,0.96393
256.335,17.77413,-0.19725,1.17497,0.96356
256.935,17.79223,-0.20048,1.17458,0.96319
257.535,17.8104,-0.20397,1.17404,0.96282
258.135,17.8285,-0.20698,1.1749,0.96245
258.735,17.84655,-0.21014,1.17364,0.96209
259.335,17.8646,-0.21377,1.17263,0.96172
259.935,17.88271,-0.21775,1.1735,0.96135
260.535,17.9008,-0.22206,1.17085,0.96098
261.135,17.9189,-0.22607,1.16887,0.96061
261.735,17.93704,-0.23,1.16758,0.96024
262.335,17.95511,-0.23349,1.1622,0.95987
262.935,17.97305,-0.23807,1.16475,0.9595
263.535,17.9911,-0.24131,1.15988,0.95913
264.135,18.00913,-0.24527,1.15911,0.95876
264.735,18.02721,-0.2484,1.15469,0.95839
265.335,18.0455,-0.25245,1.15144,0.95802
265.935,18.0636,-0.25671,1.15092,0.95764
266.535,18.0817,-0.26111,1.14585,0.95727
267.135,18.0997,-0.26493,1.1401,0.9569
267.735,18.11778,-0.26833,1.13712,0.95653
268.335,18.13586,-0.27136,1.1334,0.95616
268.935,18.15395,-0.27386,1.13057,0.95579
269.535,18.17205,-0.27821,1.12938,0.95541
270.135,18.19015,-0.285,1.12499,0.95504
270.735,18.2082,-0.29132,1.11944,0.95467
271.335,18.2263,-0.29737,1.11605,0.9543
271.935,18.2443,-0.30217,1.1107,0.95392
272.535,18.26236,-0.3065,1.10682,0.95355
273.135,18.28049,-0.31074,1.10113,0.95318
273.735,18.29857,-0.31502,1.09557,0.9528
274.335,18.31664,-0.31909,1.08952,0.95243
274.935,18.33474,-0.32238,1.08165,0.95205
275.535,18.3528,-0.32662,1.07867,0.95168
276.135,18.37085,-0.33143,1.07307,0.95131
276.735,18.389,-0.3364,1.06974,0.95093
277.335,18.40709,-0.34123,1.06284,0.95056
277.935,18.42519,-0.34558,1.05694,0.95018
278.535,18.44332,-0.35038,1.05098,0.94981
279.135,18.4614,-0.35559,1.0433,0.94943
279.735,18.47945,-0.36102,1.04061,0.94905
280.335,18.49755,-0.36638,1.03341,0.94868
280.935,18.5156,-0.37146,1.02599,0.9483
281.535,18.53364,-0.37686,1.02007,0.94793
282.135,18.5516,-0.38245,1.0157,0.94755
282.735,18.56961,-0.38842,1.00628,0.94717
283.335,18.58769,-0.39445,0.9989,0.9468
283.935,18.6058,-0.4012,0.99104,0.94642
284.535,18.6241,-0.40708,0.98623,0.94604
285.135,18.64219,-0.41288,0.9803,0.94567
285.735,18.66029,-0.4191,0.97334,0.94529
286.335,18.67846,-0.42559,0.96475,0.94491
286.935,18.6966,-0.43183,0.95952,0.94453
287.535,18.71472,-0.4378,0.94944,0.94415
288.135,18.73275,-0.44425,0.94243,0.94378
288.735,18.75079,-0.45094,0.93324,0.9434
289.335,18.76882,-0.45775,0.92759,0.94302
289.935,18.78696,-0.46362,0.9201,0.94264
290.535,18.80511,-0.46955,0.91103,0.94226
291.135,18.82321,-0.47725,0.90323,0.94188
291.735,18.84131,-0.48682,0.89727,0.9415
292.335,18.85941,-0.49594,0.88647,0.94112
292.935,18.8775,-0.50393,0.87975,0.94074
293.535,18.89558,-0.51152,0.86893,0.94036
294.135,18.9137,-0.51942,0.8612,0.93998
294.735,18.9317,-0.52789,0.85342,0.9396
295.335,18.94979,-0.53661,0.84284,0.93922
295.935,18.96793,-0.54493,0.83456,0.93884
296.535,18.98604,-0.55403,0.82758,0.93846
297.135,19.0042,-0.56322,0.81667,0.93808
297.735,19.02228,-0.57235,0.80673,0.9377
298.335,19.0404,-0.58198,0.79936,0.93732
298.935,19.0585,-0.59153,0.78986,0.93694
299.535,19.0767,-0.60176,0.78176,0.93655
300.135,19.09485,-0.61213,0.77374,0.93617
300.735,19.11295,-0.62289,0.76177,0.93579
301.335,19.13105,-0.63389,0.75386,0.93541
301.935,19.14914,-0.64474,0.74469,0.93503
302.535,19.1673,-0.65554,0.73589,0.93464
303.135,19.18548,-0.66669,0.72605,0.93426
303.735,19.20362,-0.67819,0.71835,0.93388
304.335,19.2217,-0.68998,0.70913,0.93349
304.935,19.23978,-0.70206,0.70048,0.93311
305.535,19.25783,-0.71428,0.69154,0.93273
306.135,19.2759,-0.72751,0.67975,0.93234
306.735,19.29401,-0.74072,0.67031,0.93196
307.335,19.3122,-0.75336,0.66288,0.93158
307.935,19.3303,-0.7666,0.65615,0.93119
308.535,19.34841,-0.78021,0.6485,0.93081
309.135,19.36646,-0.79439,0.64012,0.93042
309.735,19.38449,-0.80871,0.63214,0.93004
310.335,19.40261,-0.82314,0.62462,0.92965
310.935,19.4207,-0.83738,0.6127,0.92927
311.535,19.43893,-0.85234,0.60612,0.92888
312.135,19.4571,-0.86714,0.5973,0.9285
312.735,19.4752,-0.88227,0.59077,0.92811
313.335,19.49332,-0.89821,0.58197,0.92773
313.935,19.51146,-0.91403,0.57394,0.92734
314.535,19.52964,-0.93023,0.56549,0.92695
315.135,19.5478,-0.9466,0.55929,0.92657
315.735,19.56595,-0.96314,0.55218,0.92618
316.335,19.58407,-0.98056,0.54422,0.92579
316.935,19.60215,-0.99766,0.53657,0.92541
317.535,19.6203,-1.01455,0.52811,0.92502
318.135,19.63843,-1.03213,0.52315,0.92463
318.735,19.65656,-1.04981,0.51452,0.92425
319.335,19.67475,-1.06769,0.50967,0.92386
319.935,19.69284,-1.08583,0.5006,0.92347
320.535,19.711,-1.10438,0.49533,0.92308
321.135,19.72917,-1.12362,0.48917,0.9227
321.735,19.74731,-1.14282,0.48069,0.92231
322.335,19.7655,-1.16147,0.47475,0.92192
322.935,19.78364,-1.18028,0.4678,0.92153
323.535,19.80184,-1.19931,0.4625,0.92114
324.135,19.82005,-1.21844,0.45766,0.92075
324.735,19.83824,-1.23839,0.45009,0.92037
325.335,19.8564,-1.25829,0.44401,0.91998
325.935,19.8743,-1.27819,0.43713,0.91959
326.535,19.89242,-1.29905,0.43091,0.9192
327.135,19.91055,-1.31962,0.42127,0.91881
327.735,19.92875,-1.3404,0.41432,0.91842
328.335,19.94718,-1.36167,0.40712,0.91803
328.935,19.9653,-1.38207,0.40318,0.91764
329.535,19.98348,-1.40294,0.39415,0.91725
330.135,20.00167,-1.42381,0.38787,0.91686
330.735,20.0198,-1.44402,0.37805,0.91647
331.335,20.03796,-1.46498,0.36982,0.91608
331.935,20.0561,-1.48594,0.36386,0.91569
332.535,20.0743,-1.5071,0.35777,0.91529
333.135,20.0925,-1.52847,0.34963,0.9149
333.735,20.11075,-1.54955,0.33892,0.91451
334.335,20.12891,-1.57079,0.33046,0.91412
334.935,20.14702,-1.5924,0.32208,0.91373
335.535,20.16525,-1.61391,0.3118,0.91334
336.135,20.18349,-1.63578,0.30356,0.91294
336.735,20.20188,-1.65777,0.28967,0.91255
337.335,20.22025,-1.67892,0.27957,0.91216
337.935,20.23846,-1.69998,0.26964,0.91177
338.535,20.2567,-1.72098,0.25462,0.91138
339.135,20.27502,-1.74214,0.24403,0.91098
339.735,20.2932,-1.76319,0.23219,0.91059
340.335,20.3115,-1.7842,0.21746,0.9102
340.935,20.32976,-1.80515,0.20604,0.9098
341.535,20.34797,-1.82574,0.19248,0.90941
342.135,20.36621,-1.84584,0.18076,0.90902
342.735,20.38443,-1.86591,0.16572,0.90862
343.335,20.40267,-1.88554,0.15195,0.90823
343.935,20.4209,-1.90518,0.1381,0.90783
344.535,20.43915,-1.92516,0.12233,0.90744
345.135,20.45737,-1.94429,0.10907,0.90705
345.735,20.47564,-1.96279,0.09364654,0.90665
346.335,20.49393,-1.98131,0.08014274,0.90626
346.935,20.51214,-1.9995,0.06766816,0.90586
347.535,20.5304,-2.01759,0.05835696,0.90547
348.135,20.54867,-2.03519,0.05170009,0.90507
348.735,20.56697,-2.0514,0.04191163,0.90468
349.335,20.58535,-2.06661,0.03306126,0.90428
349.935,20.60375,-2.082,0.02870592,0.90389
350.535,20.62208,-2.09729,0.02811468,0.90349
351.135,20.64043,-2.11188,0.02610944,0.90309
351.735,20.6587,-2.12534,0.03165909,0.9027
352.335,20.677,-2.13832,0.0357423,0.9023
352.935,20.69535,-2.15069,0.04387449,0.90191
353.535,20.71367,-2.162,0.05155737,0.90151
354.135,20.73201,-2.17266,0.06459758,0.90111
354.735,20.7503,-2.18254,0.07556476,0.90072
355.335,20.7686,-2.19227,0.0892156,0.90032
355.935,20.787,-2.20189,0.10358,0.89992
356.535,20.80534,-2.20993,0.12004,0.89952
357.135,20.8237,-2.21799,0.13269,0.89913
357.735,20.84219,-2.22538,0.14607,0.89873
358.335,20.8605,-2.23197,0.15764,0.89833
358.935,20.87895,-2.23834,0.17253,0.89793
359.535,20.89741,-2.24437,0.18394,0.89754
360.135,20.91582,-2.24981,0.19073,0.89714
360.735,20.9343,-2.25484,0.20073,0.89674
361.335,20.95273,-2.2598,0.21207,0.89634
361.935,20.9711,-2.26484,0.21859,0.89594
362.535,20.98941,-2.26938,0.22296,0.89554
363.135,21.00766,-2.27345,0.22618,0.89515
363.735,21.026,-2.27748,0.23185,0.89475
364.335,21.04434,-2.28141,0.23756,0.89435
364.935,21.0628,-2.28527,0.23647,0.89395
365.535,21.08146,-2.289,0.23745,0.89355
366.135,21.1,-2.29265,0.23813,0.89315
366.735,21.1186,-2.2963,0.2402,0.89275
367.335,21.13709,-2.2995,0.24172,0.89235
367.935,21.15549,-2.3034,0.24136,0.89195
368.535,21.17395,-2.30622,0.2426,0.89155
369.135,21.19241,-2.30946,0.24142,0.89115
369.735,21.21089,-2.31241,0.24122,0.89075
370.335,21.2294,-2.31579,0.23725,0.89035
370.935,21.24775,-2.31915,0.23841,0.88995
371.535,21.2661,-2.32194,0.23644,0.88955
372.135,21.2845,-2.32474,0.2338,0.88915
372.735,21.30292,-2.3272,0.22889,0.88874
373.335,21.32152,-2.33011,0.23002,0.88834
373.935,21.34013,-2.33259,0.22952,0.88794
374.535,21.35866,-2.33511,0.22638,0.88754
375.135,21.3772,-2.33793,0.22444,0.88714
375.735,21.3957,-2.34085,0.22468,0.88674
376.335,21.41416,-2.34385,0.2204,0.88634
376.935,21.4327,-2.3463,0.21856,0.88593
377.535,21.45117,-2.34871,0.21685,0.88553
378.135,21.46969,-2.3507,0.21312,0.88513
378.735,21.48827,-2.35345,0.20817,0.88473
379.335,21.50684,-2.35553,0.20771,0.88432
379.935,21.52538,-2.35806,0.20639,0.88392
380.535,21.54393,-2.36042,0.20282,0.88352
381.135,21.56245,-2.36294,0.20072,0.88311
381.735,21.58098,-2.36474,0.19576,0.88271
382.335,21.5995,-2.36664,0.19662,0.88231
382.935,21.618,-2.36858,0.18934,0.8819
383.535,21.6365,-2.37091,0.18708,0.8815
384.135,21.655,-2.37325,0.18638,0.8811
384.735,21.67359,-2.3756,0.18228,0.88069
385.335,21.69215,-2.37791,0.18012,0.88029
385.935,21.7107,-2.38019,0.17808,0.87988
386.535,21.72931,-2.38242,0.17731,0.87948
387.135,21.7479,-2.38443,0.17449,0.87908
387.735,21.76649,-2.38652,0.17131,0.87867
388.335,21.78507,-2.38874,0.16828,0.87827
388.935,21.8036,-2.39146,0.16361,0.87786
389.535,21.82218,-2.39346,0.16176,0.87746
390.135,21.8408,-2.39524,0.16021,0.87705
390.735,21.85943,-2.39675,0.15551,0.87665
391.335,21.87803,-2.39863,0.15367,0.87624
391.935,21.89661,-2.40059,0.15152,0.87584
392.535,21.91517,-2.40247,0.1482,0.87543
393.135,21.93372,-2.40476,0.14874,0.87502
393.735,21.95228,-2.4077,0.14681,0.87462
394.335,21.97092,-2.4097,0.14729,0.87421
394.935,21.98953,-2.4123,0.14374,0.87381
395.535,22.00816,-2.41414,0.14151,0.8734
396.135,22.02686,-2.41607,0.13876,0.87299
396.735,22.0455,-2.41775,0.13898,0.87259
397.335,22.06405,-2.4196,0.13454,0.87218
397.935,22.08268,-2.42168,0.13514,0.87177
398.535,22.10124,-2.42207,0.13129,0.87137
399.135,22.11991,-2.42298,0.13021,0.87096
399.735,22.1386,-2.4226,0.12979,0.87055
400.335,22.1572,-2.42395,0.12456,0.87014
400.935,22.1759,-2.42711,0.12524,0.86974
401.535,22.19451,-2.43137,0.12605,0.86933
402.135,22.21313,-2.43359,0.12337,0.86892
402.735,22.23176,-2.43573,0.12201,0.86851
403.335,22.2503,-2.43726,0.11931,0.86811
403.935,22.26898,-2.43872,0.12104,0.8677
404.535,22.2876,-2.43975,0.11802,0.86729
405.135,22.30627,-2.44116,0.119,0.86688
405.735,22.32495,-2.44348,0.11667,0.86647
406.335,22.34358,-2.44658,0.11728,0.86606
406.935,22.36225,-2.44881,0.11573,0.86565
407.535,22.38087,-2.451,0.11989,0.86525
408.135,22.3995,-2.45287,0.11541,0.86484
408.735,22.4182,-2.45448,0.11561,0.86443
409.335,22.43684,-2.45493,0.11609,0.86402
409.935,22.45553,-2.45623,0.11494,0.86361
410.535,22.47425,-2.45777,0.11541,0.8632
411.135,22.49295,-2.45947,0.11595,0.86279
411.735,22.5117,-2.46137,0.11324,0.86238
412.335,22.53025,-2.46321,0.11619,0.86197
412.935,22.5489,-2.46492,0.11421,0.86156
413.535,22.5676,-2.466,0.11841,0.86115
414.135,22.58634,-2.46744,0.11722,0.86074
414.735,22.60519,-2.46914,0.11718,0.86033
415.335,22.62387,-2.47131,0.11659,0.85992
415.935,22.64256,-2.47346,0.11858,0.85951
416.535,22.66121,-2.47533,0.11853,0.8591
417.135,22.6799,-2.47682,0.11783,0.85869
417.735,22.6986,-2.47835,0.12263,0.85827
418.335,22.71733,-2.47881,0.12201,0.85786
418.935,22.73612,-2.48061,0.12235,0.85745
419.535,22.7549,-2.48249,0.12207,0.85704
420.135,22.77378,-2.48441,0.12343,0.85663
420.735,22.7926,-2.48646,0.12616,0.85622
421.335,22.8113,-2.48838,0.1268,0.85581
421.935,22.83011,-2.48985,0.13024,0.85539
422.535,22.84885,-2.49014,0.13232,0.85498
423.135,22.8676,-2.49171,0.13393,0.85457
423.735,22.8864,-2.49358,0.13324,0.85416
424.335,22.9052,-2.49469,0.13714,0.85374
424.935,22.9239,-2.49592,0.13729,0.85333
425.535,22.94268,-2.49747,0.13952,0.85292
426.135,22.9615,-2.49937,0.14077,0.85251
426.735,22.9803,-2.50107,0.14259,0.85209
427.335,22.99912,-2.50279,0.14414,0.85168
427.935,23.018,-2.50444,0.14665,0.85127
428.535,23.03679,-2.50554,0.1486,0.85085
429.135,23.05566,-2.50703,0.15102,0.85044
429.735,23.0745,-2.50874,0.15345,0.85003
430.335,23.0933,-2.51104,0.15299,0.84961
430.935,23.11213,-2.51277,0.1581,0.8492
431.535,23.1309,-2.51371,0.15706,0.84879
432.135,23.1497,-2.51477,0.15918,0.84837
432.735,23.16856,-2.51651,0.1618,0.84796
433.335,23.18735,-2.5183,0.16726,0.84754
433.935,23.20625,-2.52026,0.16905,0.84713
434.535,23.2251,-2.52207,0.17226,0.84671
435.135,23.24398,-2.52356,0.16992,0.8463
435.735,23.26292,-2.52461,0.17271,0.84589
436.335,23.28174,-2.52636,0.17602,0.84547
436.935,23.30057,-2.52763,0.17524,0.84506
437.535,23.3194,-2.52947,0.18121,0.84464
438.135,23.33827,-2.53094,0.18156,0.84423
438.735,23.3572,-2.53177,0.18576,0.84381
439.335,23.37612,-2.53275,0.18883,0.84339
439.935,23.39499,-2.53438,0.19003,0.84298
440.535,23.41384,-2.53605,0.18899,0.84256
441.135,23.4327,-2.53789,0.19214,0.84215
441.735,23.45159,-2.53929,0.1933,0.84173
442.335,23.47052,-2.54033,0.19711,0.84132
442.935,23.48949,-2.54198,0.19836,0.8409
443.535,23.5085,-2.54356,0.20024,0.84048
444.135,23.52746,-2.54474,0.19943,0.84007
444.735,23.5462,-2.54693,0.20423,0.83965
445.335,23.56515,-2.54821,0.20647,0.83923
445.935,23.58413,-2.54844,0.20598,0.83882
446.535,23.60305,-2.55119,0.20847,0.8384
447.135,23.62217,-2.5526,0.21131,0.83798
447.735,23.64104,-2.55328,0.21412,0.83757
448.335,23.65994,-2.55459,0.21669,0.83715
448.935,23.67889,-2.5562,0.22114,0.83673
449.535,23.6978,-2.55675,0.22266,0.83631
450.135,23.7167,-2.55677,0.22344,0.8359
450.735,23.73575,-2.55842,0.22585,0.83548
451.335,23.75475,-2.56024,0.22699,0.83506
451.935,23.77375,-2.56131,0.22874,0.83464
452.535,23.7927,-2.56198,0.22926,0.83423
453.135,23.81165,-2.56335,0.23152,0.83381
453.735,23.83064,-2.56466,0.23196,0.83339
454.335,23.84966,-2.56566,0.23305,0.83297
454.935,23.86867,-2.5677,0.23488,0.83255
455.535,23.8876,-2.56932,0.23863,0.83213
456.135,23.90663,-2.57038,0.23871,0.83172
456.735,23.92556,-2.57132,0.24141,0.8313
457.335,23.94458,-2.5723,0.24261,0.83088
457.935,23.9636,-2.57417,0.24383,0.83046
458.535,23.98261,-2.57574,0.24405,0.83004
459.135,24.00168,-2.57703,0.2462,0.82962
459.735,24.02066,-2.57776,0.24865,0.8292
460.335,24.03968,-2.57896,0.2508,0.82878
460.935,24.05872,-2.57941,0.2509,0.82836
461.535,24.07771,-2.58044,0.25076,0.82794
462.135,24.0967,-2.58186,0.25285,0.82752
462.735,24.11572,-2.5822,0.25488,0.8271
463.335,24.1347,-2.58361,0.25743,0.82668
463.935,24.1538,-2.58533,0.25819,0.82626
464.535,24.17279,-2.58588,0.25989,0.82584
465.135,24.1919,-2.58678,0.26089,0.82542
465.735,24.21092,-2.58843,0.2613,0.825
466.335,24.22999,-2.58903,0.26274,0.82458
466.935,24.24908,-2.58965,0.26608,0.82416
467.535,24.26817,-2.59151,0.26363,0.82374
468.135,24.28727,-2.59272,0.2659,0.82332
468.735,24.30632,-2.59348,0.26699,0.8229
469.335,24.32539,-2.59506,0.26808,0.82248
469.935,24.3444,-2.5975,0.26749,0.82206
470.535,24.36346,-2.5979,0.26769,0.82164
471.135,24.38252,-2.5992,0.2699,0.82121
471.735,24.40156,-2.6006,0.27137,0.82079
472.335,24.42063,-2.60089,0.27081,0.82037
472.935,24.43975,-2.60229,0.27331,0.81995
473.535,24.45884,-2.60288,0.27479,0.81953
474.135,24.478,-2.60422,0.27285,0.81911
474.735,24.49706,-2.60572,0.27397,0.81868
475.335,24.5161,-2.60717,0.27481,0.81826
475.935,24.53517,-2.60739,0.27411,0.81784
476.535,24.55418,-2.6089,0.27542,0.81742
477.135,24.57329,-2.60921,0.27736,0.81699
477.735,24.5924,-2.61043,0.27512,0.81657
478.335,24.61149,-2.61131,0.27574,0.81615
478.935,24.6306,-2.61191,0.27953,0.81573
479.535,24.6497,-2.61357,0.27997,0.8153
480.135,24.6689,-2.61448,0.27816,0.81488
480.735,24.68798,-2.61506,0.28067,0.81446
481.335,24.7072,-2.61657,0.27929,0.81403
481.935,24.72624,-2.61656,0.28052,0.81361
482.535,24.74539,-2.61799,0.28056,0.81319
483.135,24.76455,-2.61801,0.28163,0.81276
483.735,24.7837,-2.62105,0.2803,0.81234
484.335,24.8029,-2.62103,0.28048,0.81192
484.935,24.822,-2.6224,0.28203,0.81149
485.535,24.84112,-2.6228,0.28469,0.81107
486.135,24.8602,-2.6238,0.28421,0.81065
486.735,24.87939,-2.62436,0.28431,0.81022
487.335,24.89852,-2.62531,0.28482,0.8098
487.935,24.9177,-2.62695,0.2854,0.80937
488.535,24.93689,-2.62589,0.28394,0.80895
489.135,24.95606,-2.62718,0.28799,0.80852
489.735,24.97525,-2.62772,0.28414,0.8081
490.335,24.9944,-2.62979,0.28668,0.80767
490.935,25.0136,-2.6316,0.28396,0.80725
491.535,25.0328,-2.63226,0.28355,0.80683
492.135,25.0519,-2.63321,0.2868,0.8064
492.735,25.07111,-2.63456,0.28769,0.80597
493.335,25.09029,-2.63478,0.28571,0.80555
493.935,25.10949,-2.63611,0.28679,0.80512
494.535,25.12868,-2.63621,0.287,0.8047
495.135,25.14784,-2.63752,0.28741,0.80427
495.735,25.16704,-2.63689,0.28733,0.80385
496.335,25.18623,-2.63762,0.28742,0.80342
496.935,25.2054,-2.63886,0.28743,0.803
497.535,25.22457,-2.63895,0.28875,0.80257
498.135,25.24374,-2.63965,0.28874,0.80214
498.735,25.26296,-2.64087,0.28783,0.80172
499.335,25.28221,-2.64255,0.28846,0.80129
499.935,25.3014,-2.64318,0.28748,0.80087
500.535,25.32058,-2.64462,0.29113,0.80044
501.135,25.3398,-2.64616,0.28885,0.80001
501.735,25.35898,-2.64678,0.28982,0.79959
502.335,25.3782,-2.64787,0.28778,0.79916
502.935,25.3974,-2.6494,0.28958,0.79873
503.535,25.41666,-2.64935,0.28966,0.79831
504.135,25.43592,-2.64942,0.29046,0.79788
504.735,25.45514,-2.65069,0.29075,0.79745
505.335,25.47439,-2.65112,0.29063,0.79702
505.935,25.4936,-2.65231,0.29206,0.7966
506.535,25.51286,-2.65379,0.29215,0.79617
507.135,25.53213,-2.65449,0.29077,0.79574
507.735,25.5514,-2.65582,0.2906,0.79531
508.335,25.5706,-2.65658,0.29094,0.79489
508.935,25.58981,-2.65766,0.28919,0.79446
509.535,25.60904,-2.65901,0.29192,0.79403
510.135,25.62829,-2.65923,0.29333,0.7936
510.735,25.6476,-2.65964,0.29132,0.79317
511.335,25.6668,-2.66065,0.29163,0.79275
511.935,25.68604,-2.66168,0.29172,0.79232
512.535,25.70528,-2.66217,0.29255,0.79189
513.135,25.72459,-2.66353,0.29543,0.79146
513.735,25.7439,-2.66357,0.29182,0.79103
514.335,25.76314,-2.66522,0.2921,0.7906
514.935,25.7824,-2.66521,0.29413,0.79017
515.535,25.8017,-2.66672,0.2921,0.78975
516.135,25.82094,-2.66709,0.29241,0.78932
516.735,25.84025,-2.66811,0.29362,0.78889
517.335,25.8595,-2.66961,0.29314,0.78846
517.935,25.87876,-2.66987,0.29163,0.78803
518.535,25.89795,-2.67132,0.29151,0.7876
519.135,25.91723,-2.67254,0.29424,0.78717
519.735,25.9365,-2.67282,0.29378,0.78674
520.335,25.9558,-2.67392,0.29229,0.78631
520.935,25.97516,-2.67281,0.29498,0.78588
521.535,25.99448,-2.67326,0.2936,0.78545
522.135,26.0138,-2.67414,0.29552,0.78502
522.735,26.03311,-2.67413,0.2912,0.78459
523.335,26.05238,-2.6757,0.29374,0.78416
523.935,26.0716,-2.67588,0.29342,0.78373
524.535,26.09093,-2.677,0.29276,0.7833
525.135,26.11024,-2.67694,0.29229,0.78287
525.735,26.12959,-2.67836,0.29087,0.78244
526.335,26.14896,-2.67845,0.29119,0.78201
526.935,26.1683,-2.67983,0.29353,0.78158
527.535,26.18763,-2.68064,0.2938,0.78115
528.135,26.20695,-2.68139,0.2963,0.78072
528.735,26.22632,-2.68291,0.29497,0.78029
529.335,26.24567,-2.68343,0.29502,0.77986
529.935,26.26506,-2.68444,0.29411,0.77942
530.535,26.2844,-2.68443,0.29258,0.77899
531.135,26.30371,-2.68568,0.29143,0.77856
531.735,26.3231,-2.68572,0.29408,0.77813
532.335,26.3424,-2.68713,0.29128,0.7777
532.935,26.3618,-2.68708,0.29526,0.77727
533.535,26.38121,-2.68714,0.29455,0.77684
534.135,26.4006,-2.68861,0.29405,0.7764
534.735,26.42,-2.68972,0.29472,0.77597
535.335,26.43941,-2.69072,0.29424,0.77554
535.935,26.45877,-2.69165,0.29329,0.77511
536.535,26.47818,-2.69327,0.29716,0.77468
537.135,26.49758,-2.69323,0.29585,0.77424
537.735,26.51693,-2.69323,0.29646,0.77381
538.335,26.5365,-2.69318,0.29752,0.77338
538.935,26.5559,-2.69459,0.29374,0.77295
539.535,26.5753,-2.69451,0.29826,0.77251
540.135,26.5947,-2.69614,0.29633,0.77208
540.735,26.61403,-2.69647,0.29789,0.77165
541.335,26.63342,-2.69872,0.29751,0.77122
541.935,26.65284,-2.69915,0.29612,0.77078
542.535,26.6722,-2.69939,0.3003,0.77035
543.135,26.6916,-2.70047,0.30142,0.76992
543.735,26.71097,-2.69948,0.29995,0.76948
544.335,26.73037,-2.70048,0.29957,0.76905
544.935,26.7499,-2.70041,0.30148,0.76862
545.535,26.76943,-2.70085,0.30105,0.76818
546.135,26.78892,-2.70045,0.30353,0.76775
546.735,26.80844,-2.70159,0.30348,0.76732
547.335,26.82787,-2.70179,0.30614,0.76688
547.935,26.8473,-2.70178,0.3055,0.76645
548.535,26.86675,-2.7031,0.30811,0.76601
549.135,26.8862,-2.7031,0.31028,0.76558
549.735,26.9056,-2.70408,0.3103,0.76515
550.335,26.925,-2.70462,0.31446,0.76471
550.935,26.9445,-2.7059,0.31882,0.76428
551.535,26.9639,-2.70596,0.31665,0.76384
552.135,26.98335,-2.70594,0.31855,0.76341
552.735,27.0028,-2.70713,0.3196,0.76297
553.335,27.02208,-2.70727,0.32456,0.76254
553.935,27.04158,-2.70727,0.32345,0.76211
554.535,27.061,-2.70725,0.32237,0.76167
555.135,27.08062,-2.70861,0.32667,0.76124
555.735,27.1003,-2.70859,0.32726,0.7608
556.335,27.1198,-2.7089,0.32955,0.76037
556.935,27.1392,-2.7099,0.32908,0.75993
557.535,27.1586,-2.7099,0.32784,0.7595
558.135,27.178,-2.7099,0.33147,0.75906
558.735,27.1974,-2.7099,0.33059,0.75862
559.335,27.21684,-2.71018,0.3333,0.75819
559.935,27.23635,-2.71121,0.33123,0.75775
560.535,27.25575,-2.71121,0.33479,0.75732
561.135,27.27535,-2.71236,0.33749,0.75688
561.735,27.295,-2.71254,0.33799,0.75645
562.335,27.31452,-2.71254,0.33935,0.75601
562.935,27.33408,-2.71256,0.34121,0.75557
563.535,27.3536,-2.71385,0.3398,0.75514
564.135,27.3731,-2.71385,0.34,0.7547
564.735,27.39266,-2.71385,0.34754,0.75427
565.335,27.4122,-2.71437,0.34784,0.75383
565.935,27.4317,-2.71516,0.34534,0.75339
566.535,27.45112,-2.71517,0.34657,0.75296
567.135,27.4707,-2.71515,0.34921,0.75252
567.735,27.4902,-2.71639,0.34833,0.75208
568.335,27.5097,-2.71649,0.35015,0.75165
568.935,27.5294,-2.71657,0.35089,0.75121
569.535,27.5489,-2.71782,0.35282,0.75077
570.135,27.5684,-2.7178,0.34807,0.75034
570.735,27.588,-2.7178,0.35059,0.7499
571.335,27.6075,-2.7178,0.35393,0.74946
571.935,27.627,-2.71881,0.35295,0.74903
572.535,27.64651,-2.71912,0.35488,0.74859
573.135,27.66603,-2.71783,0.35098,0.74815
573.735,27.68562,-2.7178,0.35363,0.74771
574.335,27.70516,-2.7178,0.3537,0.74728
574.935,27.7247,-2.7186,0.3562,0.74684
575.535,27.74427,-2.71911,0.35328,0.7464
576.135,27.76388,-2.71912,0.35485,0.74596
576.735,27.7835,-2.71973,0.35501,0.74552
577.335,27.80307,-2.7218,0.35602,0.74509
577.935,27.82258,-2.72175,0.35646,0.74465
578.535,27.8422,-2.72175,0.35511,0.74421
579.135,27.8617,-2.72175,0.35737,0.74377
579.735,27.8812,-2.7217,0.35644,0.74333
580.335,27.90076,-2.72177,0.35557,0.7429
580.935,27.92039,-2.72175,0.35491,0.74246
581.535,27.94,-2.72175,0.35415,0.74202
582.135,27.9596,-2.72175,0.35551,0.74158
582.735,27.9793,-2.72176,0.35628,0.74114
583.335,27.99894,-2.723,0.35384,0.7407
583.935,28.0185,-2.72306,0.35538,0.74026
584.535,28.0381,-2.72306,0.35574,0.73983
585.135,28.0577,-2.72344,0.3565,0.73939
585.735,28.0773,-2.72437,0.35603,0.73895
586.335,28.0969,-2.72436,0.35566,0.73851
586.935,28.1166,-2.72559,0.35414,0.73807
587.535,28.13622,-2.7257,0.35659,0.73763
588.135,28.1558,-2.7257,0.35527,0.73719
588.735,28.1754,-2.7257,0.35424,0.73675
589.335,28.195,-2.7257,0.3524,0.73631
589.935,28.21466,-2.72614,0.35464,0.73587
590.535,28.23419,-2.72701,0.35359,0.73543
591.135,28.25365,-2.72701,0.35225,0.73499
591.735,28.2731,-2.72701,0.3532,0.73455
592.335,28.29275,-2.72699,0.35278,0.73411
592.935,28.3126,-2.72834,0.35265,0.73367
593.535,28.33245,-2.72833,0.35161,0.73323
594.135,28.3522,-2.72834,0.35209,0.73279
594.735,28.3719,-2.72955,0.35224,0.73235
595.335,28.3915,-2.72964,0.35194,0.73191
595.935,28.411,-2.72959,0.35107,0.73147
596.535,28.43065,-2.731,0.35342,0.73103
597.135,28.4503,-2.73095,0.34976,0.73059
597.735,28.46997,-2.73125,0.3481,0.73015
598.335,28.4898,-2.73195,0.34944,0.72971
598.935,28.5094,-2.73195,0.3514,0.72927
599.535,28.52915,-2.73195,0.35011,0.72883
600.135,28.54883,-2.73195,0.34754,0.72839
600.735,28.5685,-2.73195,0.34775,0.72795
601.335,28.58816,-2.73199,0.34439,0.72751
601.935,28.60782,-2.73327,0.34499,0.72707
602.535,28.6275,-2.73326,0.34581,0.72662
603.135,28.6472,-2.73326,0.34151,0.72618
603.735,28.6669,-2.73326,0.34491,0.72574
604.335,28.6865,-2.73458,0.34367,0.7253
604.935,28.706,-2.73556,0.34401,0.72486
605.535,28.7256,-2.73557,0.34133,0.72442
606.135,28.7453,-2.73553,0.34155,0.72398
606.735,28.7651,-2.73691,0.3446,0.72353
607.335,28.78489,-2.73689,0.33903,0.72309
607.935,28.8046,-2.73706,0.33969,0.72265
608.535,28.8243,-2.73821,0.34078,0.72221
609.135,28.844,-2.7382,0.33818,0.72177
609.735,28.86373,-2.7382,0.33703,0.72132
610.335,28.8835,-2.7382,0.3393,0.72088
610.935,28.9032,-2.73845,0.33769,0.72044
611.535,28.92288,-2.73951,0.337,0.72
612.135,28.9426,-2.73952,0.339,0.71956
612.735,28.9623,-2.73952,0.33659,0.71911
613.335,28.98197,-2.739,0.33225,0.71867
613.935,29.0017,-2.7382,0.33358,0.71823
614.535,29.0214,-2.7382,0.33671,0.71779
615.135,29.0411,-2.73819,0.33318,0.71734
615.735,29.0609,-2.73926,0.33071,0.7169
616.335,29.08057,-2.73952,0.33232,0.71646
616.935,29.10022,-2.73952,0.33465,0.71601
617.535,29.11995,-2.74083,0.32831,0.71557
618.135,29.13968,-2.74083,0.3281,0.71513
618.735,29.1594,-2.74084,0.32945,0.71469
619.335,29.1792,-2.7408,0.32548,0.71424
619.935,29.19895,-2.74083,0.32602,0.7138
620.535,29.2187,-2.74083,0.32771,0.71336
621.135,29.23848,-2.74083,0.32648,0.71291
621.735,29.25824,-2.74083,0.32609,0.71247
622.335,29.27795,-2.74082,0.32891,0.71203
622.935,29.2977,-2.74045,0.3266,0.71158
623.535,29.31744,-2.74083,0.32643,0.71114
624.135,29.33714,-2.74084,0.32333,0.7107
624.735,29.35687,-2.74084,0.32388,0.71025
625.335,29.3765,-2.74078,0.32129,0.70981
625.935,29.39625,-2.74147,0.3214,0.70936
626.535,29.41599,-2.7415,0.32473,0.70892
627.135,29.43566,-2.74243,0.32505,0.70848
627.735,29.4553,-2.7428,0.32655,0.70803
628.335,29.47508,-2.7428,0.32131,0.70759
628.935,29.4948,-2.7428,0.31968,0.70714
629.535,29.51468,-2.7428,0.31731,0.7067
630.135,29.53446,-2.74282,0.31896,0.70625
630.735,29.5542,-2.74413,0.32125,0.70581
631.335,29.574,-2.74412,0.31918,0.70537
631.935,29.5937,-2.74478,0.31711,0.70492
632.535,29.6134,-2.7461,0.31635,0.70448
633.135,29.63314,-2.7461,0.31897,0.70403
633.735,29.65288,-2.7461,0.31734,0.70359
634.335,29.67268,-2.7461,0.3177,0.70314
634.935,29.6925,-2.7461,0.3163,0.7027
635.535,29.71237,-2.74611,0.3158,0.70225
636.135,29.73215,-2.74483,0.31228,0.70181
636.735,29.75191,-2.74601,0.31761,0.70136
637.335,29.77168,-2.7461,0.31453,0.70092
637.935,29.7914,-2.7461,0.31667,0.70047
638.535,29.81118,-2.7461,0.31464,0.70003
639.135,29.83095,-2.7461,0.31081,0.69958
639.735,29.85075,-2.7461,0.31117,0.69914
640.335,29.87043,-2.7461,0.31417,0.69869
640.935,29.89015,-2.74608,0.30741,0.69825
641.535,29.90989,-2.74731,0.30904,0.6978
642.135,29.92962,-2.74742,0.30948,0.69735
642.735,29.94955,-2.74681,0.30756,0.69691
643.335,29.96937,-2.74612,0.30509,0.69646
643.935,29.9892,-2.74707,0.30372,0.69602
644.535,30.00915,-2.74741,0.30097,0.69557
645.135,30.02903,-2.74747,0.3023,0.69513
645.735,30.0488,-2.74875,0.29995,0.69468
646.335,30.0687,-2.74873,0.29993,0.69423
646.935,30.08837,-2.74873,0.29744,0.69379
647.535,30.10809,-2.74874,0.2971,0.69334
648.135,30.1277,-2.74948,0.29798,0.6929
648.735,30.1475,-2.74971,0.29368,0.69245
649.335,30.16733,-2.75005,0.29326,0.692
649.935,30.1872,-2.75005,0.29088,0.69156
650.535,30.2071,-2.75004,0.29045,0.69111
651.135,30.22692,-2.75138,0.29099,0.69066
651.735,30.24672,-2.75005,0.28987,0.69022
652.335,30.2665,-2.75005,0.28945,0.68977
652.935,30.2863,-2.75065,0.28988,0.68932
653.535,30.3061,-2.75136,0.28612,0.68888
654.135,30.3259,-2.75136,0.28971,0.68843
654.735,30.34579,-2.75136,0.28707,0.68798
655.335,30.36563,-2.75136,0.28528,0.68754
655.935,30.38542,-2.75137,0.28569,0.68709
656.535,30.40522,-2.75259,0.28419,0.68664
657.135,30.42502,-2.75268,0.28522,0.68619
657.735,30.44486,-2.75312,0.28392,0.68575
658.335,30.46475,-2.75399,0.28075,0.6853
658.935,30.4846,-2.754,0.28271,0.68485
659.535,30.50447,-2.754,0.2846,0.68441
660.135,30.52437,-2.75399,0.28097,0.68396
660.735,30.5442,-2.75443,0.28005,0.68351
661.335,30.56411,-2.75461,0.28172,0.68306
661.935,30.584,-2.75601,0.28292,0.68262
662.535,30.6038,-2.75597,0.28142,0.68217
663.135,30.62361,-2.75597,0.27679,0.68172
663.735,30.6434,-2.75597,0.27868,0.68127
664.335,30.66323,-2.75597,0.27634,0.68083
664.935,30.683,-2.75588,0.2771,0.68038
665.535,30.70283,-2.75459,0.27759,0.67993
666.135,30.72263,-2.75602,0.27577,0.67948
666.735,30.7424,-2.75597,0.2785,0.67903
667.335,30.76228,-2.75597,0.27551,0.67859
667.935,30.7822,-2.75597,0.27785,0.67814
668.535,30.8021,-2.75602,0.27476,0.67769
669.135,30.8219,-2.7573,0.27601,0.67724
669.735,30.84173,-2.75725,0.27376,0.67679
670.335,30.8615,-2.75864,0.27351,0.67634
670.935,30.8813,-2.75861,0.27443,0.6759
671.535,30.90115,-2.75753,0.27524,0.67545
672.135,30.921,-2.75729,0.27158,0.675
672.735,30.94087,-2.75729,0.27096,0.67455
673.335,30.9607,-2.75729,0.26935,0.6741
673.935,30.9806,-2.75729,0.27259,0.67365
674.535,31.0005,-2.75729,0.27225,0.6732
675.135,31.02034,-2.75765,0.27001,0.67276
675.735,31.0401,-2.75861,0.26956,0.67231
676.335,31.06,-2.75894,0.2686,0.67186
676.935,31.07978,-2.75894,0.2685,0.67141
677.535,31.0995,-2.75894,0.26831,0.67096
678.135,31.11942,-2.75894,0.26728,0.67051
678.735,31.13921,-2.75893,0.26677,0.67006
679.335,31.15905,-2.76023,0.27018,0.66961
679.935,31.17895,-2.76025,0.26467,0.66916
680.535,31.19875,-2.76025,0.26522,0.66871
681.135,31.21862,-2.76025,0.26329,0.66827
681.735,31.23845,-2.76025,0.2649,0.66782
682.335,31.2583,-2.76025,0.26699,0.66737
682.935,31.2781,-2.76025,0.26322,0.66692
683.535,31.29802,-2.76026,0.2667,0.66647
684.135,31.318,-2.76084,0.26264,0.66602
684.735,31.33789,-2.76093,0.26248,0.66557
685.335,31.35769,-2.76162,0.26278,0.66512
685.935,31.37752,-2.76157,0.26155,0.66467
686.535,31.39736,-2.76157,0.26358,0.66422
687.135,31.41725,-2.76157,0.26134,0.66377
687.735,31.43712,-2.76157,0.26213,0.66332
688.335,31.45699,-2.76157,0.25955,0.66287
688.935,31.4769,-2.76158,0.26041,0.66242
689.535,31.4967,-2.76262,0.26042,0.66197
690.135,31.51659,-2.76288,0.2602,0.66152
690.735,31.5365,-2.76288,0.26141,0.66107
691.335,31.55633,-2.76288,0.26137,0.66062
691.935,31.5762,-2.76349,0.26322,0.66017
692.535,31.596,-2.7642,0.26245,0.65972
693.135,31.6159,-2.76477,0.26268,0.65927
693.735,31.63578,-2.76561,0.26194,0.65882
694.335,31.6556,-2.76681,0.26197,0.65837
694.935,31.6753,-2.76705,0.26042,0.65792
695.535,31.6951,-2.76706,0.25599,0.65747
696.135,31.71497,-2.76592,0.25925,0.65702
696.735,31.73503,-2.76607,0.25687,0.65657
697.335,31.75495,-2.76548,0.25645,0.65612
697.935,31.77488,-2.76553,0.25549,0.65567
698.535,31.79477,-2.76415,0.25567,0.65522
699.135,31.8147,-2.76419,0.25666,0.65477
699.735,31.8347,-2.7642,0.25752,0.65432
700.335,31.85463,-2.76501,0.25747,0.65386
700.935,31.8746,-2.76551,0.25617,0.65341
701.535,31.89443,-2.76551,0.25474,0.65296
702.135,31.91429,-2.76549,0.25445,0.65251
702.735,31.93422,-2.76651,0.25855,0.65206
703.335,31.95409,-2.7665,0.25635,0.65161
703.935,31.97403,-2.7665,0.25558,0.65116
704.535,31.99395,-2.7665,0.25466,0.65071
705.135,32.01383,-2.7665,0.25489,0.65026
705.735,32.03372,-2.7665,0.25606,0.64981
706.335,32.05362,-2.7665,0.2597,0.64936
706.935,32.07353,-2.7665,0.25663,0.6489
707.535,32.09346,-2.7665,0.25568,0.64845
708.135,32.1134,-2.7675,0.25874,0.648
708.735,32.13327,-2.76782,0.2557,0.64755
709.335,32.15314,-2.76782,0.25413,0.6471
709.935,32.17309,-2.76782,0.25484,0.64665
710.535,32.19307,-2.76782,0.25225,0.6462
711.135,32.21318,-2.76782,0.25201,0.64574
711.735,32.23314,-2.76782,0.25281,0.64529
712.335,32.25308,-2.76782,0.25093,0.64484
712.935,32.27303,-2.76782,0.25031,0.64439
713.535,32.29291,-2.76782,0.25305,0.64394
714.135,32.31286,-2.76811,0.25325,0.64349
714.735,32.33282,-2.76913,0.25088,0.64303
715.335,32.35275,-2.76911,0.24933,0.64258
715.935,32.3728,-2.76946,0.2493,0.64213
716.535,32.39281,-2.76946,0.24905,0.64168
717.135,32.41277,-2.76946,0.24698,0.64123
717.735,32.4328,-2.76946,0.24961,0.64078
718.335,32.45281,-2.76979,0.24594,0.64032
718.935,32.4728,-2.76979,0.24717,0.63987
719.535,32.49276,-2.76979,0.2481,0.63942
720.135,32.51273,-2.76977,0.25053,0.63897
720.735,32.53264,-2.77112,0.24857,0.63852
721.335,32.55267,-2.77111,0.2447,0.63806
721.935,32.57264,-2.77111,0.24827,0.63761
722.535,32.59265,-2.77204,0.2455,0.63716
723.135,32.61267,-2.77245,0.24821,0.63671
723.735,32.6327,-2.7711,0.24631,0.63626
724.335,32.65274,-2.77111,0.24864,0.6358
724.935,32.67269,-2.77111,0.24858,0.63535
725.535,32.69271,-2.77109,0.24671,0.6349
726.135,32.71275,-2.77243,0.24419,0.63445
726.735,32.7327,-2.77242,0.24657,0.63399
727.335,32.7528,-2.77242,0.24419,0.63354
727.935,32.7728,-2.77242,0.24564,0.63309
728.535,32.79288,-2.77242,0.24459,0.63264
729.135,32.81301,-2.77242,0.24477,0.63218
729.735,32.83302,-2.77242,0.24032,0.63173
730.335,32.85306,-2.77304,0.24236,0.63128
730.935,32.87301,-2.77505,0.24223,0.63083
731.535,32.89301,-2.77506,0.24181,0.63037
732.135,32.913,-2.77505,0.2446,0.62992
732.735,32.933,-2.77636,0.24103,0.62947
733.335,32.95293,-2.77637,0.23958,0.62902
733.935,32.9728,-2.77637,0.24009,0.62856
734.535,32.99289,-2.77637,0.24159,0.62811
735.135,33.01294,-2.77637,0.24018,0.62766
735.735,33.03322,-2.77637,0.24182,0.6272
736.335,33.05335,-2.77637,0.23624,0.62675
736.935,33.07338,-2.77637,0.24214,0.6263
737.535,33.09343,-2.77637,0.24233,0.62585
738.135,33.1136,-2.77738,0.24158,0.62539
738.735,33.13367,-2.77769,0.2436,0.62494
739.335,33.15371,-2.77769,0.24108,0.62449
739.935,33.1738,-2.77769,0.24136,0.62403
740.535,33.19386,-2.77769,0.23864,0.62358
741.135,33.21389,-2.77841,0.24181,0.62313
741.735,33.234,-2.77901,0.24272,0.62267
742.335,33.25407,-2.77795,0.24202,0.62222
742.935,33.27411,-2.77769,0.24028,0.62177
743.535,33.2941,-2.77769,0.23892,0.62131
744.135,33.31414,-2.77769,0.24063,0.62086
744.635,33.33103,-2.77769,0.24378,0.62048