File: 01_Data/Cedar_Shingle/MCC/Cedar_Single_MCC_30K_min_211214_R2.txt
Sample ID:	C:\MCC\MCC Cal\Test\Cedar_Single_MCC_30K_min_211214_R2.txt
Sample Weight (mg):	4.62
Heating Rate (C/s):	0.5
Combustor Temp (C):	900
N2 Flow Rate (cc/min):	80
O2 Flow Rate (cc/min):	20
Calibration File:	C:\MCC\MCC Cal\Coeff1 JN10440_30_210304.txt.txt
T Correction Coefficients:	0	1.024463	0
Time Shift (s):	14
*
Time (s)	Temperature (C)	N2 flow rate (cc/min)	O2 flow rate (cc/min)	Flow Rate (cc/min)	Oxygen (%)	HRR (W/g)	Heating rate (C/s)
0.000	109.093	80.006	19.997	103.002	19.867	0.009	-0.025
2.000	109.142	80.003	19.996	103.013	19.867	0.006	0.001
4.000	109.080	80.003	19.995	103.010	19.868	0.000	-0.019
6.000	109.127	80.004	19.995	103.006	19.868	-0.050	0.021
8.000	109.110	80.003	19.996	103.009	19.863	0.310	-0.034
10.000	109.105	80.003	19.995	103.013	19.866	0.115	0.004
12.000	109.128	80.003	19.996	103.032	19.859	0.578	-0.017
14.001	109.108	80.004	19.995	103.050	19.861	0.451	-0.022
16.000	109.153	80.003	19.996	103.061	19.858	0.655	0.012
18.000	109.192	80.003	19.996	103.087	19.854	0.946	0.013
20.000	109.248	80.004	19.995	103.091	19.852	1.087	0.015
22.000	109.340	80.006	19.995	103.108	19.850	1.254	0.019
24.000	109.449	80.006	19.996	103.131	19.845	1.570	0.089
26.000	109.536	80.004	19.994	103.160	19.839	1.962	0.030
28.000	109.732	80.004	19.995	103.173	19.835	2.239	0.080
30.000	109.946	80.004	19.995	103.182	19.834	2.350	0.114
32.000	110.150	80.004	19.995	103.204	19.828	2.729	0.092
34.000	110.391	80.004	19.994	103.220	19.827	2.796	0.102
36.000	110.730	80.004	19.995	103.234	19.827	2.811	0.162
38.001	111.034	80.005	19.994	103.244	19.822	3.145	0.136
40.001	111.412	80.006	19.995	103.244	19.823	3.139	0.181
42.001	111.800	80.006	19.994	103.249	19.819	3.372	0.204
44.001	112.196	80.005	19.994	103.259	19.820	3.313	0.216
46.001	112.692	80.005	19.995	103.245	19.819	3.378	0.243
48.001	113.155	80.006	19.993	103.257	19.817	3.497	0.245
50.000	113.679	80.005	19.995	103.264	19.815	3.692	0.277
52.000	114.177	80.006	19.994	103.273	19.815	3.632	0.232
54.000	114.747	80.005	19.994	103.282	19.812	3.874	0.269
56.000	115.308	80.005	19.993	103.285	19.813	3.822	0.264
58.001	115.924	80.006	19.993	103.286	19.814	3.742	0.306
60.000	116.566	80.006	19.993	103.285	19.807	4.219	0.324
62.000	117.222	80.005	19.994	103.283	19.814	3.762	0.342
64.000	117.880	80.007	19.994	103.284	19.813	3.783	0.332
66.000	118.627	80.005	19.993	103.284	19.809	4.113	0.378
68.000	119.268	80.006	19.994	103.286	19.810	4.006	0.318
70.000	120.051	80.007	19.993	103.283	19.811	3.920	0.359
72.000	120.783	80.007	19.993	103.284	19.814	3.751	0.419
74.001	121.532	80.006	19.996	103.284	19.812	3.901	0.341
76.000	122.335	80.004	19.995	103.284	19.812	3.877	0.381
78.000	123.175	80.005	19.996	103.285	19.814	3.727	0.428
80.000	123.952	80.003	19.996	103.286	19.811	3.940	0.387
82.000	124.779	80.004	19.996	103.283	19.812	3.861	0.445
84.001	125.583	80.004	19.994	103.282	19.814	3.736	0.402
86.001	126.452	80.005	19.995	103.282	19.813	3.818	0.439
88.001	127.304	80.004	19.994	103.278	19.809	4.056	0.400
90.000	128.169	80.005	19.995	103.281	19.811	3.940	0.450
92.000	129.091	80.004	19.996	103.284	19.812	3.896	0.462
94.000	129.953	80.003	19.996	103.282	19.811	3.961	0.443
96.000	130.864	80.003	19.995	103.282	19.810	4.016	0.458
98.000	131.783	80.004	19.995	103.281	19.809	4.100	0.445
100.000	132.648	80.004	19.995	103.281	19.808	4.178	0.448
102.000	133.568	80.005	19.995	103.280	19.807	4.254	0.459
104.000	134.510	80.005	19.995	103.283	19.809	4.076	0.491
106.000	135.463	80.004	19.996	103.278	19.807	4.252	0.507
108.001	136.370	80.003	19.995	103.280	19.810	4.020	0.482
110.001	137.325	80.004	19.996	103.281	19.807	4.215	0.468
112.000	138.275	80.004	19.996	103.282	19.804	4.401	0.454
114.000	139.237	80.004	19.995	103.282	19.806	4.306	0.448
116.000	140.197	80.003	19.995	103.282	19.807	4.251	0.463
118.000	141.245	80.004	19.995	103.284	19.811	3.952	0.512
120.000	142.199	80.005	19.995	103.285	19.808	4.122	0.467
122.000	143.234	80.004	19.994	103.284	19.807	4.221	0.523
124.000	144.255	80.006	19.994	103.283	19.806	4.269	0.533
126.000	145.256	80.006	19.994	103.284	19.807	4.205	0.502
128.000	146.268	80.007	19.995	103.283	19.803	4.529	0.520
130.000	147.302	80.005	19.994	103.281	19.805	4.378	0.506
132.000	148.343	80.005	19.996	103.274	19.802	4.543	0.535
134.000	149.364	80.005	19.995	103.280	19.804	4.467	0.514
136.000	150.366	80.005	19.995	103.272	19.805	4.368	0.524
138.000	151.386	80.006	19.996	103.271	19.802	4.544	0.512
140.000	152.432	80.005	19.994	103.269	19.805	4.383	0.509
142.000	153.417	80.005	19.993	103.264	19.802	4.557	0.484
144.000	154.464	80.005	19.995	103.261	19.804	4.457	0.523
146.000	155.483	80.006	19.994	103.253	19.800	4.693	0.523
148.000	156.509	80.008	19.994	103.249	19.804	4.427	0.524
150.000	157.519	80.007	19.993	103.244	19.801	4.626	0.491
152.000	158.557	80.008	19.994	103.247	19.799	4.754	0.525
154.000	159.565	80.007	19.994	103.248	19.798	4.858	0.503
156.000	160.558	80.006	19.996	103.246	19.797	4.919	0.489
158.000	161.632	80.009	19.995	103.246	19.798	4.865	0.505
160.000	162.618	80.006	19.994	103.243	19.802	4.568	0.518
162.001	163.662	80.006	19.994	103.242	19.800	4.719	0.523
164.000	164.700	80.003	19.993	103.243	19.798	4.875	0.511
166.000	165.670	80.003	19.995	103.243	19.798	4.862	0.483
168.000	166.717	80.005	19.995	103.243	19.797	4.891	0.518
170.000	167.722	80.004	19.996	103.240	19.796	4.960	0.502
172.000	168.704	80.004	19.996	103.238	19.798	4.874	0.488
174.000	169.776	80.006	19.995	103.243	19.794	5.097	0.516
176.000	170.744	80.006	19.994	103.243	19.795	5.038	0.480
178.000	171.729	80.005	19.994	103.240	19.792	5.264	0.503
180.000	172.740	80.005	19.994	103.238	19.792	5.279	0.511
182.000	173.725	80.004	19.993	103.244	19.793	5.231	0.493
184.001	174.702	80.004	19.995	103.240	19.792	5.271	0.460
186.000	175.720	80.005	19.995	103.235	19.793	5.174	0.526
188.000	176.701	80.003	19.994	103.238	19.791	5.366	0.491
190.000	177.688	80.003	19.995	103.236	19.792	5.284	0.508
192.000	178.651	80.003	19.994	103.237	19.791	5.370	0.491
194.000	179.668	80.003	19.995	103.231	19.793	5.174	0.506
196.000	180.628	80.004	19.996	103.233	19.791	5.314	0.500
198.000	181.617	80.002	19.996	103.227	19.791	5.303	0.478
200.000	182.629	80.003	19.996	103.235	19.794	5.124	0.523
202.000	183.576	80.004	19.995	103.228	19.790	5.432	0.496
204.000	184.581	80.004	19.995	103.238	19.792	5.241	0.495
206.000	185.604	80.004	19.995	103.224	19.792	5.249	0.517
208.000	186.600	80.006	19.994	103.241	19.788	5.521	0.503
210.000	187.601	80.006	19.994	103.225	19.787	5.604	0.506
212.000	188.572	80.008	19.995	103.217	19.791	5.326	0.470
214.000	189.594	80.006	19.994	103.227	19.790	5.432	0.537
216.000	190.543	80.006	19.993	103.219	19.788	5.536	0.484
218.000	191.561	80.007	19.994	103.220	19.787	5.614	0.505
220.000	192.542	80.005	19.994	103.206	19.787	5.597	0.499
222.000	193.487	80.004	19.993	103.212	19.783	5.910	0.466
224.000	194.518	80.005	19.994	103.211	19.785	5.781	0.501
226.000	195.485	80.006	19.994	103.214	19.785	5.764	0.513
228.000	196.500	80.006	19.994	103.214	19.782	5.959	0.493
230.000	197.448	80.006	19.994	103.213	19.782	5.940	0.478
232.000	198.385	80.007	19.994	103.210	19.779	6.187	0.472
234.000	199.420	80.008	19.993	103.213	19.775	6.435	0.485
236.000	200.377	80.008	19.993	103.212	19.776	6.374	0.508
238.000	201.394	80.006	19.994	103.211	19.774	6.508	0.500
240.000	202.380	80.007	19.994	103.213	19.772	6.673	0.496
242.000	203.322	80.006	19.995	103.209	19.772	6.636	0.486
244.000	204.335	80.005	19.994	103.209	19.769	6.875	0.487
246.000	205.297	80.006	19.994	103.207	19.767	7.018	0.499
248.000	206.281	80.005	19.993	103.210	19.766	7.110	0.487
250.000	207.281	80.005	19.994	103.211	19.763	7.254	0.478
252.000	208.283	80.006	19.993	103.211	19.762	7.363	0.495
254.000	209.242	80.005	19.994	103.210	19.763	7.293	0.497
256.000	210.251	80.004	19.994	103.214	19.761	7.416	0.501
258.000	211.245	80.005	19.995	103.216	19.757	7.686	0.491
260.000	212.210	80.006	19.995	103.220	19.756	7.779	0.491
262.001	213.220	80.005	19.995	103.211	19.753	8.003	0.512
264.000	214.190	80.004	19.994	103.210	19.754	7.950	0.503
266.000	215.225	80.006	19.996	103.215	19.751	8.118	0.504
268.000	216.202	80.003	19.994	103.213	19.746	8.476	0.506
270.000	217.221	80.003	19.995	103.212	19.746	8.458	0.485
272.000	218.174	80.004	19.994	103.211	19.745	8.575	0.491
274.000	219.159	80.004	19.994	103.208	19.741	8.829	0.464
276.000	220.122	80.004	19.994	103.211	19.738	9.024	0.487
278.000	221.141	80.004	19.996	103.206	19.739	8.965	0.528
280.001	222.098	80.004	19.995	103.210	19.741	8.831	0.490
282.000	223.069	80.005	19.995	103.209	19.738	9.009	0.472
284.000	224.088	80.006	19.995	103.207	19.740	8.874	0.465
286.000	225.085	80.005	19.995	103.205	19.737	9.072	0.469
288.000	226.047	80.006	19.995	103.211	19.730	9.582	0.477
290.000	227.031	80.005	19.996	103.206	19.731	9.492	0.486
292.000	228.065	80.007	19.996	103.204	19.729	9.666	0.520
294.000	229.124	80.007	19.996	103.209	19.729	9.635	0.545
296.000	230.103	80.006	19.996	103.204	19.727	9.829	0.500
298.000	231.116	80.006	19.995	103.204	19.724	10.019	0.464
300.000	232.102	80.006	19.995	103.212	19.722	10.179	0.478
302.000	233.118	80.005	19.994	103.208	19.721	10.197	0.503
304.000	234.094	80.006	19.994	103.213	19.719	10.334	0.507
306.000	235.069	80.006	19.994	103.209	19.719	10.373	0.475
308.000	236.078	80.007	19.993	103.210	19.719	10.380	0.513
310.000	237.067	80.005	19.994	103.218	19.719	10.368	0.512
312.000	238.085	80.006	19.994	103.214	19.714	10.680	0.519
314.000	239.086	80.006	19.993	103.212	19.707	11.167	0.497
316.000	240.096	80.005	19.994	103.216	19.709	11.066	0.522
318.000	241.090	80.007	19.995	103.226	19.707	11.166	0.548
320.000	242.060	80.008	19.994	103.214	19.705	11.353	0.512
322.000	243.092	80.005	19.995	103.221	19.703	11.505	0.523
324.000	244.100	80.005	19.994	103.233	19.701	11.624	0.495
326.000	245.046	80.004	19.994	103.215	19.699	11.730	0.499
328.000	246.070	80.002	19.994	103.220	19.697	11.892	0.516
330.000	247.041	80.004	19.994	103.232	19.697	11.892	0.508
332.000	248.070	80.003	19.995	103.224	19.695	12.017	0.522
334.000	249.063	80.004	19.993	103.236	19.691	12.317	0.483
336.000	250.081	80.003	19.994	103.219	19.689	12.469	0.510
338.000	251.116	80.004	19.993	103.235	19.687	12.559	0.522
340.000	252.173	80.005	19.993	103.223	19.684	12.815	0.526
342.000	253.115	80.005	19.994	103.234	19.682	12.937	0.486
344.000	254.137	80.005	19.995	103.242	19.681	12.977	0.483
346.000	255.119	80.005	19.995	103.233	19.678	13.225	0.477
348.000	256.132	80.005	19.994	103.236	19.674	13.497	0.495
350.000	257.145	80.005	19.994	103.240	19.673	13.528	0.497
352.000	258.158	80.006	19.994	103.233	19.667	13.968	0.506
354.000	259.146	80.005	19.994	103.237	19.669	13.834	0.494
356.000	260.142	80.004	19.994	103.235	19.666	14.022	0.509
358.000	261.168	80.005	19.994	103.237	19.663	14.228	0.535
360.000	262.144	80.004	19.996	103.227	19.660	14.503	0.489
362.000	263.134	80.004	19.994	103.229	19.659	14.566	0.493
364.000	264.122	80.005	19.994	103.241	19.658	14.633	0.504
366.000	265.144	80.004	19.995	103.242	19.652	14.999	0.492
368.000	266.131	80.007	19.995	103.243	19.649	15.234	0.511
370.000	267.136	80.006	19.994	103.242	19.648	15.320	0.490
372.000	268.198	80.005	19.994	103.241	19.646	15.468	0.527
374.000	269.139	80.006	19.995	103.242	19.640	15.868	0.486
376.000	270.157	80.005	19.994	103.243	19.638	15.978	0.497
378.000	271.193	80.005	19.996	103.244	19.633	16.374	0.516
380.000	272.189	80.004	19.996	103.244	19.631	16.461	0.529
382.000	273.180	80.005	19.996	103.244	19.630	16.541	0.504
384.000	274.173	80.003	19.995	103.245	19.628	16.692	0.515
386.000	275.196	80.004	19.995	103.244	19.621	17.173	0.481
388.000	276.177	80.004	19.995	103.253	19.619	17.320	0.510
390.000	277.165	80.005	19.994	103.252	19.616	17.571	0.501
392.000	278.194	80.007	19.995	103.251	19.610	17.937	0.528
394.000	279.172	80.007	19.994	103.248	19.608	18.084	0.471
396.000	280.214	80.008	19.994	103.247	19.605	18.303	0.512
398.000	281.190	80.007	19.993	103.247	19.603	18.454	0.480
400.000	282.207	80.006	19.994	103.248	19.596	18.933	0.492
402.000	283.219	80.006	19.994	103.259	19.591	19.284	0.499
404.000	284.177	80.005	19.995	103.256	19.588	19.513	0.462
406.000	285.223	80.005	19.994	103.257	19.585	19.697	0.464
408.000	286.231	80.005	19.994	103.254	19.576	20.311	0.485
410.000	287.209	80.004	19.995	103.250	19.574	20.485	0.514
412.000	288.226	80.005	19.994	103.258	19.568	20.865	0.491
414.000	289.202	80.005	19.993	103.266	19.564	21.193	0.514
416.000	290.193	80.004	19.993	103.255	19.559	21.523	0.511
418.000	291.239	80.004	19.993	103.265	19.552	21.984	0.515
420.001	292.243	80.006	19.995	103.265	19.546	22.397	0.505
422.000	293.222	80.005	19.994	103.270	19.543	22.629	0.474
424.000	294.224	80.005	19.994	103.278	19.538	22.954	0.491
426.000	295.268	80.005	19.993	103.280	19.530	23.560	0.511
428.000	296.237	80.004	19.994	103.277	19.526	23.855	0.510
430.000	297.276	80.005	19.994	103.282	19.520	24.263	0.523
432.000	298.272	80.004	19.995	103.282	19.512	24.776	0.508
434.000	299.269	80.004	19.994	103.283	19.506	25.186	0.483
436.000	300.292	80.004	19.996	103.283	19.499	25.726	0.515
438.000	301.306	80.004	19.997	103.289	19.493	26.155	0.521
440.000	302.307	80.004	19.997	103.298	19.484	26.782	0.504
442.000	303.286	80.004	19.996	103.294	19.475	27.371	0.458
444.000	304.328	80.004	19.995	103.290	19.464	28.170	0.502
446.000	305.383	80.005	19.995	103.294	19.460	28.431	0.497
448.000	306.396	80.006	19.995	103.298	19.448	29.247	0.498
450.000	307.420	80.005	19.996	103.293	19.438	29.996	0.516
452.000	308.452	80.006	19.996	103.304	19.433	30.320	0.551
454.000	309.420	80.006	19.996	103.306	19.420	31.219	0.512
456.000	310.430	80.006	19.995	103.317	19.412	31.782	0.519
458.000	311.455	80.006	19.995	103.321	19.403	32.428	0.515
460.000	312.505	80.006	19.994	103.322	19.392	33.171	0.542
462.000	313.491	80.005	19.995	103.324	19.383	33.797	0.506
464.000	314.496	80.006	19.995	103.325	19.372	34.598	0.533
466.000	315.548	80.006	19.996	103.325	19.361	35.360	0.543
468.000	316.503	80.006	19.995	103.325	19.350	36.142	0.502
470.000	317.545	80.006	19.995	103.325	19.342	36.677	0.514
472.000	318.538	80.006	19.994	103.322	19.333	37.274	0.510
474.000	319.529	80.007	19.995	103.324	19.319	38.320	0.482
476.000	320.567	80.007	19.995	103.331	19.311	38.842	0.495
478.000	321.580	80.007	19.996	103.345	19.300	39.632	0.533
480.000	322.565	80.008	19.995	103.335	19.291	40.261	0.503
482.001	323.555	80.007	19.996	103.349	19.282	40.871	0.492
484.000	324.557	80.006	19.995	103.348	19.271	41.642	0.528
486.000	325.568	80.004	19.996	103.349	19.261	42.362	0.536
488.000	326.562	80.004	19.995	103.353	19.254	42.817	0.483
490.000	327.591	80.004	19.994	103.358	19.243	43.564	0.487
492.000	328.587	80.005	19.994	103.360	19.231	44.432	0.507
494.000	329.613	80.005	19.995	103.360	19.224	44.956	0.525
496.001	330.633	80.004	19.996	103.360	19.215	45.538	0.503
498.000	331.622	80.004	19.996	103.361	19.206	46.208	0.510
500.000	332.643	80.006	19.994	103.361	19.195	46.938	0.500
502.000	333.635	80.005	19.995	103.361	19.188	47.424	0.493
504.000	334.699	80.004	19.994	103.367	19.176	48.274	0.538
506.000	335.701	80.004	19.996	103.371	19.168	48.862	0.508
508.000	336.703	80.005	19.994	103.366	19.159	49.447	0.483
510.000	337.718	80.005	19.994	103.363	19.151	49.996	0.523
512.000	338.683	80.005	19.994	103.369	19.141	50.715	0.507
514.000	339.728	80.005	19.995	103.370	19.132	51.330	0.516
516.000	340.708	80.005	19.994	103.370	19.123	51.962	0.497
518.000	341.707	80.006	19.993	103.369	19.116	52.512	0.501
520.000	342.734	80.004	19.994	103.371	19.108	53.012	0.505
522.000	343.716	80.005	19.994	103.381	19.097	53.829	0.475
524.000	344.736	80.003	19.994	103.389	19.087	54.536	0.526
526.000	345.752	80.004	19.993	103.394	19.077	55.209	0.482
528.000	346.750	80.004	19.995	103.397	19.069	55.787	0.501
530.000	347.733	80.005	19.994	103.397	19.059	56.442	0.481
532.000	348.753	80.007	19.994	103.403	19.046	57.361	0.510
534.000	349.775	80.006	19.995	103.401	19.039	57.868	0.522
536.000	350.818	80.007	19.995	103.404	19.027	58.719	0.523
538.000	351.800	80.006	19.995	103.401	19.019	59.264	0.506
540.000	352.864	80.005	19.995	103.409	19.004	60.308	0.544
542.000	353.892	80.005	19.995	103.422	18.994	61.023	0.529
544.000	354.902	80.006	19.995	103.431	18.979	62.089	0.524
546.000	355.905	80.005	19.995	103.436	18.970	62.696	0.515
548.000	356.951	80.005	19.994	103.437	18.957	63.573	0.505
550.000	357.927	80.006	19.994	103.437	18.946	64.399	0.495
552.000	358.970	80.007	19.996	103.433	18.934	65.237	0.516
554.000	359.989	80.006	19.995	103.443	18.922	66.053	0.509
556.000	361.010	80.008	19.995	103.446	18.910	66.858	0.513
558.000	362.012	80.008	19.996	103.440	18.899	67.679	0.481
560.000	363.031	80.008	19.996	103.437	18.889	68.384	0.509
562.000	364.017	80.006	19.995	103.437	18.878	69.104	0.496
564.000	365.035	80.007	19.996	103.439	18.868	69.842	0.516
566.000	366.064	80.005	19.995	103.446	18.859	70.472	0.487
568.000	367.093	80.004	19.996	103.443	18.852	70.924	0.536
570.000	368.101	80.004	19.996	103.440	18.847	71.265	0.499
572.000	369.093	80.003	19.997	103.439	18.846	71.334	0.513
574.000	370.074	80.004	19.996	103.439	18.842	71.610	0.499
576.000	371.044	80.004	19.995	103.439	18.843	71.514	0.468
578.000	372.097	80.003	19.995	103.438	18.848	71.188	0.495
580.000	373.117	80.004	19.994	103.434	18.855	70.671	0.528
582.000	374.105	80.004	19.994	103.417	18.865	69.945	0.486
584.000	375.133	80.004	19.994	103.406	18.876	69.191	0.473
586.000	376.160	80.005	19.994	103.401	18.894	67.930	0.505
588.000	377.204	80.005	19.994	103.389	18.910	66.813	0.515
590.000	378.168	80.005	19.994	103.374	18.932	65.241	0.482
592.000	379.252	80.004	19.995	103.361	18.954	63.690	0.521
594.000	380.230	80.004	19.994	103.340	18.981	61.830	0.512
596.000	381.282	80.004	19.994	103.325	19.010	59.773	0.534
598.000	382.292	80.005	19.994	103.317	19.045	57.345	0.501
600.000	383.336	80.004	19.994	103.290	19.079	54.970	0.558
602.000	384.318	80.006	19.993	103.282	19.117	52.294	0.502
604.000	385.329	80.006	19.994	103.268	19.155	49.682	0.479
606.000	386.345	80.005	19.994	103.248	19.193	46.991	0.498
608.000	387.371	80.005	19.996	103.235	19.237	43.922	0.502
610.000	388.403	80.006	19.995	103.218	19.278	41.059	0.527
612.000	389.406	80.006	19.995	103.206	19.319	38.188	0.533
614.000	390.440	80.006	19.995	103.204	19.360	35.389	0.508
616.000	391.452	80.007	19.994	103.193	19.398	32.731	0.497
618.000	392.458	80.005	19.995	103.182	19.437	29.996	0.516
620.000	393.479	80.007	19.995	103.175	19.465	28.010	0.485
622.000	394.529	80.007	19.993	103.164	19.499	25.676	0.508
624.000	395.570	80.007	19.993	103.165	19.530	23.540	0.530
626.000	396.570	80.006	19.995	103.162	19.556	21.702	0.486
628.000	397.590	80.007	19.995	103.161	19.582	19.865	0.510
630.000	398.633	80.006	19.994	103.156	19.601	18.541	0.525
632.000	399.658	80.005	19.996	103.145	19.619	17.329	0.506
634.000	400.659	80.006	19.995	103.152	19.634	16.292	0.505
636.000	401.646	80.006	19.994	103.153	19.646	15.439	0.492
638.000	402.723	80.005	19.995	103.145	19.657	14.670	0.520
640.000	403.769	80.007	19.993	103.152	19.665	14.107	0.533
642.000	404.767	80.007	19.995	103.154	19.676	13.364	0.512
644.000	405.783	80.006	19.994	103.150	19.680	13.086	0.515
646.000	406.789	80.007	19.994	103.147	19.680	13.041	0.503
648.000	407.828	80.006	19.995	103.135	19.688	12.502	0.522
650.000	408.822	80.005	19.995	103.141	19.692	12.232	0.499
652.000	409.852	80.006	19.994	103.139	19.696	11.954	0.493
654.000	410.875	80.004	19.995	103.135	19.696	11.975	0.501
656.000	411.913	80.005	19.994	103.143	19.700	11.703	0.517
658.000	412.933	80.003	19.995	103.140	19.701	11.594	0.512
660.000	413.868	80.004	19.995	103.139	19.705	11.337	0.461
662.000	414.920	80.003	19.995	103.146	19.705	11.336	0.528
664.000	415.874	80.004	19.995	103.147	19.709	11.075	0.523
666.000	416.883	80.005	19.995	103.144	19.711	10.914	0.487
668.000	417.903	80.003	19.997	103.141	19.712	10.827	0.506
670.000	418.961	80.005	19.996	103.138	19.715	10.638	0.532
672.000	419.927	80.004	19.996	103.134	19.710	10.957	0.513
674.000	421.001	80.006	19.994	103.137	19.716	10.569	0.523
676.000	421.997	80.005	19.996	103.128	19.715	10.609	0.529
678.000	422.981	80.004	19.994	103.127	19.722	10.166	0.478
680.000	424.030	80.004	19.996	103.130	19.723	10.083	0.513
682.000	425.029	80.005	19.995	103.132	19.719	10.334	0.489
684.000	426.053	80.006	19.994	103.128	19.719	10.380	0.528
686.000	427.051	80.004	19.995	103.131	19.727	9.814	0.510
688.000	428.096	80.005	19.994	103.138	19.727	9.812	0.523
690.000	429.111	80.006	19.994	103.133	19.730	9.553	0.534
692.000	430.118	80.006	19.995	103.131	19.731	9.490	0.470
694.000	431.150	80.006	19.994	103.131	19.731	9.490	0.522
696.000	432.123	80.006	19.993	103.131	19.734	9.332	0.464
698.000	433.162	80.005	19.995	103.129	19.736	9.148	0.517
700.000	434.207	80.005	19.993	103.129	19.736	9.129	0.525
702.000	435.248	80.006	19.994	103.129	19.740	8.861	0.507
704.000	436.291	80.006	19.995	103.130	19.744	8.606	0.513
706.000	437.266	80.006	19.993	103.130	19.742	8.763	0.516
708.000	438.297	80.006	19.994	103.128	19.740	8.867	0.521
710.000	439.328	80.004	19.993	103.130	19.743	8.680	0.508
712.000	440.360	80.005	19.994	103.135	19.744	8.619	0.512
714.000	441.366	80.005	19.993	103.132	19.744	8.615	0.503
716.000	442.380	80.006	19.994	103.132	19.746	8.433	0.489
718.000	443.412	80.007	19.993	103.135	19.748	8.295	0.520
720.000	444.418	80.007	19.993	103.131	19.750	8.169	0.499
722.000	445.448	80.006	19.993	103.134	19.753	7.951	0.523
724.000	446.442	80.007	19.994	103.134	19.756	7.786	0.506
726.000	447.478	80.006	19.995	103.130	19.759	7.537	0.504
728.000	448.479	80.007	19.994	103.126	19.759	7.563	0.507
730.000	449.520	80.006	19.995	103.127	19.759	7.576	0.515
732.000	450.520	80.003	19.995	103.126	19.760	7.463	0.501
734.000	451.516	80.004	19.994	103.128	19.761	7.418	0.500
736.000	452.590	80.004	19.995	103.126	19.765	7.129	0.520
738.000	453.641	80.003	19.995	103.126	19.766	7.053	0.538
740.000	454.623	80.004	19.996	103.126	19.771	6.734	0.467
742.000	455.664	80.004	19.995	103.126	19.771	6.720	0.521
744.000	456.653	80.004	19.994	103.125	19.771	6.745	0.482
746.001	457.688	80.005	19.995	103.126	19.770	6.784	0.485
748.000	458.720	80.004	19.995	103.129	19.772	6.632	0.515
750.000	459.760	80.005	19.995	103.126	19.775	6.441	0.527
752.000	460.764	80.006	19.994	103.127	19.779	6.137	0.482
754.000	461.799	80.004	19.995	103.126	19.779	6.193	0.516
756.000	462.834	80.004	19.995	103.125	19.780	6.106	0.515
758.000	463.797	80.004	19.996	103.126	19.778	6.221	0.503
760.000	464.816	80.003	19.996	103.125	19.782	5.952	0.501
762.000	465.871	80.003	19.996	103.126	19.781	6.045	0.505
764.000	466.900	80.002	19.994	103.127	19.783	5.909	0.530
766.000	467.946	80.003	19.996	103.129	19.784	5.789	0.513
768.000	468.972	80.002	19.995	103.129	19.788	5.555	0.508
770.000	470.002	80.004	19.994	103.129	19.788	5.546	0.527
772.000	470.990	80.004	19.993	103.127	19.789	5.444	0.494
774.000	472.050	80.003	19.995	103.130	19.789	5.464	0.514
776.000	473.042	80.004	19.995	103.130	19.787	5.581	0.492
778.000	474.122	80.004	19.994	103.129	19.793	5.192	0.522
780.000	475.190	80.007	19.993	103.129	19.792	5.273	0.513
782.000	476.212	80.005	19.993	103.129	19.795	5.080	0.543
784.000	477.223	80.005	19.994	103.130	19.792	5.245	0.495
786.000	478.303	80.005	19.994	103.130	19.797	4.917	0.543
788.000	479.349	80.004	19.994	103.131	19.796	5.005	0.530
790.000	480.375	80.005	19.995	103.130	19.798	4.852	0.521
792.000	481.378	80.003	19.994	103.129	19.798	4.826	0.536
794.000	482.436	80.005	19.995	103.122	19.799	4.784	0.521
796.000	483.441	80.005	19.993	103.128	19.798	4.871	0.492
798.000	484.502	80.006	19.994	103.130	19.798	4.823	0.522
800.000	485.565	80.006	19.994	103.130	19.799	4.796	0.503
802.000	486.589	80.007	19.994	103.126	19.798	4.848	0.499
804.000	487.598	80.008	19.993	103.127	19.799	4.800	0.508
806.000	488.688	80.006	19.994	103.123	19.801	4.668	0.506
808.000	489.731	80.007	19.994	103.125	19.802	4.593	0.527
810.000	490.757	80.005	19.994	103.123	19.803	4.526	0.529
812.000	491.753	80.006	19.993	103.121	19.803	4.472	0.516
814.000	492.798	80.004	19.995	103.123	19.803	4.476	0.506
816.000	493.840	80.003	19.995	103.123	19.803	4.483	0.514
818.000	494.927	80.005	19.993	103.118	19.804	4.435	0.550
820.000	495.942	80.002	19.995	103.125	19.807	4.252	0.511
822.000	497.009	80.004	19.995	103.126	19.805	4.354	0.520
824.000	498.062	80.004	19.995	103.124	19.807	4.250	0.514
826.000	499.055	80.004	19.995	103.126	19.805	4.326	0.511
828.000	500.107	80.003	19.995	103.126	19.809	4.081	0.488
830.000	501.154	80.002	19.994	103.126	19.809	4.070	0.545
832.000	502.193	80.005	19.995	103.129	19.809	4.051	0.524
834.000	503.183	80.003	19.995	103.129	19.806	4.253	0.484
836.000	504.213	80.005	19.994	103.129	19.811	3.957	0.499
838.000	505.263	80.005	19.995	103.127	19.808	4.177	0.531
840.000	506.295	80.004	19.995	103.124	19.811	3.956	0.499
842.000	507.338	80.005	19.995	103.124	19.807	4.198	0.517
844.000	508.371	80.004	19.995	103.124	19.807	4.185	0.544
846.000	509.370	80.003	19.995	103.128	19.810	4.007	0.529
848.000	510.343	80.003	19.994	103.128	19.809	4.085	0.491
850.000	511.370	80.002	19.995	103.112	19.813	3.806	0.497
852.000	512.322	80.002	19.996	103.121	19.808	4.129	0.467
854.000	513.368	80.003	19.995	103.125	19.811	3.932	0.507
856.000	514.294	80.002	19.996	103.124	19.808	4.123	0.466
858.000	515.306	80.003	19.996	103.124	19.808	4.123	0.494
860.000	516.326	80.005	19.995	103.124	19.812	3.836	0.502
862.000	517.325	80.005	19.995	103.120	19.813	3.773	0.494
864.001	518.328	80.006	19.993	103.114	19.810	4.031	0.492
866.000	519.302	80.005	19.995	103.109	19.813	3.805	0.480
868.000	520.308	80.005	19.993	103.112	19.811	3.971	0.497
870.000	521.296	80.004	19.994	103.116	19.812	3.888	0.479
872.000	522.304	80.004	19.995	103.109	19.807	4.185	0.515
874.000	523.285	80.004	19.994	103.118	19.808	4.140	0.488
876.000	524.298	80.005	19.995	103.120	19.809	4.103	0.530
878.000	525.286	80.005	19.995	103.124	19.811	3.970	0.510
880.000	526.323	80.006	19.994	103.121	19.807	4.188	0.515
882.000	527.279	80.007	19.994	103.123	19.807	4.209	0.509
884.000	528.308	80.008	19.993	103.125	19.806	4.257	0.519
886.000	529.337	80.006	19.994	103.123	19.807	4.202	0.519
888.000	530.349	80.008	19.994	103.122	19.809	4.055	0.501
890.000	531.375	80.007	19.994	103.124	19.806	4.285	0.502
892.000	532.476	80.006	19.993	103.123	19.806	4.276	0.545
894.000	533.483	80.007	19.994	103.126	19.807	4.192	0.549
896.000	534.556	80.004	19.993	103.128	19.806	4.313	0.503
898.000	535.650	80.004	19.994	103.127	19.807	4.248	0.552
900.000	536.677	80.003	19.993	103.129	19.805	4.348	0.511
902.000	537.754	80.005	19.993	103.129	19.807	4.201	0.546
904.000	538.795	80.003	19.994	103.128	19.807	4.224	0.529
906.000	539.874	80.004	19.994	103.127	19.805	4.387	0.478
908.000	540.889	80.004	19.994	103.128	19.804	4.443	0.512
910.000	541.919	80.004	19.993	103.128	19.807	4.220	0.512
912.000	543.019	80.004	19.994	103.119	19.807	4.222	0.560
914.000	544.049	80.003	19.994	103.119	19.807	4.242	0.528
916.000	545.075	80.003	19.995	103.128	19.804	4.414	0.534
918.000	546.153	80.004	19.994	103.129	19.805	4.372	0.520
920.000	547.174	80.005	19.995	103.129	19.806	4.294	0.512
922.000	548.202	80.004	19.995	103.127	19.805	4.329	0.554
924.000	549.275	80.005	19.995	103.120	19.807	4.203	0.525
926.000	550.279	80.005	19.994	103.109	19.807	4.188	0.513
928.000	551.337	80.004	19.994	103.124	19.807	4.240	0.522
930.000	552.331	80.004	19.994	103.123	19.806	4.316	0.506
932.000	553.399	80.003	19.995	103.123	19.805	4.369	0.517
934.001	554.472	80.003	19.996	103.121	19.804	4.457	0.521
936.000	555.417	80.005	19.994	103.116	19.807	4.217	0.505
938.000	556.459	80.004	19.995	103.121	19.807	4.206	0.491
940.000	557.503	80.005	19.995	103.123	19.805	4.323	0.503
942.000	558.501	80.006	19.996	103.113	19.805	4.338	0.491
944.000	559.516	80.004	19.995	103.111	19.805	4.335	0.498
946.000	560.486	80.005	19.995	103.112	19.806	4.314	0.464
948.000	561.486	80.006	19.996	103.097	19.808	4.147	0.510
950.000	562.517	80.004	19.994	103.111	19.810	4.001	0.485
952.000	563.495	80.004	19.994	103.115	19.808	4.165	0.490
954.000	564.467	80.005	19.994	103.117	19.807	4.189	0.499
956.000	565.493	80.005	19.994	103.114	19.808	4.151	0.461
958.000	566.519	80.005	19.994	103.111	19.808	4.174	0.496
960.000	567.486	80.005	19.993	103.117	19.807	4.229	0.499
962.000	568.504	80.005	19.993	103.111	19.809	4.105	0.493
964.001	569.503	80.007	19.994	103.101	19.809	4.049	0.499
966.000	570.502	80.007	19.994	103.111	19.804	4.437	0.528
968.000	571.541	80.006	19.994	103.124	19.806	4.257	0.471
970.000	572.522	80.007	19.994	103.124	19.803	4.489	0.492
972.000	573.585	80.005	19.993	103.116	19.809	4.061	0.559
974.000	574.532	80.007	19.994	103.119	19.799	4.761	0.515
976.001	575.619	80.004	19.995	103.123	19.798	4.856	0.512
978.000	576.678	80.003	19.996	103.126	19.808	4.144	0.531
980.000	577.541	80.004	19.994	103.127	19.810	4.023	0.544
982.000	578.641	80.004	19.995	103.125	19.808	4.137	0.526
984.000	579.720	80.003	19.995	103.125	19.806	4.303	0.479
986.000	580.502	80.004	19.994	103.120	19.809	4.047	0.815
988.000	581.745	80.005	19.994	103.118	19.804	4.420	0.366
990.000	582.267	80.006	19.994	103.120	19.809	4.082	-0.211
992.000	584.106	80.005	19.994	103.124	19.804	4.408	1.149
994.000	584.948	80.005	19.994	103.115	19.806	4.301	0.347
996.000	585.950	80.005	19.994	103.106	19.808	4.132	0.585
998.000	586.786	80.005	19.994	103.125	19.808	4.139	0.447
1000.000	587.955	80.003	19.996	103.116	19.808	4.170	0.551
1002.000	588.830	80.004	19.995	103.113	19.805	4.330	0.569
1004.000	589.897	80.004	19.994	103.111	19.802	4.545	0.555
1006.000	590.901	80.005	19.994	103.106	19.807	4.215	0.489
1008.000	591.884	80.004	19.995	103.095	19.806	4.299	0.464
1010.000	592.950	80.003	19.995	103.104	19.806	4.303	0.510
1012.000	593.918	80.004	19.995	103.109	19.810	4.038	0.500
1014.000	594.921	80.004	19.995	103.101	19.809	4.084	0.459
1016.000	595.916	80.004	19.995	103.104	19.809	4.065	0.477
1018.000	596.967	80.005	19.995	103.105	19.806	4.265	0.529
1020.000	597.965	80.004	19.994	103.115	19.806	4.310	0.474
1022.000	598.959	80.005	19.994	103.116	19.804	4.422	0.509
1024.000	599.979	80.007	19.994	103.111	19.804	4.404	0.504
1026.000	600.992	80.006	19.996	103.112	19.807	4.193	0.528
1028.000	601.960	80.006	19.993	103.105	19.807	4.229	0.468
1030.001	602.936	80.005	19.994	103.101	19.808	4.125	0.480
1032.000	603.980	80.004	19.994	103.116	19.808	4.162	0.506
1034.000	604.960	80.005	19.994	103.105	19.807	4.217	0.512
1036.000	605.930	80.004	19.996	103.098	19.806	4.306	0.480
1038.000	607.002	80.004	19.996	103.117	19.807	4.182	0.499
1040.000	607.965	80.004	19.997	103.128	19.811	3.971	0.495
1042.000	608.993	80.003	19.996	103.114	19.809	4.064	0.490
1044.001	610.024	80.005	19.995	103.108	19.810	4.041	0.504
1046.001	611.017	80.005	19.995	103.103	19.808	4.175	0.513
1048.000	612.039	80.006	19.994	103.107	19.810	4.030	0.505
1050.001	613.042	80.008	19.994	103.108	19.806	4.316	0.531
1052.000	614.078	80.006	19.994	103.119	19.803	4.466	0.501
1054.000	615.135	80.007	19.993	103.109	19.806	4.295	0.518
1056.000	616.164	80.006	19.994	103.108	19.805	4.328	0.513
1058.000	617.195	80.005	19.994	103.107	19.803	4.496	0.487
1060.001	618.255	80.004	19.993	103.100	19.807	4.248	0.530
1062.001	619.245	80.005	19.994	103.110	19.806	4.255	0.515
1064.001	620.271	80.004	19.994	103.110	19.806	4.262	0.485
1066.000	621.335	80.005	19.994	103.104	19.808	4.136	0.500
1068.001	622.329	80.005	19.994	103.107	19.806	4.295	0.524
1070.000	623.389	80.004	19.994	103.118	19.809	4.071	0.506
1072.001	624.458	80.005	19.995	103.121	19.806	4.319	0.506
1074.001	625.473	80.005	19.994	103.118	19.805	4.334	0.508
1076.000	626.532	80.006	19.994	103.106	19.805	4.329	0.516
1078.000	627.616	80.006	19.994	103.111	19.805	4.347	0.528
1080.000	628.637	80.004	19.994	103.105	19.804	4.407	0.523
1082.000	629.688	80.005	19.994	103.103	19.804	4.403	0.508
1084.000	630.742	80.006	19.994	103.100	19.802	4.562	0.550
1086.001	631.792	80.004	19.993	103.103	19.803	4.512	0.529
1088.001	632.822	80.004	19.993	103.111	19.803	4.475	0.524
1090.000	633.898	80.004	19.993	103.110	19.800	4.679	0.524
1092.000	634.978	80.005	19.994	103.113	19.801	4.649	0.520
1094.000	636.029	80.004	19.994	103.112	19.801	4.661	0.521
1096.000	637.076	80.005	19.994	103.108	19.803	4.462	0.520
1098.001	638.089	80.003	19.995	103.113	19.805	4.321	0.499
1100.001	639.162	80.004	19.995	103.120	19.803	4.477	0.541
1102.000	640.196	80.005	19.995	103.110	19.805	4.342	0.500
1104.001	641.236	80.005	19.994	103.100	19.802	4.544	0.538
1106.000	642.266	80.006	19.995	103.110	19.803	4.480	0.502
1108.000	643.321	80.004	19.995	103.109	19.806	4.286	0.512
1110.000	644.378	80.006	19.995	103.105	19.801	4.600	0.547
1112.000	645.458	80.006	19.993	103.106	19.804	4.414	0.527
1114.000	646.482	80.005	19.995	103.105	19.806	4.308	0.516
1116.001	647.504	80.005	19.996	103.105	19.803	4.501	0.528
1118.001	648.549	80.005	19.995	103.094	19.807	4.191	0.499
1120.000	649.576	80.006	19.995	103.096	19.809	4.088	0.525
1122.000	650.642	80.005	19.995	103.103	19.808	4.134	0.540
1124.001	651.672	80.005	19.994	103.100	19.810	4.041	0.530
1126.001	652.704	80.005	19.995	103.096	19.808	4.180	0.530
1128.001	653.736	80.006	19.995	103.097	19.806	4.307	0.514
1130.000	654.779	80.007	19.994	103.106	19.810	3.983	0.541
1132.001	655.796	80.007	19.994	103.104	19.809	4.081	0.498
1134.000	656.834	80.008	19.995	103.110	19.809	4.112	0.483
1136.001	657.850	80.006	19.995	103.102	19.812	3.867	0.493
1138.000	658.893	80.007	19.994	103.092	19.808	4.150	0.521
1140.000	659.867	80.004	19.994	103.086	19.809	4.085	0.488
1142.001	660.956	80.004	19.995	103.105	19.807	4.246	0.542
1144.001	661.984	80.004	19.994	103.113	19.808	4.135	0.541
1146.000	662.954	80.002	19.994	103.100	19.808	4.174	0.506
1148.001	663.787	80.003	19.994	103.101	19.807	4.243	0.697
1150.001	665.006	80.004	19.994	103.095	19.806	4.312	0.339
1152.000	666.018	80.004	19.994	103.099	19.807	4.195	0.470
1154.000	666.945	80.004	19.994	103.091	19.808	4.150	0.543
1156.000	667.993	80.006	19.993	103.094	19.808	4.172	0.488
1158.001	668.970	80.004	19.995	103.093	19.809	4.095	0.516
1160.000	670.019	80.006	19.995	103.094	19.805	4.367	0.537
1162.000	671.007	80.003	19.993	103.096	19.808	4.132	0.546
1164.001	671.960	80.002	19.995	103.097	19.808	4.128	0.456
1166.000	673.011	80.003	19.995	103.096	19.808	4.169	0.540
1168.000	673.986	80.003	19.995	103.094	19.805	4.369	0.494
1170.000	675.023	80.003	19.995	103.093	19.809	4.044	0.520
1172.001	676.012	80.004	19.994	103.094	19.804	4.432	0.507
1174.001	676.984	80.005	19.994	103.094	19.807	4.235	0.500
1176.000	677.975	80.005	19.994	103.094	19.803	4.496	0.497
1178.001	678.994	80.004	19.994	103.098	19.806	4.304	0.513
1180.000	680.020	80.004	19.993	103.098	19.806	4.273	0.513
1182.001	681.006	80.003	19.994	103.090	19.805	4.328	0.495
1184.000	682.108	80.005	19.993	103.091	19.802	4.593	0.835
1186.000	682.974	80.005	19.994	103.089	19.806	4.283	0.493
1188.000	683.977	80.006	19.994	103.087	19.806	4.272	0.516
1190.000	684.934	80.006	19.995	103.095	19.805	4.378	0.471
1192.000	685.951	80.006	19.995	103.093	19.806	4.293	0.510
1194.000	686.944	80.006	19.995	103.090	19.805	4.389	0.509
1196.000	687.943	80.006	19.995	103.088	19.805	4.356	0.500
1198.000	688.911	80.005	19.994	103.090	19.806	4.311	0.476
1200.000	689.954	80.004	19.994	103.089	19.807	4.246	0.565
1202.001	690.985	80.006	19.994	103.088	19.808	4.118	0.534
1204.000	691.988	80.005	19.996	103.088	19.811	3.931	0.515
1206.000	693.018	80.005	19.994	103.092	19.810	4.039	0.527
1208.001	694.044	80.006	19.994	103.089	19.806	4.290	0.536
1210.000	695.080	80.007	19.995	103.089	19.809	4.078	0.518
1212.000	696.101	80.007	19.995	103.089	19.805	4.362	0.509
1214.000	697.150	80.005	19.994	103.090	19.804	4.421	0.512
1216.000	698.160	80.006	19.994	103.089	19.808	4.128	0.515
1218.000	699.214	80.005	19.995	103.102	19.808	4.180	0.512
1220.001	700.204	80.005	19.995	103.098	19.805	4.352	0.475
1222.001	701.222	80.004	19.995	103.101	19.805	4.323	0.495
1224.000	702.253	80.004	19.995	103.096	19.810	3.980	0.537
1226.000	703.260	80.003	19.996	103.092	19.805	4.354	0.517
1228.000	704.227	80.004	19.994	103.090	19.805	4.384	0.475
1230.000	705.298	80.003	19.995	103.093	19.804	4.443	0.505
1232.000	706.290	80.003	19.995	103.098	19.805	4.358	0.495
1234.001	707.365	80.004	19.995	103.093	19.803	4.472	0.524
1236.000	708.376	80.004	19.995	103.091	19.802	4.558	0.529
1238.000	709.375	80.003	19.994	103.092	19.804	4.437	0.504
1240.000	710.377	80.005	19.993	103.091	19.806	4.307	0.520
1242.000	711.328	80.004	19.994	103.089	19.804	4.402	0.481
1244.001	712.337	80.005	19.995	103.089	19.801	4.611	0.493
1246.001	713.329	80.004	19.995	103.087	19.801	4.665	0.498
1248.001	714.312	80.005	19.994	103.087	19.802	4.547	0.461
1250.001	715.345	80.004	19.996	103.089	19.805	4.376	0.526
1252.000	716.342	80.003	19.994	103.089	19.804	4.432	0.530
1254.001	717.336	80.005	19.994	103.087	19.803	4.526	0.497
1256.001	718.306	80.004	19.994	103.088	19.804	4.437	0.509
1258.000	719.254	80.005	19.994	103.087	19.802	4.552	0.504
1260.000	720.258	80.005	19.995	103.088	19.804	4.408	0.480
1262.000	721.261	80.004	19.994	103.091	19.802	4.547	0.496
1264.001	722.266	80.005	19.994	103.093	19.802	4.569	0.498
1266.000	723.233	80.006	19.995	103.091	19.804	4.445	0.494
1268.001	724.170	80.006	19.995	103.088	19.801	4.638	0.420
1270.001	725.237	80.006	19.994	103.088	19.805	4.384	0.500
1272.001	726.205	80.009	19.994	103.089	19.804	4.419	0.515
1274.000	727.178	80.006	19.993	103.089	19.802	4.530	0.476
1276.000	728.193	80.006	19.995	103.088	19.801	4.623	0.504
1278.001	729.210	80.006	19.996	103.089	19.801	4.608	0.501
1280.000	730.192	80.005	19.995	103.091	19.804	4.427	0.488
1282.001	731.202	80.005	19.994	103.090	19.802	4.573	0.482
1284.000	732.199	80.006	19.994	103.090	19.802	4.598	0.497
1286.001	733.248	80.006	19.995	103.089	19.804	4.424	0.514
1288.000	734.253	80.005	19.995	103.091	19.804	4.437	0.518
1290.001	735.232	80.006	19.995	103.102	19.806	4.280	0.489
1292.000	736.230	80.005	19.994	103.096	19.806	4.319	0.478
1294.001	737.214	80.006	19.994	103.089	19.804	4.393	0.494
1296.000	738.241	80.006	19.994	103.089	19.802	4.587	0.533
1298.000	739.267	80.007	19.995	103.092	19.801	4.606	0.498
1300.001	740.286	80.006	19.994	103.090	19.802	4.595	0.526
1302.000	741.282	80.005	19.994	103.090	19.799	4.762	0.529
1304.000	742.288	80.005	19.995	103.090	19.802	4.539	0.488
1306.000	743.320	80.005	19.994	103.090	19.799	4.801	0.477