File: 01_Data/Cedar_Shingle/MCC/Cedar_Shingle_MCC_30K_min_211215_R3.txt
Sample ID:	C:\MCC\MCC Cal\Test\Cedar_Single_MCC_30K_min_211215_R3.txt
Sample Weight (mg):	4.8
Heating Rate (C/s):	0.5
Combustor Temp (C):	900
N2 Flow Rate (cc/min):	80
O2 Flow Rate (cc/min):	20
Calibration File:	C:\MCC\MCC Cal\Coeff1 JN10440_30_210304.txt.txt
T Correction Coefficients:	0	1.024463	0
Time Shift (s):	14
*
Time (s)	Temperature (C)	N2 flow rate (cc/min)	O2 flow rate (cc/min)	Flow Rate (cc/min)	Oxygen (%)	HRR (W/g)	Heating rate (C/s)
-0.001	109.428	80.003	19.996	102.972	20.366	-0.060	0.014
2.000	109.464	80.005	19.997	102.971	20.366	-0.068	0.017
4.000	109.438	80.004	19.996	102.975	20.364	0.095	-0.024
6.000	109.396	80.003	19.997	102.972	20.363	0.161	-0.026
8.000	109.458	80.002	20.000	102.978	20.366	-0.053	-0.006
10.000	109.437	80.002	19.997	102.993	20.363	0.104	-0.002
12.000	109.425	80.004	19.997	103.018	20.357	0.563	-0.004
14.000	109.486	80.002	19.997	103.041	20.355	0.660	-0.005
16.000	109.497	80.003	19.995	103.090	20.350	1.010	0.026
18.000	109.604	80.003	19.997	103.096	20.345	1.332	0.040
20.001	109.693	80.003	19.995	103.108	20.342	1.555	0.065
22.000	109.833	79.999	19.997	103.151	20.336	1.963	0.093
23.999	109.979	80.003	19.995	103.168	20.335	2.040	0.084
26.000	110.203	80.004	19.994	103.175	20.332	2.187	0.084
27.999	110.410	80.003	19.995	103.175	20.329	2.431	0.098
29.999	110.671	80.002	19.993	103.187	20.330	2.355	0.166
31.999	110.939	80.001	19.996	103.209	20.325	2.664	0.119
34.000	111.278	80.004	19.994	103.216	20.323	2.834	0.135
35.999	111.611	80.004	19.993	103.231	20.322	2.892	0.192
37.999	112.018	80.003	19.993	103.241	20.319	3.057	0.187
40.000	112.438	80.003	19.995	103.239	20.319	3.097	0.198
42.000	112.905	80.004	19.995	103.252	20.316	3.291	0.237
43.999	113.394	80.003	19.996	103.243	20.314	3.391	0.253
45.999	113.898	80.004	19.995	103.246	20.317	3.216	0.265
48.000	114.406	80.005	19.995	103.242	20.314	3.399	0.215
50.000	114.939	80.005	19.994	103.249	20.312	3.537	0.257
52.000	115.594	80.005	19.995	103.238	20.314	3.427	0.316
53.999	116.155	80.004	19.995	103.241	20.316	3.278	0.276
55.999	116.832	80.004	19.996	103.226	20.317	3.241	0.327
57.999	117.472	80.004	19.993	103.233	20.317	3.245	0.330
59.999	118.115	80.004	19.994	103.234	20.317	3.236	0.344
61.999	118.742	80.003	19.994	103.221	20.315	3.349	0.322
63.999	119.443	80.004	19.996	103.222	20.315	3.364	0.324
65.999	120.111	80.008	19.994	103.241	20.317	3.209	0.323
67.999	120.897	80.003	19.995	103.233	20.316	3.271	0.378
69.999	121.674	80.004	19.996	103.246	20.316	3.306	0.378
71.999	122.420	80.007	19.995	103.233	20.315	3.373	0.416
73.999	123.198	80.006	19.995	103.236	20.312	3.562	0.412
75.999	123.948	80.004	19.997	103.251	20.315	3.348	0.373
77.999	124.742	80.007	19.995	103.249	20.315	3.378	0.406
79.999	125.589	80.011	19.996	103.248	20.316	3.258	0.426
81.999	126.362	79.999	19.996	103.251	20.314	3.397	0.392
84.000	127.182	80.004	19.995	103.247	20.314	3.428	0.390
85.999	127.991	80.003	19.996	103.253	20.312	3.556	0.397
88.001	128.789	80.004	19.996	103.238	20.313	3.505	0.404
90.000	129.684	80.001	19.996	103.241	20.313	3.476	0.378
91.999	130.543	79.998	20.002	103.248	20.315	3.384	0.410
94.001	131.407	80.006	19.996	103.251	20.315	3.344	0.453
96.000	132.269	79.999	19.997	103.254	20.313	3.512	0.492
97.999	133.131	80.002	19.999	103.254	20.316	3.278	0.439
99.999	134.019	80.002	19.998	103.251	20.313	3.456	0.420
101.999	134.953	80.001	19.998	103.248	20.314	3.401	0.473
103.999	135.856	80.003	19.998	103.249	20.318	3.143	0.467
105.999	136.775	80.006	19.996	103.250	20.316	3.296	0.502
107.999	137.679	80.003	19.994	103.247	20.316	3.252	0.472
109.999	138.591	80.003	19.993	103.244	20.318	3.170	0.425
111.999	139.512	80.002	19.998	103.244	20.318	3.150	0.449
113.999	140.484	80.003	19.997	103.248	20.321	2.978	0.432
115.999	141.343	79.999	19.999	103.249	20.318	3.126	0.435
117.999	142.331	80.001	19.999	103.238	20.320	2.984	0.479
119.999	143.263	80.004	19.991	103.241	20.317	3.212	0.460
121.999	144.302	80.009	19.992	103.236	20.317	3.231	0.545
123.999	145.202	80.002	19.998	103.239	20.316	3.274	0.461
125.999	146.199	80.011	19.992	103.237	20.314	3.412	0.499
128.000	147.178	80.008	19.995	103.242	20.315	3.362	0.492
130.000	148.087	80.007	20.002	103.236	20.314	3.440	0.472
132.000	149.095	80.002	19.996	103.247	20.313	3.481	0.481
134.000	150.111	80.007	19.995	103.248	20.311	3.647	0.493
136.000	151.040	80.004	19.996	103.242	20.314	3.402	0.481
138.000	151.975	80.004	19.994	103.242	20.309	3.736	0.446
140.000	152.962	80.001	19.997	103.236	20.310	3.684	0.463
142.000	153.931	80.005	19.996	103.229	20.309	3.755	0.497
144.000	154.919	80.005	19.992	103.238	20.308	3.787	0.498
146.000	155.876	80.004	19.994	103.235	20.306	3.952	0.474
148.000	156.859	80.001	19.999	103.234	20.306	3.981	0.469
150.000	157.860	80.007	19.994	103.221	20.307	3.901	0.529
152.000	158.836	80.003	19.995	103.233	20.304	4.071	0.457
154.000	159.833	80.005	19.996	103.218	20.302	4.232	0.485
156.000	160.819	80.002	20.000	103.225	20.302	4.244	0.505
158.000	161.772	80.004	19.995	103.219	20.302	4.208	0.460
160.000	162.784	80.005	19.996	103.217	20.304	4.105	0.501
162.000	163.759	80.005	19.993	103.215	20.300	4.337	0.496
164.000	164.754	80.004	19.994	103.223	20.302	4.230	0.465
166.000	165.744	80.004	19.994	103.215	20.304	4.122	0.462
168.000	166.740	80.004	19.995	103.213	20.305	4.054	0.505
170.000	167.747	80.005	19.990	103.217	20.304	4.107	0.488
172.000	168.784	80.002	19.996	103.216	20.299	4.394	0.505
174.000	169.734	80.001	19.999	103.225	20.302	4.248	0.480
176.000	170.703	80.000	19.997	103.227	20.298	4.471	0.467
178.000	171.740	80.005	19.995	103.215	20.300	4.332	0.478
180.000	172.761	80.000	19.998	103.214	20.299	4.434	0.523
182.000	173.725	80.005	19.991	103.213	20.297	4.571	0.544
184.000	174.763	80.002	19.998	103.214	20.301	4.297	0.565
186.000	175.695	80.008	19.995	103.218	20.297	4.580	0.475
188.000	176.720	80.004	19.993	103.218	20.295	4.721	0.504
190.000	177.685	80.006	19.993	103.213	20.298	4.485	0.487
192.000	178.714	80.003	19.996	103.215	20.294	4.749	0.547
194.000	179.753	79.999	19.997	103.213	20.294	4.732	0.523
196.000	180.718	79.999	19.995	103.215	20.296	4.593	0.511
198.000	181.737	80.004	19.997	103.214	20.296	4.608	0.503
200.000	182.703	80.003	19.993	103.213	20.296	4.622	0.487
202.000	183.665	80.002	19.998	103.214	20.295	4.675	0.484
204.000	184.720	80.004	19.998	103.213	20.290	5.023	0.536
206.000	185.702	80.003	19.996	103.214	20.295	4.714	0.472
208.000	186.702	80.002	19.993	103.214	20.294	4.776	0.478
210.000	187.739	80.005	19.994	103.213	20.291	4.942	0.493
212.000	188.707	80.003	19.999	103.214	20.288	5.147	0.520
214.000	189.732	80.003	19.996	103.214	20.285	5.374	0.495
216.000	190.762	80.003	19.995	103.214	20.286	5.278	0.482
218.000	191.712	80.004	19.994	103.210	20.283	5.512	0.491
220.000	192.707	80.001	19.994	103.205	20.287	5.253	0.506
222.000	193.692	80.003	19.994	103.209	20.282	5.594	0.501
224.000	194.723	80.006	19.994	103.212	20.283	5.488	0.485
226.000	195.688	80.004	19.994	103.212	20.278	5.828	0.482
228.000	196.651	80.005	19.994	103.210	20.278	5.818	0.462
230.001	197.633	80.003	19.994	103.211	20.278	5.802	0.519
231.999	198.620	80.000	19.996	103.200	20.274	6.126	0.480
234.000	199.620	80.009	19.993	103.198	20.278	5.836	0.474
235.999	200.648	80.004	19.994	103.199	20.275	6.024	0.505
237.999	201.612	80.005	19.995	103.190	20.271	6.300	0.515
240.000	202.624	80.006	19.994	103.182	20.275	6.040	0.487
241.999	203.598	80.003	19.996	103.205	20.269	6.455	0.505
243.999	204.602	80.004	19.995	103.209	20.267	6.541	0.503
245.999	205.590	80.002	19.995	103.210	20.265	6.674	0.522
247.999	206.617	80.002	19.997	103.208	20.263	6.843	0.507
249.999	207.623	80.005	19.995	103.205	20.269	6.455	0.501
252.000	208.629	80.002	19.995	103.197	20.263	6.841	0.453
254.000	209.627	80.016	19.995	103.208	20.260	7.022	0.507
255.999	210.627	80.004	19.995	103.197	20.260	7.059	0.505
258.000	211.594	80.003	19.996	103.207	20.258	7.170	0.497
260.000	212.553	79.996	19.997	103.205	20.255	7.355	0.449
262.000	213.581	79.999	19.995	103.208	20.257	7.245	0.486
264.000	214.609	80.007	19.995	103.194	20.252	7.580	0.514
266.000	215.589	80.003	19.995	103.214	20.251	7.664	0.461
268.000	216.591	80.002	19.995	103.199	20.249	7.782	0.520
270.000	217.578	80.003	19.997	103.185	20.245	8.050	0.503
272.000	218.523	80.007	19.996	103.193	20.239	8.421	0.470
274.000	219.558	80.003	19.996	103.186	20.239	8.454	0.514
276.000	220.545	80.006	19.997	103.192	20.237	8.569	0.525
278.000	221.523	79.995	19.997	103.192	20.237	8.570	0.480
280.000	222.490	80.002	19.996	103.203	20.231	8.967	0.499
282.000	223.478	80.001	19.997	103.205	20.231	8.972	0.517
284.000	224.434	80.009	19.994	103.216	20.230	9.080	0.486
286.000	225.436	80.000	19.996	103.209	20.229	9.107	0.487
288.000	226.489	80.007	19.995	103.197	20.231	9.001	0.578
290.000	227.467	80.010	19.994	103.209	20.227	9.231	0.511
292.000	228.475	80.005	19.994	103.212	20.225	9.366	0.504
294.000	229.429	80.006	19.996	103.209	20.222	9.558	0.473
296.000	230.446	80.004	19.995	103.201	20.223	9.519	0.482
298.000	231.379	80.003	19.996	103.206	20.220	9.736	0.482
300.000	232.422	80.002	19.995	103.199	20.219	9.764	0.512
302.000	233.369	80.008	19.996	103.210	20.217	9.947	0.497
304.000	234.396	80.002	19.995	103.216	20.221	9.667	0.485
306.000	235.363	80.005	19.995	103.212	20.215	10.082	0.492
308.000	236.365	80.007	19.995	103.205	20.213	10.181	0.496
310.000	237.350	80.007	19.996	103.211	20.207	10.575	0.500
312.000	238.367	80.015	19.995	103.213	20.207	10.621	0.517
314.000	239.329	80.007	19.995	103.214	20.206	10.655	0.481
316.000	240.273	80.013	19.996	103.211	20.202	10.939	0.451
318.000	241.299	80.006	19.995	103.211	20.198	11.212	0.513
320.000	242.273	80.003	19.995	103.213	20.196	11.301	0.494
322.000	243.290	79.996	19.996	103.212	20.198	11.175	0.499
324.000	244.285	80.019	19.993	103.214	20.195	11.394	0.522
326.000	245.264	80.004	19.995	103.218	20.191	11.637	0.503
328.000	246.215	80.005	19.995	103.212	20.190	11.734	0.496
330.000	247.218	79.999	19.996	103.214	20.189	11.776	0.508
332.000	248.202	80.004	19.995	103.213	20.188	11.903	0.514
334.000	249.212	80.003	19.996	103.217	20.184	12.130	0.506
336.000	250.248	80.003	19.995	103.213	20.181	12.315	0.497
338.000	251.254	80.006	19.996	103.212	20.181	12.375	0.482
340.000	252.261	80.002	19.995	103.219	20.175	12.740	0.475
342.000	253.285	80.003	19.994	103.225	20.174	12.843	0.523
344.000	254.243	80.002	19.994	103.220	20.171	13.022	0.482
346.000	255.298	80.003	19.996	103.223	20.169	13.155	0.509
348.000	256.301	80.004	19.993	103.235	20.167	13.315	0.518
350.000	257.283	80.002	19.996	103.234	20.165	13.405	0.482
352.000	258.309	80.002	19.995	103.227	20.162	13.611	0.545
354.000	259.306	80.003	19.994	103.232	20.158	13.880	0.500
356.000	260.323	80.001	19.997	103.235	20.153	14.194	0.517
358.000	261.307	80.005	19.997	103.234	20.153	14.226	0.505
360.000	262.289	80.002	19.997	103.235	20.149	14.518	0.509
362.000	263.291	80.006	19.996	103.231	20.147	14.636	0.490
364.000	264.310	79.999	19.997	103.232	20.141	15.032	0.511
366.000	265.272	80.006	19.995	103.233	20.139	15.135	0.478
368.000	266.261	80.001	19.996	103.240	20.135	15.428	0.470
370.000	267.252	80.006	19.998	103.247	20.134	15.518	0.487
372.000	268.309	80.015	19.994	103.245	20.131	15.719	0.502
374.000	269.244	80.004	19.996	103.242	20.130	15.770	0.510
376.000	270.247	80.002	19.996	103.244	20.124	16.152	0.517
378.000	271.294	79.998	19.995	103.251	20.118	16.586	0.503
380.000	272.295	80.005	19.994	103.245	20.116	16.701	0.493
382.000	273.305	80.006	19.995	103.252	20.111	17.025	0.505
384.000	274.282	80.004	19.994	103.252	20.107	17.305	0.515
386.001	275.289	80.008	19.994	103.245	20.103	17.584	0.489
388.000	276.317	80.006	19.995	103.249	20.103	17.566	0.536
390.000	277.239	80.003	19.995	103.250	20.097	18.014	0.438
392.000	278.224	80.003	19.995	103.252	20.093	18.252	0.496
394.000	279.230	80.000	19.995	103.253	20.089	18.539	0.473
396.000	280.198	80.005	19.995	103.252	20.085	18.806	0.486
398.000	281.212	80.004	19.995	103.253	20.081	19.048	0.522
400.000	282.211	80.002	19.995	103.254	20.079	19.223	0.515
402.000	283.226	80.000	19.995	103.254	20.077	19.338	0.491
404.000	284.186	80.004	19.995	103.258	20.072	19.632	0.470
406.000	285.169	80.002	19.995	103.266	20.067	19.972	0.470
408.000	286.182	80.004	19.995	103.261	20.065	20.113	0.511
410.000	287.207	80.003	19.994	103.268	20.057	20.654	0.499
412.000	288.170	80.002	19.993	103.256	20.054	20.842	0.461
414.000	289.198	80.003	19.994	103.268	20.048	21.304	0.513
416.000	290.175	80.002	19.995	103.268	20.044	21.580	0.507
418.000	291.202	80.006	19.994	103.269	20.039	21.909	0.517
420.000	292.201	80.007	19.994	103.274	20.035	22.144	0.483
422.000	293.181	80.005	19.995	103.288	20.026	22.752	0.521
424.000	294.160	80.010	19.994	103.268	20.022	23.014	0.482
426.000	295.178	80.003	19.995	103.287	20.018	23.313	0.518
428.000	296.170	80.002	19.996	103.289	20.006	24.108	0.497
430.000	297.191	80.015	19.995	103.284	20.001	24.441	0.506
432.000	298.155	80.015	19.994	103.295	19.996	24.789	0.501
434.000	299.215	80.015	19.996	103.292	19.991	25.072	0.520
436.000	300.157	80.007	19.995	103.283	19.983	25.652	0.477
438.000	301.157	80.002	19.995	103.292	19.976	26.139	0.487
440.000	302.165	80.015	19.993	103.290	19.968	26.657	0.539
442.000	303.169	80.005	19.994	103.297	19.958	27.321	0.513
444.000	304.164	80.003	19.995	103.291	19.950	27.857	0.519
446.000	305.209	80.006	19.994	103.298	19.944	28.289	0.516
448.000	306.234	80.005	19.995	103.304	19.934	28.936	0.508
450.000	307.216	80.007	19.997	103.295	19.924	29.646	0.497
452.000	308.185	80.004	19.995	103.300	19.914	30.254	0.473
454.000	309.198	80.015	19.997	103.299	19.901	31.133	0.505
456.000	310.225	79.998	19.997	103.311	19.896	31.503	0.515
458.000	311.240	79.997	19.998	103.328	19.884	32.293	0.488
460.000	312.229	79.996	20.000	103.331	19.876	32.806	0.467
462.000	313.271	80.012	19.998	103.320	19.866	33.537	0.502
464.000	314.267	80.007	19.997	103.325	19.852	34.419	0.519
466.000	315.303	80.001	19.994	103.327	19.845	34.945	0.516
468.000	316.270	80.007	19.993	103.334	19.833	35.727	0.496
470.000	317.274	79.998	19.994	103.333	19.822	36.480	0.484
472.000	318.288	80.009	19.994	103.329	19.810	37.309	0.487
474.000	319.278	80.001	19.995	103.337	19.800	37.985	0.486
476.000	320.287	80.004	19.997	103.330	19.789	38.714	0.509
478.000	321.266	80.003	19.996	103.340	19.780	39.331	0.512
480.000	322.331	79.998	19.996	103.349	19.767	40.144	0.506
482.000	323.273	80.007	19.993	103.359	19.757	40.872	0.472
484.000	324.275	80.006	19.994	103.360	19.744	41.697	0.503
486.000	325.262	80.000	19.995	103.348	19.735	42.312	0.486
488.000	326.290	80.001	19.995	103.356	19.724	43.071	0.491
490.000	327.253	79.997	19.997	103.366	19.713	43.838	0.461
492.000	328.264	80.000	19.996	103.363	19.703	44.502	0.509
494.000	329.271	80.005	19.994	103.363	19.692	45.192	0.517
496.000	330.286	80.003	19.996	103.367	19.685	45.701	0.503
498.000	331.274	80.004	19.996	103.369	19.672	46.561	0.483
500.000	332.339	80.004	19.995	103.373	19.663	47.174	0.516
502.000	333.327	80.008	19.995	103.372	19.651	47.953	0.552
504.000	334.375	79.999	19.994	103.367	19.642	48.549	0.531
506.000	335.381	79.995	19.996	103.373	19.635	49.051	0.505
508.000	336.370	80.011	19.994	103.363	19.625	49.743	0.520
510.000	337.394	80.012	19.993	103.375	19.613	50.532	0.523
512.000	338.408	80.006	19.995	103.383	19.605	51.095	0.492
514.000	339.423	79.998	19.994	103.377	19.594	51.796	0.502
516.000	340.432	80.007	19.994	103.380	19.584	52.492	0.500
518.000	341.448	80.004	19.995	103.396	19.576	53.052	0.494
520.000	342.511	80.005	19.995	103.409	19.565	53.789	0.557
522.000	343.495	80.000	19.998	103.405	19.556	54.377	0.498
524.000	344.539	80.007	19.996	103.396	19.543	55.284	0.522
526.000	345.573	80.002	19.995	103.405	19.533	55.948	0.526
528.000	346.606	80.009	19.994	103.414	19.521	56.712	0.511
530.000	347.621	80.003	19.995	103.427	19.511	57.435	0.496
532.000	348.680	80.002	19.995	103.414	19.495	58.498	0.504
534.000	349.691	80.010	19.993	103.415	19.486	59.077	0.514
536.000	350.722	80.005	19.995	103.429	19.474	59.885	0.487
538.000	351.788	80.002	19.995	103.433	19.463	60.615	0.518
540.000	352.806	80.002	19.995	103.447	19.449	61.567	0.543
542.000	353.870	80.001	19.995	103.452	19.437	62.406	0.529
544.000	354.923	80.001	19.996	103.444	19.422	63.423	0.500
546.000	355.973	80.005	19.996	103.433	19.409	64.282	0.542
548.000	356.965	80.002	19.996	103.443	19.395	65.248	0.542
550.000	358.054	80.008	19.995	103.445	19.382	66.132	0.514
552.000	359.081	80.003	19.997	103.442	19.369	66.985	0.545
554.000	360.136	80.003	19.998	103.456	19.356	67.872	0.525
556.000	361.101	80.005	19.995	103.450	19.341	68.833	0.492
558.000	362.183	80.011	19.994	103.450	19.328	69.709	0.505
560.000	363.173	80.019	19.992	103.470	19.317	70.451	0.520
562.000	364.200	80.008	19.993	103.466	19.303	71.390	0.515
564.000	365.238	80.000	19.993	103.465	19.293	72.105	0.534
566.000	366.259	80.006	19.994	103.478	19.284	72.654	0.492
568.000	367.265	80.002	19.995	103.457	19.270	73.614	0.517
570.000	368.290	80.005	19.994	103.468	19.269	73.669	0.523
572.000	369.305	79.991	19.995	103.470	19.270	73.639	0.504
574.000	370.345	80.004	19.995	103.471	19.265	73.920	0.513
576.000	371.326	80.002	19.995	103.460	19.264	74.021	0.503
578.000	372.324	80.000	19.995	103.453	19.267	73.794	0.477
580.000	373.382	80.020	19.992	103.445	19.272	73.486	0.555
582.000	374.379	79.992	19.996	103.453	19.278	73.053	0.498
584.000	375.339	80.002	19.995	103.435	19.290	72.228	0.479
586.000	376.383	80.001	19.994	103.426	19.302	71.404	0.518
588.000	377.374	80.004	19.995	103.412	19.321	70.112	0.509
590.000	378.336	80.005	19.994	103.411	19.339	68.933	0.470
592.000	379.335	80.005	19.994	103.395	19.366	67.067	0.505
594.000	380.356	79.996	19.995	103.372	19.391	65.368	0.492
596.000	381.368	80.002	19.994	103.366	19.423	63.236	0.479
598.000	382.352	80.003	19.994	103.342	19.451	61.337	0.486
600.000	383.323	80.001	19.993	103.334	19.488	58.836	0.459
602.000	384.341	80.000	19.994	103.314	19.526	56.300	0.480
604.000	385.336	80.000	19.993	103.294	19.567	53.545	0.469
606.000	386.346	80.004	19.993	103.290	19.610	50.627	0.510
608.001	387.316	80.005	19.995	103.278	19.652	47.840	0.466
610.000	388.343	80.007	19.994	103.255	19.698	44.746	0.543
612.000	389.299	80.001	19.995	103.241	19.743	41.721	0.465
614.000	390.317	80.004	19.994	103.232	19.786	38.843	0.512
616.000	391.283	80.001	19.996	103.225	19.829	35.969	0.483
618.000	392.317	80.006	19.994	103.207	19.869	33.249	0.537
620.000	393.310	80.005	19.995	103.208	19.910	30.507	0.501
622.000	394.340	80.005	19.994	103.204	19.946	28.104	0.503
624.000	395.410	80.005	19.995	103.201	19.976	26.067	0.537
626.000	396.441	80.003	19.994	103.186	20.009	23.901	0.541
628.000	397.426	80.007	19.994	103.175	20.038	21.945	0.523
630.000	398.460	80.003	19.994	103.186	20.059	20.508	0.520
632.000	399.461	80.021	19.993	103.176	20.076	19.409	0.497
634.000	400.513	80.008	19.995	103.169	20.097	17.965	0.521
636.000	401.549	80.004	19.995	103.169	20.108	17.238	0.519
638.000	402.579	80.007	19.996	103.171	20.122	16.317	0.498
640.000	403.631	80.004	19.995	103.170	20.130	15.730	0.527
642.000	404.646	80.008	19.995	103.170	20.143	14.915	0.526
644.000	405.668	80.000	19.997	103.172	20.150	14.399	0.509
646.000	406.721	80.004	19.995	103.171	20.158	13.902	0.531
648.000	407.753	80.001	19.995	103.166	20.160	13.709	0.510
650.000	408.758	80.004	19.996	103.164	20.167	13.298	0.503
652.000	409.788	80.005	19.995	103.160	20.168	13.190	0.487
654.000	410.872	80.000	19.995	103.173	20.171	13.000	0.522
656.000	411.890	80.003	19.995	103.163	20.174	12.789	0.523
658.000	412.922	80.004	19.994	103.161	20.173	12.904	0.497
660.000	413.976	80.004	19.993	103.156	20.177	12.610	0.506
662.000	414.989	80.004	19.995	103.165	20.178	12.506	0.513
664.000	416.024	80.006	19.995	103.162	20.183	12.168	0.514
666.000	417.059	80.005	19.994	103.169	20.182	12.301	0.524
668.000	418.131	80.002	19.994	103.166	20.182	12.272	0.509
670.000	419.114	80.002	19.996	103.171	20.187	11.950	0.510
672.000	420.147	80.003	19.994	103.168	20.189	11.774	0.533
674.000	421.158	80.002	19.995	103.160	20.192	11.605	0.514
676.000	422.169	80.003	19.995	103.163	20.191	11.653	0.508
678.000	423.234	80.003	19.995	103.171	20.191	11.692	0.515
680.000	424.245	80.000	19.996	103.168	20.196	11.347	0.497
682.000	425.303	80.005	19.993	103.169	20.196	11.342	0.547
684.000	426.326	80.004	19.994	103.171	20.196	11.337	0.521
686.000	427.326	80.005	19.994	103.162	20.197	11.260	0.485
688.000	428.391	80.004	19.995	103.160	20.200	11.062	0.521
690.000	429.382	80.005	19.996	103.166	20.201	10.962	0.494
692.000	430.383	80.006	19.993	103.159	20.203	10.849	0.506
694.000	431.416	80.004	19.993	103.154	20.205	10.714	0.494
696.000	432.458	80.004	19.995	103.157	20.204	10.804	0.548
698.000	433.469	80.004	19.995	103.149	20.206	10.659	0.548
700.000	434.482	80.007	19.994	103.151	20.205	10.730	0.514
702.000	435.491	80.004	19.995	103.150	20.208	10.546	0.494
704.000	436.536	80.005	19.994	103.148	20.209	10.446	0.516
706.000	437.539	80.007	19.994	103.148	20.212	10.268	0.524
708.000	438.537	80.009	19.994	103.147	20.206	10.647	0.506
710.000	439.523	80.004	19.996	103.155	20.213	10.178	0.484
712.000	440.544	80.006	19.993	103.154	20.213	10.192	0.496
714.000	441.535	80.005	19.995	103.153	20.217	9.931	0.480
716.000	442.487	80.007	19.995	103.145	20.218	9.828	0.464
718.000	443.506	80.007	19.994	103.144	20.224	9.474	0.502
720.000	444.475	80.005	19.994	103.145	20.222	9.604	0.479
722.000	445.529	80.003	19.996	103.146	20.219	9.761	0.525
724.000	446.438	80.002	19.995	103.141	20.223	9.522	0.496
726.000	447.470	80.003	19.995	103.144	20.223	9.509	0.558
728.000	448.493	80.002	19.995	103.141	20.227	9.242	0.515
730.000	449.452	80.004	19.996	103.143	20.229	9.132	0.457
732.000	450.460	80.003	19.996	103.146	20.229	9.142	0.508
734.000	451.517	80.004	19.997	103.148	20.232	8.882	0.506
736.000	452.467	80.003	19.996	103.146	20.233	8.860	0.479
738.000	453.429	80.002	19.996	103.137	20.234	8.799	0.484
740.000	454.440	80.004	19.996	103.136	20.235	8.740	0.502
742.000	455.479	80.003	19.995	103.142	20.236	8.665	0.520
744.000	456.440	80.006	19.995	103.147	20.234	8.801	0.500
746.000	457.481	80.004	19.996	103.136	20.237	8.594	0.510
748.000	458.477	79.999	20.002	103.146	20.239	8.441	0.495
750.000	459.506	80.000	19.997	103.140	20.238	8.501	0.470
752.000	460.516	80.005	19.993	103.136	20.243	8.179	0.507
754.000	461.486	80.002	19.995	103.154	20.244	8.084	0.475
756.000	462.517	80.001	19.995	103.142	20.245	8.020	0.501
758.000	463.510	80.003	19.995	103.147	20.247	7.915	0.505
760.000	464.546	80.005	19.995	103.147	20.252	7.597	0.523
762.000	465.537	80.007	19.994	103.151	20.248	7.835	0.487
764.000	466.565	80.005	19.995	103.148	20.250	7.737	0.506
766.000	467.569	80.004	19.996	103.145	20.254	7.430	0.502
768.000	468.599	80.005	19.995	103.138	20.253	7.535	0.504
770.000	469.583	80.005	19.992	103.140	20.249	7.766	0.525
772.000	470.611	80.006	19.995	103.143	20.251	7.664	0.504
774.000	471.660	80.005	19.995	103.135	20.256	7.316	0.520
776.000	472.617	80.004	19.997	103.136	20.254	7.412	0.478
778.000	473.670	80.006	19.995	103.147	20.256	7.334	0.543
780.000	474.693	80.003	19.997	103.148	20.256	7.331	0.515
782.000	475.715	80.000	19.996	103.143	20.256	7.305	0.487
784.000	476.713	80.005	19.995	103.147	20.258	7.193	0.490
786.000	477.727	80.006	19.995	103.149	20.263	6.802	0.502
788.000	478.776	80.008	19.995	103.144	20.260	7.069	0.538
790.000	479.746	80.005	19.996	103.149	20.260	7.021	0.503
792.000	480.817	80.009	19.996	103.151	20.260	7.011	0.513
794.000	481.788	80.003	19.995	103.144	20.261	6.955	0.532
796.000	482.796	80.004	19.996	103.138	20.261	6.960	0.485
798.000	483.811	80.007	19.993	103.144	20.261	6.939	0.530
800.000	484.791	80.002	20.001	103.143	20.261	6.937	0.480
802.000	485.838	80.000	20.001	103.140	20.264	6.788	0.514
804.000	486.850	80.004	19.995	103.135	20.263	6.818	0.479
806.000	487.844	80.006	19.997	103.137	20.263	6.818	0.497
808.000	488.915	80.004	19.997	103.136	20.260	7.035	0.512
810.000	489.918	80.002	19.995	103.136	20.265	6.723	0.506
812.000	490.935	80.003	19.995	103.130	20.263	6.865	0.547
814.000	491.953	80.003	19.995	103.135	20.262	6.931	0.532
816.000	492.978	80.003	19.992	103.135	20.263	6.842	0.500
818.000	494.014	80.004	19.996	103.136	20.263	6.849	0.533
820.000	495.028	80.006	19.995	103.132	20.262	6.897	0.537
822.000	496.038	80.003	19.998	103.134	20.260	7.002	0.520
824.000	497.014	80.003	19.997	103.133	20.259	7.081	0.484
826.000	498.059	80.002	19.995	103.132	20.261	6.968	0.515
828.000	499.057	80.005	19.995	103.133	20.261	6.975	0.476
830.000	500.066	80.004	19.997	103.139	20.259	7.070	0.516
832.000	501.127	80.004	19.996	103.133	20.256	7.282	0.546
834.000	502.117	80.005	19.991	103.135	20.262	6.895	0.490
836.000	503.090	80.002	19.996	103.134	20.265	6.703	0.500
838.000	504.098	80.002	19.994	103.132	20.266	6.601	0.494
840.000	505.072	80.001	19.997	103.131	20.264	6.774	0.501
842.000	506.075	80.001	19.995	103.137	20.266	6.610	0.500
844.000	507.095	80.006	19.993	103.140	20.264	6.783	0.475
846.000	508.094	80.009	19.986	103.140	20.261	6.971	0.545
848.000	509.116	80.005	19.995	103.140	20.263	6.833	0.539
850.000	510.166	80.007	19.995	103.138	20.263	6.813	0.539
852.000	511.188	80.007	19.997	103.135	20.262	6.898	0.493
854.000	512.189	80.006	19.995	103.133	20.263	6.801	0.490
856.000	513.212	80.005	19.993	103.134	20.264	6.762	0.528
858.000	514.220	80.003	19.994	103.137	20.261	6.964	0.486
860.000	515.258	80.008	19.987	103.140	20.262	6.880	0.495
862.000	516.229	80.002	19.998	103.140	20.261	6.986	0.518
864.000	517.269	80.005	19.997	103.136	20.262	6.911	0.510
866.000	518.318	80.004	19.997	103.136	20.263	6.849	0.529
868.000	519.323	80.007	19.993	103.144	20.261	6.966	0.516
870.000	520.349	80.001	20.001	103.136	20.263	6.832	0.500
872.000	521.359	80.007	19.994	103.136	20.260	7.009	0.500
874.000	522.399	80.007	19.993	103.138	20.264	6.793	0.515
876.000	523.370	80.007	19.994	103.131	20.258	7.140	0.514
878.000	524.436	80.003	19.997	103.135	20.259	7.112	0.520
880.000	525.477	80.008	19.996	103.140	20.260	7.004	0.520
882.000	526.518	80.006	19.997	103.151	20.258	7.140	0.523
884.000	527.521	80.005	19.996	103.144	20.259	7.134	0.499
886.000	528.566	80.005	19.994	103.149	20.257	7.203	0.506
888.000	529.676	80.002	19.999	103.140	20.259	7.110	0.544
890.000	530.693	79.999	19.998	103.134	20.255	7.364	0.521
892.000	531.716	80.006	19.993	103.135	20.257	7.231	0.508
894.000	532.822	80.006	19.995	103.142	20.257	7.254	0.547
896.000	533.863	80.004	19.994	103.134	20.252	7.599	0.525
898.000	534.938	80.004	19.996	103.134	20.255	7.353	0.557
900.000	535.991	80.005	19.997	103.134	20.253	7.530	0.538
902.000	537.009	80.007	19.996	103.136	20.257	7.222	0.528
904.000	538.053	80.004	19.994	103.135	20.251	7.636	0.509
906.000	539.082	80.005	19.996	103.133	20.252	7.589	0.519
908.000	540.136	80.006	19.992	103.132	20.256	7.298	0.515
910.000	541.172	80.004	19.996	103.135	20.253	7.512	0.577
912.000	542.189	80.004	19.996	103.136	20.252	7.578	0.516
914.000	543.182	80.002	20.001	103.146	20.251	7.653	0.506
916.000	544.317	80.007	19.995	103.139	20.253	7.481	0.490
918.000	545.091	80.004	19.998	103.136	20.255	7.368	0.475
920.000	546.121	79.999	19.999	103.136	20.253	7.527	0.245
922.000	547.354	80.003	19.996	103.137	20.254	7.463	0.678
924.000	548.329	80.000	20.001	103.136	20.255	7.379	0.412
926.000	549.419	80.000	19.996	103.138	20.257	7.223	0.456
928.000	550.351	80.002	19.998	103.135	20.253	7.488	0.417
930.000	551.486	80.006	19.996	103.137	20.250	7.726	0.516
932.000	552.476	80.007	19.993	103.137	20.250	7.731	0.483
934.000	553.580	80.002	19.996	103.140	20.253	7.519	0.522
936.000	554.574	80.003	19.996	103.136	20.252	7.604	0.533
938.000	555.608	80.003	19.997	103.135	20.254	7.408	0.512
940.000	556.731	80.003	19.993	103.135	20.254	7.450	0.525
942.000	557.723	80.004	19.994	103.133	20.251	7.653	0.509
944.000	558.717	80.003	19.995	103.132	20.249	7.748	0.477
946.000	559.765	80.004	19.992	103.142	20.246	7.974	0.539
948.000	560.776	80.009	19.993	103.133	20.249	7.742	0.509
950.000	561.882	80.003	19.997	103.134	20.251	7.612	0.509
952.000	562.897	80.005	19.993	103.134	20.245	8.071	0.539
954.000	563.898	80.003	19.997	103.134	20.244	8.091	0.489
956.000	564.883	80.006	19.996	103.135	20.249	7.800	0.476
958.000	565.926	80.008	19.992	103.130	20.243	8.153	0.522
960.000	566.932	80.004	19.994	103.130	20.245	8.065	0.501
962.000	567.949	80.005	20.000	103.134	20.240	8.376	0.492
964.000	568.978	80.002	19.998	103.129	20.242	8.254	0.516
966.000	569.988	80.002	19.994	103.127	20.242	8.250	0.487
968.000	571.037	80.003	19.993	103.132	20.242	8.217	0.478
970.000	572.045	80.005	19.992	103.131	20.243	8.192	0.496
972.000	573.061	80.007	19.993	103.135	20.243	8.203	0.490
974.000	574.137	80.006	19.996	103.140	20.243	8.155	0.554
976.000	575.191	80.005	19.994	103.138	20.241	8.314	0.519
978.000	576.183	80.001	19.995	103.138	20.240	8.374	0.500
980.000	577.233	80.006	19.992	103.137	20.241	8.308	0.522
982.000	578.239	80.006	19.989	103.139	20.242	8.252	0.511
984.000	579.309	80.005	19.994	103.139	20.238	8.506	0.534
986.000	580.327	80.004	19.994	103.145	20.237	8.548	0.486
988.000	581.333	80.002	19.994	103.136	20.238	8.487	0.505
990.000	582.346	80.002	19.996	103.139	20.236	8.614	0.515
992.000	583.360	80.003	19.994	103.139	20.237	8.559	0.507
994.000	584.390	80.001	19.995	103.141	20.237	8.555	0.514
996.000	585.397	80.005	19.995	103.142	20.237	8.553	0.543
998.000	586.415	80.004	19.995	103.137	20.236	8.635	0.502
1000.000	587.442	80.004	19.992	103.138	20.238	8.505	0.506
1002.000	588.492	80.004	19.996	103.141	20.235	8.730	0.523
1004.000	589.489	80.004	19.995	103.137	20.233	8.847	0.487
1006.000	590.559	80.002	19.997	103.136	20.237	8.608	0.551
1008.001	591.549	79.999	19.996	103.139	20.235	8.702	0.495
1010.000	592.573	80.008	19.997	103.131	20.237	8.553	0.479
1012.000	593.596	80.001	19.996	103.130	20.235	8.697	0.518
1014.000	594.616	80.003	20.002	103.133	20.235	8.688	0.526
1016.000	595.637	80.008	19.992	103.130	20.234	8.792	0.501
1018.000	596.633	80.005	19.995	103.133	20.231	8.966	0.524
1020.000	597.666	80.005	19.994	103.130	20.234	8.757	0.495
1022.000	598.642	80.002	20.000	103.130	20.232	8.931	0.506
1024.001	599.661	80.005	19.995	103.130	20.234	8.805	0.531
1026.000	600.678	80.005	19.996	103.131	20.234	8.788	0.513
1028.000	601.664	80.005	19.994	103.133	20.232	8.904	0.519
1029.999	602.706	80.006	19.997	103.135	20.234	8.756	0.501
1032.000	603.685	80.005	19.996	103.134	20.235	8.734	0.507
1034.000	604.702	80.004	19.996	103.134	20.232	8.893	0.526
1036.000	605.695	80.006	19.998	103.133	20.235	8.717	0.496
1037.999	606.726	80.005	19.996	103.134	20.235	8.688	0.515
1039.999	607.771	80.004	19.992	103.135	20.226	9.295	0.524
1041.999	608.790	80.006	19.994	103.139	20.228	9.174	0.487
1043.999	609.834	80.005	19.995	103.133	20.225	9.391	0.502
1045.999	610.865	80.006	19.994	103.136	20.228	9.161	0.513
1047.999	611.881	80.006	19.994	103.133	20.230	9.066	0.524
1049.999	613.014	80.006	19.996	103.136	20.227	9.245	0.528
1051.999	614.029	80.005	19.993	103.136	20.228	9.180	0.529
1053.999	615.045	80.002	19.995	103.134	20.228	9.192	0.506
1056.000	616.053	80.004	19.993	103.131	20.225	9.410	0.511
1057.999	617.102	80.003	19.994	103.135	20.226	9.306	0.525
1059.999	618.135	80.005	19.996	103.136	20.224	9.450	0.524
1062.000	619.155	80.003	19.994	103.140	20.222	9.559	0.522
1063.999	620.154	80.004	19.995	103.138	20.218	9.835	0.493
1065.999	621.170	80.004	19.993	103.137	20.223	9.546	0.493
1067.999	622.186	80.005	19.993	103.138	20.224	9.438	0.512
1069.999	623.209	80.003	19.993	103.137	20.225	9.395	0.502
1071.999	624.238	80.004	19.994	103.136	20.226	9.322	0.502
1073.999	625.259	80.004	19.995	103.135	20.225	9.358	0.500
1076.000	626.233	80.004	19.994	103.136	20.227	9.256	0.509
1078.000	627.212	80.005	19.996	103.132	20.230	9.036	0.489
1080.000	628.265	80.004	19.994	103.131	20.226	9.290	0.516
1081.999	629.259	80.003	19.997	103.132	20.227	9.258	0.517
1084.000	630.283	80.003	19.996	103.131	20.224	9.418	0.513
1086.000	631.250	80.003	19.996	103.133	20.226	9.312	0.490
1088.000	632.247	80.004	19.997	103.136	20.225	9.353	0.525
1089.999	633.242	80.003	19.998	103.146	20.224	9.433	0.514
1091.999	634.269	80.004	19.996	103.135	20.221	9.616	0.484
1094.000	635.234	80.005	19.995	103.134	20.220	9.692	0.496
1096.000	636.247	80.003	19.996	103.126	20.223	9.488	0.497
1098.000	637.211	80.006	19.996	103.132	20.219	9.800	0.498
1099.999	638.235	80.004	19.995	103.131	20.223	9.492	0.515
1102.000	639.223	80.003	19.993	103.133	20.219	9.759	0.513
1103.999	640.224	80.005	19.995	103.132	20.216	10.012	0.507
1105.999	641.288	80.006	19.996	103.133	20.216	9.983	0.506
1108.000	642.311	80.005	19.996	103.130	20.218	9.852	0.534
1109.999	643.394	80.005	19.994	103.132	20.217	9.897	0.533
1111.999	644.384	80.004	19.995	103.139	20.210	10.372	0.509
1114.000	645.431	80.004	19.995	103.137	20.214	10.151	0.528
1116.000	646.427	80.001	19.996	103.135	20.212	10.264	0.504
1118.000	647.457	80.003	19.995	103.135	20.213	10.204	0.497
1119.999	648.482	80.005	19.995	103.135	20.214	10.118	0.514
1122.000	649.568	80.005	19.995	103.134	20.211	10.290	0.538
1124.000	650.614	80.006	19.995	103.135	20.210	10.355	0.508
1125.999	651.644	80.005	19.994	103.133	20.211	10.315	0.498
1128.000	652.742	80.006	19.994	103.130	20.207	10.598	0.529
1130.000	653.716	80.006	19.994	103.133	20.211	10.351	0.504
1132.000	654.820	80.006	19.995	103.135	20.211	10.290	0.557
1133.999	655.854	80.005	19.994	103.130	20.210	10.394	0.524
1135.999	656.916	80.005	19.995	103.132	20.206	10.657	0.536
1137.999	657.922	80.005	19.995	103.124	20.209	10.425	0.540
1139.999	659.007	80.004	19.994	103.125	20.210	10.356	0.538
1142.000	660.040	80.004	19.994	103.129	20.208	10.512	0.532
1143.999	661.091	80.003	19.996	103.134	20.208	10.549	0.569
1145.999	662.117	80.003	19.995	103.133	20.210	10.410	0.509
1148.000	663.122	80.003	19.995	103.131	20.207	10.581	0.478
1150.000	664.152	80.004	19.996	103.132	20.207	10.571	0.525
1151.999	665.215	80.004	19.995	103.133	20.209	10.466	0.508
1154.000	666.220	80.004	19.996	103.131	20.208	10.494	0.540
1156.000	667.247	80.005	19.996	103.130	20.207	10.585	0.514
1158.000	668.241	80.005	19.995	103.131	20.206	10.660	0.523
1159.999	669.281	80.005	19.994	103.119	20.204	10.782	0.522
1162.000	670.253	80.004	19.995	103.120	20.205	10.704	0.497
1163.999	671.248	80.005	19.995	103.125	20.204	10.801	0.461
1166.000	672.339	80.004	19.994	103.108	20.205	10.709	0.507
1168.000	673.362	80.003	19.995	103.111	20.206	10.647	0.484
1169.999	674.388	80.002	19.995	103.116	20.205	10.707	0.512
1172.000	675.433	80.003	19.995	103.128	20.205	10.739	0.492
1173.999	676.421	80.003	19.994	103.120	20.205	10.723	0.491
1175.999	677.428	80.005	19.995	103.124	20.206	10.646	0.502
1177.999	678.419	80.004	19.996	103.128	20.207	10.567	0.473
1180.000	679.443	80.005	19.996	103.128	20.205	10.744	0.506
1182.000	680.404	80.004	19.996	103.126	20.203	10.840	0.483
1183.999	681.426	80.004	19.995	103.124	20.200	11.053	0.485
1185.999	682.421	80.005	19.995	103.115	20.204	10.794	0.488
1188.000	683.433	80.004	19.994	103.129	20.203	10.870	0.528
1189.999	684.451	80.004	19.995	103.128	20.201	10.974	0.522
1191.999	685.462	80.005	19.995	103.131	20.202	10.912	0.491
1193.999	686.402	80.004	19.995	103.125	20.202	10.914	0.476
1195.999	687.389	80.004	19.994	103.111	20.204	10.779	0.497
1198.000	688.343	80.004	19.995	103.127	20.200	11.050	0.463
1199.999	689.385	80.005	19.994	103.124	20.200	11.085	0.512
1201.999	690.426	80.005	19.995	103.125	20.199	11.144	0.503
1204.000	691.428	80.004	19.995	103.121	20.200	11.056	0.512
1206.000	692.426	80.005	19.995	103.114	20.200	11.079	0.492
1207.999	693.446	80.005	19.995	103.116	20.200	11.057	0.508
1209.999	694.487	80.007	19.997	103.122	20.197	11.275	0.482
1211.999	695.445	80.005	19.996	103.125	20.193	11.493	0.489
1214.000	696.471	80.005	19.996	103.105	20.197	11.249	0.499
1216.000	697.522	80.005	19.996	103.116	20.194	11.428	0.498
1218.000	698.510	80.005	19.996	103.114	20.194	11.436	0.485
1220.000	699.484	80.003	19.996	103.113	20.193	11.535	0.509
1221.999	700.491	80.004	19.995	103.118	20.190	11.699	0.499
1223.999	701.492	80.003	19.995	103.119	20.190	11.739	0.502
1225.999	702.479	80.004	19.995	103.124	20.193	11.528	0.458
1227.999	703.502	80.003	19.995	103.108	20.188	11.878	0.506
1229.999	704.470	80.005	19.994	103.120	20.186	12.025	0.515
1232.000	705.460	80.005	19.995	103.121	20.190	11.716	0.476
1234.000	706.507	80.003	19.994	103.118	20.196	11.344	0.515
1236.000	707.440	80.004	19.993	103.108	20.189	11.806	0.474
1237.999	708.479	80.005	19.995	103.128	20.191	11.672	0.518
1239.999	709.526	80.004	19.995	103.119	20.191	11.673	0.525
1242.000	710.514	80.005	19.995	103.119	20.189	11.783	0.502
1244.000	711.524	80.004	19.994	103.121	20.185	12.082	0.471
1246.000	712.545	80.003	19.994	103.117	20.187	11.897	0.504
1248.000	713.605	80.003	19.995	103.122	20.187	11.944	0.527
1250.000	714.620	80.002	19.995	103.118	20.188	11.860	0.532
1252.000	715.631	80.004	19.996	103.126	20.184	12.161	0.530
1253.999	716.672	80.003	19.996	103.127	20.182	12.250	0.514
1255.999	717.724	80.003	19.994	103.113	20.183	12.179	0.526
1258.000	718.669	80.003	19.995	103.122	20.187	11.892	0.492
1259.999	719.726	80.005	19.996	103.132	20.184	12.110	0.510
1262.000	720.730	80.004	19.995	103.136	20.187	11.920	0.519
1263.999	721.771	80.005	19.995	103.122	20.183	12.189	0.519
1265.999	722.725	80.004	19.995	103.132	20.183	12.183	0.491
1267.999	723.724	80.006	19.994	103.112	20.182	12.276	0.473
1269.999	724.832	80.006	19.996	103.118	20.183	12.224	0.546
1272.000	725.813	80.004	19.995	103.124	20.180	12.378	0.483
1273.999	726.847	80.006	19.996	103.129	20.175	12.735	0.532
1276.000	727.874	80.005	19.994	103.128	20.178	12.539	0.513
1278.000	728.897	80.005	19.995	103.125	20.174	12.805	0.518
1280.000	729.946	80.004	19.995	103.130	20.177	12.609	0.516
1281.999	730.925	80.005	19.994	103.130	20.175	12.734	0.489
1283.999	731.933	80.005	19.994	103.127	20.174	12.774	0.485
1285.999	733.011	80.005	19.995	103.130	20.174	12.802	0.513
1288.000	734.025	80.006	19.994	103.126	20.174	12.769	0.503
1289.999	735.050	80.007	19.996	103.118	20.172	12.911	0.512
1291.999	736.053	80.006	19.995	103.120	20.170	13.034	0.491
1293.999	737.080	80.007	19.995	103.118	20.170	13.037	0.521
1295.999	738.095	80.007	19.995	103.128	20.168	13.172	0.497
1298.000	739.170	80.007	19.995	103.123	20.170	13.079	0.550
1300.000	740.222	80.007	19.994	103.125	20.172	12.938	0.545
1301.999	741.207	80.005	19.995	103.122	20.168	13.210	0.506
1303.999	742.262	80.003	19.995	103.128	20.171	13.013	0.524
1305.999	743.251	80.004	19.996	103.119	20.166	13.347	0.533
1307.999	744.281	80.003	19.996	103.120	20.164	13.499	0.547
1309.999	745.281	80.004	19.995	103.121	20.164	13.482	0.498