File: 01_Data/Cedar_Shingle/MCC/Cedar_Single_MCC_30K_min_211214_R1.txt
Sample ID:	C:\MCC\MCC Cal\Test\Cedar_Single_MCC_30K_min_211214_R1.txt
Sample Weight (mg):	4.66
Heating Rate (C/s):	0.5
Combustor Temp (C):	900
N2 Flow Rate (cc/min):	80
O2 Flow Rate (cc/min):	20
Calibration File:	C:\MCC\MCC Cal\Coeff1 JN10440_30_210304.txt.txt
T Correction Coefficients:	0	1.024463	0
Time Shift (s):	14
*
Time (s)	Temperature (C)	N2 flow rate (cc/min)	O2 flow rate (cc/min)	Flow Rate (cc/min)	Oxygen (%)	HRR (W/g)	Heating rate (C/s)
0.000	109.110	80.005	19.994	103.013	19.803	0.123	-0.040
2.000	109.157	80.005	19.995	103.017	19.805	-0.018	-0.006
4.000	109.146	80.007	19.995	103.013	19.805	-0.053	0.011
6.000	109.133	80.005	19.994	103.012	19.804	0.053	-0.008
8.001	109.164	80.005	19.993	103.014	19.802	0.193	-0.007
10.000	109.176	80.005	19.993	103.013	19.801	0.235	0.020
12.001	109.134	80.006	19.994	103.020	19.803	0.101	-0.039
14.000	109.153	80.005	19.995	103.045	19.795	0.645	0.011
16.000	109.176	80.005	19.996	103.071	19.796	0.588	0.038
18.000	109.218	80.004	19.996	103.078	19.794	0.701	0.014
20.000	109.211	80.004	19.996	103.076	19.790	0.969	-0.005
22.000	109.286	80.006	19.993	103.094	19.789	1.048	0.041
24.000	109.327	80.005	19.993	103.126	19.788	1.096	0.004
26.000	109.372	80.006	19.992	103.130	19.788	1.157	0.044
28.000	109.537	80.005	19.994	103.135	19.782	1.512	0.042
30.000	109.671	80.006	19.993	103.167	19.784	1.393	0.055
32.001	109.768	80.006	19.993	103.173	19.778	1.820	0.083
34.001	109.963	80.006	19.993	103.191	19.775	2.052	0.067
36.000	110.180	80.007	19.994	103.210	19.772	2.201	0.110
38.001	110.417	80.006	19.994	103.212	19.769	2.419	0.119
40.001	110.713	80.005	19.995	103.221	19.766	2.642	0.166
42.000	110.971	80.005	19.993	103.217	19.765	2.732	0.125
44.000	111.286	80.006	19.994	103.234	19.766	2.669	0.194
46.000	111.616	80.005	19.994	103.239	19.761	2.984	0.158
48.001	111.971	80.005	19.994	103.249	19.758	3.174	0.199
50.000	112.402	80.007	19.995	103.273	19.757	3.262	0.229
52.001	112.810	80.006	19.996	103.282	19.756	3.342	0.227
54.000	113.268	80.007	19.995	103.281	19.752	3.599	0.205
56.000	113.731	80.007	19.994	103.281	19.755	3.393	0.206
58.000	114.299	80.008	19.994	103.275	19.754	3.476	0.279
60.000	114.817	80.008	19.996	103.281	19.751	3.705	0.247
62.000	115.377	80.007	19.994	103.281	19.749	3.846	0.288
64.000	115.978	80.006	19.994	103.286	19.750	3.748	0.308
66.000	116.571	80.005	19.995	103.289	19.752	3.636	0.307
68.001	117.216	80.004	19.995	103.289	19.752	3.607	0.310
70.000	117.886	80.004	19.996	103.291	19.748	3.874	0.331
72.000	118.581	80.005	19.995	103.298	19.750	3.782	0.336
74.000	119.262	80.004	19.994	103.284	19.750	3.728	0.318
76.000	119.927	80.004	19.996	103.285	19.749	3.800	0.339
78.000	120.687	80.005	19.995	103.286	19.748	3.863	0.381
80.001	121.430	80.004	19.995	103.290	19.751	3.714	0.397
82.001	122.224	80.004	19.996	103.289	19.747	3.969	0.407
84.001	123.045	80.006	19.994	103.289	19.749	3.850	0.409
86.000	123.820	80.005	19.993	103.289	19.750	3.734	0.398
88.000	124.606	80.007	19.993	103.291	19.747	3.951	0.399
90.001	125.432	80.004	19.996	103.288	19.746	4.067	0.374
92.001	126.233	80.004	19.993	103.289	19.749	3.802	0.384
94.000	127.076	80.005	19.994	103.287	19.746	4.034	0.401
96.000	127.932	80.005	19.994	103.290	19.745	4.089	0.431
98.001	128.768	80.004	19.995	103.292	19.749	3.828	0.419
100.000	129.648	80.005	19.993	103.290	19.748	3.927	0.441
102.001	130.469	80.005	19.993	103.289	19.751	3.721	0.431
104.001	131.396	80.003	19.994	103.288	19.749	3.804	0.461
106.001	132.270	80.004	19.994	103.288	19.749	3.816	0.446
108.001	133.152	80.005	19.994	103.293	19.749	3.837	0.460
110.001	134.075	80.007	19.995	103.292	19.748	3.927	0.460
112.001	134.977	80.006	19.994	103.287	19.749	3.846	0.452
114.001	135.906	80.007	19.993	103.289	19.751	3.691	0.483
116.000	136.854	80.008	19.996	103.284	19.750	3.756	0.463
118.001	137.848	80.007	19.994	103.285	19.751	3.655	0.507
120.000	138.750	80.007	19.995	103.286	19.750	3.780	0.464
122.001	139.694	80.007	19.995	103.287	19.753	3.579	0.455
124.000	140.670	80.006	19.995	103.287	19.752	3.588	0.505
126.001	141.658	80.007	19.994	103.287	19.752	3.653	0.481
128.000	142.642	80.007	19.995	103.286	19.752	3.641	0.507
130.000	143.621	80.008	19.994	103.285	19.752	3.653	0.508
132.000	144.616	80.008	19.995	103.285	19.749	3.848	0.481
134.000	145.614	80.008	19.994	103.283	19.746	4.065	0.484
136.001	146.598	80.008	19.995	103.282	19.747	3.982	0.499
138.001	147.549	80.010	19.994	103.280	19.748	3.901	0.471
140.000	148.596	80.007	19.994	103.281	19.746	4.067	0.519
142.000	149.582	80.008	19.995	103.281	19.747	3.977	0.516
144.000	150.581	80.008	19.995	103.280	19.748	3.929	0.489
146.000	151.572	80.005	19.993	103.281	19.749	3.811	0.474
148.000	152.558	80.005	19.995	103.281	19.746	4.021	0.521
150.000	153.593	80.006	19.994	103.281	19.747	3.973	0.496
152.000	154.549	80.006	19.995	103.283	19.744	4.186	0.486
154.000	155.571	80.005	19.993	103.277	19.744	4.162	0.506
156.000	156.579	80.006	19.993	103.279	19.746	4.062	0.490
158.000	157.604	80.005	19.996	103.278	19.745	4.101	0.512
160.000	158.614	80.005	19.996	103.278	19.742	4.341	0.481
162.000	159.622	80.006	19.996	103.269	19.745	4.073	0.516
164.000	160.639	80.004	19.996	103.278	19.742	4.281	0.532
166.000	161.623	80.004	19.995	103.267	19.745	4.073	0.485
168.000	162.636	80.004	19.996	103.273	19.742	4.335	0.464
170.000	163.675	80.005	19.995	103.270	19.741	4.347	0.515
172.000	164.724	80.003	19.996	103.265	19.741	4.345	0.536
174.000	165.721	80.004	19.995	103.270	19.740	4.435	0.503
176.001	166.745	80.004	19.994	103.267	19.740	4.454	0.513
178.000	167.776	80.005	19.995	103.261	19.739	4.524	0.531
180.000	168.778	80.004	19.993	103.254	19.738	4.586	0.494
182.000	169.740	80.004	19.994	103.250	19.741	4.408	0.461
184.000	170.739	80.005	19.994	103.246	19.738	4.557	0.483
186.000	171.777	80.007	19.994	103.250	19.737	4.638	0.541
188.000	172.737	80.007	19.993	103.250	19.738	4.564	0.478
190.000	173.733	80.006	19.995	103.247	19.735	4.801	0.498
192.000	174.757	80.007	19.994	103.246	19.738	4.588	0.500
194.000	175.766	80.007	19.995	103.245	19.737	4.632	0.516
196.000	176.748	80.006	19.996	103.245	19.734	4.868	0.490
198.000	177.724	80.006	19.994	103.248	19.736	4.732	0.508
200.000	178.696	80.006	19.993	103.244	19.739	4.518	0.471
202.000	179.701	80.006	19.993	103.245	19.740	4.448	0.498
204.000	180.673	80.006	19.993	103.244	19.738	4.579	0.499
206.000	181.691	80.005	19.995	103.245	19.737	4.682	0.485
208.000	182.638	80.005	19.994	103.246	19.735	4.783	0.482
210.000	183.628	80.006	19.994	103.246	19.734	4.831	0.479
212.000	184.701	80.007	19.993	103.246	19.733	4.930	0.534
214.000	185.656	80.007	19.994	103.247	19.732	4.980	0.488
216.000	186.670	80.008	19.994	103.248	19.732	4.989	0.518
218.000	187.679	80.008	19.994	103.246	19.729	5.215	0.480
220.000	188.658	80.008	19.994	103.246	19.729	5.214	0.512
222.000	189.611	80.007	19.994	103.247	19.732	5.027	0.457
224.001	190.599	80.007	19.995	103.237	19.730	5.156	0.477
226.000	191.616	80.006	19.995	103.243	19.730	5.157	0.532
228.000	192.572	80.005	19.995	103.243	19.729	5.197	0.496
230.000	193.584	80.004	19.993	103.245	19.728	5.307	0.523
232.000	194.553	80.003	19.995	103.242	19.727	5.352	0.471
234.000	195.519	80.003	19.996	103.230	19.726	5.427	0.500
236.000	196.500	80.025	20.001	103.243	19.725	5.491	0.480
238.000	197.485	80.010	19.998	103.251	19.718	5.967	0.470
240.000	198.465	80.004	19.996	103.245	19.721	5.759	0.487
242.000	199.467	80.005	19.995	103.242	19.720	5.804	0.490
244.000	200.439	80.006	19.997	103.241	19.719	5.907	0.495
246.000	201.397	80.007	19.997	103.242	19.718	5.955	0.494
248.000	202.375	80.006	19.996	103.235	19.717	6.019	0.486
250.000	203.365	80.005	19.994	103.224	19.717	6.063	0.517
252.000	204.379	80.004	19.995	103.230	19.711	6.462	0.498
254.000	205.298	80.005	19.995	103.233	19.710	6.498	0.503
256.000	206.315	80.005	19.995	103.235	19.710	6.509	0.490
258.000	207.337	80.005	19.995	103.237	19.709	6.599	0.501
260.000	208.346	80.003	19.995	103.228	19.706	6.799	0.520
262.000	209.336	80.004	19.995	103.227	19.704	6.915	0.498
264.000	210.321	80.005	19.997	103.233	19.703	6.978	0.514
266.000	211.285	80.004	19.996	103.241	19.703	7.005	0.467
268.000	212.318	80.006	19.996	103.233	19.698	7.349	0.512
270.000	213.280	80.006	19.994	103.230	19.696	7.482	0.492
272.000	214.288	80.007	19.994	103.237	19.698	7.315	0.494
274.000	215.250	80.006	19.994	103.225	19.698	7.331	0.483
276.000	216.255	80.008	19.993	103.230	19.694	7.604	0.506
278.000	217.216	80.008	19.996	103.228	19.695	7.542	0.508
280.000	218.203	80.006	19.995	103.227	19.691	7.821	0.510
282.000	219.213	80.007	19.994	103.236	19.687	8.108	0.479
284.000	220.185	80.005	19.993	103.238	19.691	7.857	0.477
286.000	221.198	80.006	19.994	103.239	19.686	8.155	0.522
288.001	222.218	80.006	19.994	103.229	19.682	8.453	0.477
290.000	223.182	80.007	19.995	103.233	19.681	8.551	0.484
292.000	224.195	80.007	19.994	103.238	19.680	8.578	0.477
294.000	225.178	80.008	19.994	103.227	19.679	8.677	0.466
296.000	226.163	80.007	19.992	103.235	19.677	8.790	0.484
298.000	227.175	80.007	19.994	103.227	19.675	8.947	0.513
300.000	228.184	80.008	19.993	103.235	19.676	8.884	0.500
302.000	229.220	80.008	19.994	103.236	19.672	9.155	0.513
304.000	230.204	80.008	19.994	103.243	19.672	9.128	0.504
306.000	231.228	80.006	19.993	103.234	19.668	9.399	0.498
308.000	232.250	80.007	19.994	103.232	19.665	9.630	0.540
310.000	233.223	80.006	19.995	103.230	19.665	9.608	0.488
312.000	234.221	80.005	19.995	103.234	19.663	9.744	0.499
314.000	235.216	80.006	19.993	103.240	19.662	9.869	0.502
316.000	236.225	80.005	19.994	103.241	19.657	10.158	0.539
318.000	237.240	80.006	19.994	103.223	19.655	10.313	0.496
320.000	238.220	80.005	19.995	103.231	19.655	10.311	0.471
322.000	239.192	80.007	19.994	103.238	19.655	10.289	0.482
324.000	240.180	80.006	19.995	103.239	19.652	10.539	0.481
326.000	241.185	80.004	19.995	103.242	19.650	10.687	0.483
328.000	242.224	80.005	19.994	103.242	19.648	10.812	0.517
330.000	243.238	80.005	19.996	103.243	19.645	10.994	0.513
332.000	244.200	80.006	19.996	103.243	19.643	11.134	0.492
334.000	245.197	80.006	19.995	103.243	19.643	11.122	0.522
336.000	246.241	80.005	19.994	103.243	19.639	11.458	0.523
338.000	247.254	80.006	19.995	103.244	19.635	11.688	0.525
340.000	248.221	80.006	19.994	103.245	19.634	11.784	0.496
342.001	249.284	80.007	19.994	103.247	19.635	11.721	0.493
344.000	250.283	80.004	19.995	103.246	19.633	11.863	0.501
346.000	251.294	80.004	19.995	103.249	19.627	12.235	0.486
348.000	252.297	80.004	19.995	103.246	19.626	12.347	0.494
350.000	253.280	80.004	19.994	103.246	19.622	12.581	0.475
352.000	254.264	80.006	19.995	103.245	19.619	12.811	0.487
354.000	255.287	80.005	19.996	103.246	19.621	12.650	0.503
356.000	256.314	80.006	19.994	103.245	19.617	12.976	0.518
358.000	257.293	80.006	19.995	103.247	19.611	13.398	0.487
360.000	258.290	80.006	19.994	103.247	19.613	13.261	0.503
362.000	259.306	80.007	19.994	103.245	19.610	13.468	0.489
364.000	260.313	80.005	19.992	103.250	19.604	13.882	0.510
366.000	261.293	80.006	19.993	103.255	19.600	14.098	0.498
368.000	262.288	80.007	19.994	103.260	19.599	14.186	0.500
370.000	263.308	80.006	19.993	103.260	19.598	14.270	0.507
372.000	264.319	80.006	19.994	103.254	19.592	14.691	0.498
374.000	265.310	80.007	19.993	103.258	19.593	14.611	0.500
376.000	266.350	80.008	19.994	103.255	19.583	15.269	0.511
378.000	267.329	80.009	19.993	103.250	19.579	15.612	0.494
380.000	268.321	80.009	19.994	103.253	19.579	15.564	0.504
382.000	269.332	80.008	19.993	103.258	19.579	15.594	0.502
384.000	270.380	80.008	19.994	103.251	19.571	16.117	0.547
386.000	271.385	80.006	19.994	103.264	19.571	16.139	0.512
388.000	272.401	80.006	19.993	103.272	19.566	16.481	0.506
390.001	273.408	80.006	19.995	103.258	19.561	16.828	0.520
392.000	274.373	80.006	19.994	103.269	19.558	16.999	0.517
394.000	275.447	80.005	19.993	103.275	19.556	17.187	0.549
396.000	276.400	80.007	19.994	103.273	19.553	17.370	0.497
398.000	277.470	80.006	19.993	103.273	19.550	17.565	0.518
400.000	278.426	80.006	19.993	103.279	19.545	17.931	0.488
402.000	279.480	80.006	19.994	103.277	19.541	18.195	0.574
404.000	280.472	80.006	19.995	103.279	19.535	18.598	0.510
406.000	281.452	80.005	19.994	103.277	19.536	18.588	0.496
408.000	282.470	80.005	19.994	103.281	19.530	18.989	0.513
410.000	283.463	80.004	19.994	103.281	19.524	19.381	0.520
412.000	284.448	80.005	19.994	103.280	19.525	19.346	0.471
414.000	285.451	80.006	19.994	103.282	19.518	19.803	0.500
416.000	286.450	80.004	19.994	103.285	19.510	20.331	0.488
418.000	287.485	80.005	19.995	103.287	19.509	20.430	0.505
420.000	288.476	80.005	19.994	103.287	19.501	20.949	0.500
422.000	289.461	80.004	19.995	103.287	19.495	21.361	0.473
424.000	290.481	80.005	19.995	103.289	19.492	21.630	0.513
426.000	291.549	80.004	19.995	103.288	19.485	22.070	0.529
428.000	292.494	80.004	19.996	103.291	19.484	22.138	0.483
430.000	293.516	80.005	19.993	103.298	19.474	22.820	0.486
432.000	294.525	80.004	19.995	103.302	19.468	23.252	0.519
434.000	295.536	80.007	19.993	103.298	19.464	23.565	0.497
436.000	296.539	80.005	19.994	103.293	19.454	24.238	0.506
438.000	297.521	80.006	19.995	103.295	19.452	24.356	0.508
440.000	298.574	80.007	19.994	103.303	19.445	24.888	0.540
442.000	299.596	80.007	19.995	103.310	19.436	25.445	0.533
444.000	300.545	80.006	19.993	103.310	19.429	25.970	0.468
446.000	301.568	80.006	19.995	103.316	19.422	26.416	0.491
448.000	302.571	80.005	19.995	103.318	19.413	27.099	0.487
450.000	303.583	80.005	19.996	103.317	19.404	27.673	0.482
452.001	304.586	80.006	19.993	103.320	19.395	28.298	0.481
454.000	305.606	80.007	19.996	103.322	19.390	28.693	0.521
456.000	306.640	80.008	19.995	103.320	19.375	29.699	0.522
458.000	307.595	80.008	19.993	103.322	19.369	30.117	0.487
460.000	308.599	80.008	19.993	103.332	19.363	30.525	0.520
462.000	309.623	80.009	19.995	103.336	19.351	31.360	0.527
464.000	310.622	80.007	19.993	103.335	19.345	31.812	0.513
466.000	311.624	80.006	19.996	103.335	19.334	32.555	0.500
468.000	312.677	80.006	19.995	103.336	19.324	33.263	0.527
470.000	313.673	80.006	19.992	103.346	19.313	34.021	0.510
472.000	314.682	80.005	19.993	103.350	19.301	34.860	0.514
474.000	315.707	80.005	19.995	103.355	19.292	35.457	0.499
476.000	316.698	80.005	19.995	103.363	19.281	36.220	0.503
478.000	317.737	80.005	19.994	103.363	19.268	37.104	0.541
480.000	318.735	80.004	19.993	103.362	19.263	37.498	0.505
482.001	319.737	80.006	19.994	103.364	19.253	38.174	0.488
484.000	320.723	80.006	19.994	103.364	19.242	38.949	0.515
486.000	321.700	80.006	19.995	103.365	19.230	39.751	0.506
488.000	322.776	80.005	19.995	103.366	19.221	40.340	0.530
490.000	323.731	80.006	19.993	103.366	19.209	41.211	0.487
492.000	324.771	80.006	19.995	103.369	19.199	41.885	0.502
494.000	325.782	80.004	19.993	103.369	19.189	42.625	0.528
496.000	326.789	80.005	19.993	103.374	19.180	43.209	0.509
498.000	327.800	80.006	19.994	103.375	19.170	43.908	0.507
500.000	328.765	80.005	19.995	103.383	19.161	44.516	0.510
502.000	329.800	80.004	19.996	103.384	19.154	45.012	0.508
504.000	330.794	80.004	19.994	103.400	19.140	45.967	0.497
506.000	331.789	80.003	19.996	103.398	19.131	46.579	0.502
508.000	332.818	80.005	19.995	103.399	19.122	47.226	0.518
510.000	333.828	80.006	19.994	103.398	19.111	48.026	0.517
512.000	334.882	80.007	19.995	103.400	19.101	48.685	0.516
514.000	335.897	80.005	19.995	103.398	19.092	49.302	0.520
516.000	336.875	80.007	19.994	103.397	19.084	49.853	0.496
518.000	337.873	80.007	19.994	103.400	19.075	50.488	0.498
520.000	338.908	80.006	19.996	103.400	19.068	51.009	0.536
522.000	339.854	80.006	19.995	103.401	19.057	51.738	0.483
524.000	340.893	80.005	19.994	103.402	19.048	52.367	0.489
526.000	341.895	80.006	19.996	103.411	19.038	53.064	0.505
528.000	342.920	80.007	19.995	103.404	19.027	53.807	0.495
530.000	343.922	80.006	19.995	103.417	19.017	54.542	0.505
532.000	344.894	80.007	19.996	103.414	19.010	55.020	0.463
534.000	345.925	80.005	19.996	103.428	18.998	55.828	0.477
536.000	346.941	80.007	19.995	103.435	18.988	56.520	0.526
538.000	347.927	80.006	19.995	103.434	18.978	57.241	0.496
540.000	348.970	80.006	19.995	103.440	18.966	58.065	0.529
542.000	349.973	80.007	19.995	103.440	18.950	59.196	0.526
544.000	350.966	80.007	19.995	103.441	18.945	59.555	0.510
546.000	351.993	80.008	19.994	103.439	18.934	60.271	0.506
548.000	353.002	80.004	19.994	103.440	18.917	61.503	0.494
550.000	354.004	80.004	19.994	103.445	18.907	62.201	0.505
552.000	355.044	80.003	19.993	103.451	18.895	63.009	0.514
554.000	356.020	80.005	19.994	103.458	18.880	64.060	0.510
556.000	357.055	80.005	19.995	103.468	18.872	64.595	0.527
558.000	358.091	80.005	19.994	103.478	18.860	65.438	0.508
560.000	359.096	80.005	19.993	103.477	18.847	66.333	0.523
562.000	360.045	80.006	19.992	103.481	18.834	67.238	0.470
564.000	361.105	80.005	19.995	103.482	18.824	67.891	0.510
566.000	362.106	80.004	19.993	103.479	18.812	68.762	0.500
568.000	363.092	80.005	19.994	103.478	18.803	69.349	0.521
570.000	364.095	80.005	19.993	103.478	18.794	70.006	0.525
572.000	365.122	80.005	19.993	103.479	18.787	70.470	0.506
574.000	366.113	80.005	19.995	103.479	18.780	70.922	0.498
576.000	367.170	80.006	19.995	103.478	18.780	70.943	0.506
578.000	368.172	80.006	19.993	103.469	18.778	71.111	0.543
580.000	369.162	80.005	19.995	103.472	18.778	71.080	0.499
582.000	370.172	80.005	19.995	103.470	18.782	70.754	0.500
584.000	371.199	80.005	19.995	103.450	18.786	70.528	0.495
586.000	372.220	80.005	19.994	103.443	18.795	69.876	0.509
588.000	373.236	80.006	19.993	103.442	18.806	69.076	0.510
590.000	374.258	80.005	19.994	103.427	18.823	67.891	0.523
592.000	375.247	80.006	19.994	103.409	18.841	66.657	0.502
594.000	376.310	80.008	19.994	103.400	18.861	65.220	0.508
596.000	377.287	80.007	19.995	103.395	18.886	63.528	0.510
598.000	378.336	80.008	19.993	103.368	18.913	61.609	0.505
600.000	379.294	80.007	19.996	103.361	18.943	59.585	0.446
602.000	380.374	80.007	19.994	103.339	18.973	57.438	0.523
604.000	381.356	80.005	19.993	103.321	19.009	55.008	0.513
606.000	382.382	80.005	19.994	103.306	19.049	52.215	0.524
608.000	383.368	80.005	19.995	103.288	19.088	49.500	0.498
610.000	384.350	80.004	19.993	103.277	19.130	46.574	0.505
612.001	385.410	80.006	19.994	103.256	19.178	43.295	0.519
614.000	386.352	80.005	19.994	103.245	19.218	40.530	0.466
616.000	387.362	80.005	19.994	103.241	19.261	37.554	0.504
618.000	388.366	80.007	19.994	103.217	19.301	34.780	0.485
620.000	389.397	80.006	19.994	103.208	19.339	32.161	0.512
622.000	390.420	80.007	19.993	103.207	19.378	29.414	0.510
624.000	391.436	80.006	19.993	103.203	19.412	27.117	0.500
626.000	392.450	80.006	19.994	103.195	19.444	24.905	0.498
628.000	393.479	80.003	19.995	103.181	19.474	22.849	0.486
630.000	394.497	80.003	19.994	103.173	19.504	20.764	0.518
632.000	395.538	80.003	19.997	103.170	19.528	19.110	0.534
634.000	396.549	80.004	19.994	103.168	19.545	17.919	0.517
636.000	397.542	80.003	19.996	103.168	19.566	16.462	0.502
638.000	398.499	80.002	19.995	103.168	19.580	15.471	0.484
640.000	399.549	80.005	19.995	103.167	19.594	14.537	0.513
642.000	400.505	80.005	19.994	103.165	19.604	13.820	0.489
644.000	401.540	80.004	19.994	103.166	19.613	13.211	0.523
646.000	402.515	80.004	19.995	103.166	19.621	12.658	0.479
648.000	403.512	80.003	19.994	103.167	19.628	12.170	0.497
650.000	404.529	80.004	19.994	103.165	19.634	11.742	0.485
652.000	405.521	80.005	19.994	103.166	19.641	11.277	0.524
654.000	406.519	80.005	19.995	103.166	19.642	11.240	0.469
656.000	407.523	80.003	19.994	103.166	19.647	10.900	0.502
658.000	408.525	80.004	19.995	103.168	19.652	10.506	0.497
660.000	409.551	80.004	19.995	103.169	19.654	10.376	0.506
662.000	410.538	80.004	19.996	103.170	19.655	10.319	0.483
664.000	411.548	80.004	19.995	103.168	19.655	10.320	0.493
666.000	412.578	80.004	19.994	103.169	19.656	10.241	0.530
668.000	413.566	80.003	19.994	103.169	19.659	10.067	0.522
670.000	414.576	80.005	19.994	103.171	19.661	9.912	0.494
672.000	415.616	80.004	19.994	103.171	19.661	9.877	0.515
674.000	416.626	80.006	19.993	103.168	19.665	9.594	0.498
676.000	417.639	80.006	19.994	103.167	19.664	9.710	0.511
678.000	418.651	80.008	19.994	103.169	19.669	9.359	0.511
680.000	419.622	80.007	19.993	103.169	19.671	9.204	0.496
682.000	420.680	80.007	19.993	103.167	19.674	8.991	0.525
684.000	421.699	80.006	19.993	103.168	19.672	9.110	0.550
686.000	422.720	80.007	19.994	103.169	19.676	8.864	0.528
688.000	423.693	80.006	19.993	103.170	19.674	9.013	0.482
690.000	424.753	80.007	19.994	103.169	19.675	8.900	0.522
692.000	425.789	80.005	19.995	103.170	19.678	8.716	0.547
694.000	426.837	80.006	19.995	103.170	19.679	8.637	0.519
696.001	427.906	80.006	19.994	103.168	19.676	8.863	0.518
698.000	428.901	80.009	19.995	103.167	19.680	8.606	0.495
700.000	429.990	80.007	19.994	103.166	19.678	8.704	0.532
702.000	431.008	80.008	19.994	103.165	19.683	8.369	0.492
704.000	432.084	80.009	19.994	103.164	19.688	8.033	0.554
706.000	433.183	80.009	19.994	103.163	19.683	8.384	0.551
708.000	434.229	80.007	19.994	103.162	19.688	8.018	0.552
710.000	435.275	80.006	19.993	103.166	19.686	8.205	0.523
712.000	436.305	80.004	19.994	103.166	19.686	8.142	0.501
714.000	437.379	80.005	19.994	103.168	19.690	7.865	0.481
716.000	438.446	80.004	19.995	103.166	19.690	7.912	0.506
718.000	439.549	80.004	19.995	103.164	19.691	7.850	0.535
720.000	440.587	80.005	19.996	103.164	19.699	7.299	0.522
722.000	441.616	80.005	19.995	103.163	19.697	7.409	0.504
724.000	442.673	80.004	19.995	103.159	19.698	7.359	0.546
726.000	443.702	80.005	19.995	103.160	19.701	7.122	0.513
728.000	444.783	80.005	19.995	103.162	19.702	7.034	0.553
730.000	445.766	80.003	19.994	103.166	19.702	7.054	0.503
732.000	446.859	80.005	19.994	103.164	19.702	7.052	0.525
734.000	447.910	80.006	19.994	103.161	19.706	6.824	0.543
736.000	448.916	80.005	19.993	103.161	19.710	6.524	0.493
738.000	449.997	80.005	19.995	103.166	19.711	6.414	0.560
740.000	451.016	80.004	19.993	103.168	19.712	6.368	0.506
742.000	452.064	80.006	19.994	103.162	19.714	6.230	0.538
744.000	453.084	80.004	19.994	103.155	19.716	6.070	0.505
746.000	454.105	80.003	19.994	103.163	19.719	5.873	0.509
748.000	455.161	80.004	19.995	103.155	19.720	5.812	0.529
750.000	456.201	80.005	19.994	103.158	19.724	5.555	0.526
752.000	457.214	80.005	19.994	103.163	19.725	5.464	0.529
754.000	458.299	80.006	19.994	103.165	19.725	5.477	0.546
756.000	459.347	80.006	19.994	103.162	19.729	5.208	0.567
758.000	460.345	80.007	19.993	103.157	19.731	5.093	0.502
760.000	461.364	80.006	19.996	103.155	19.731	5.062	0.484
762.000	462.353	80.006	19.995	103.145	19.736	4.740	0.490
764.000	463.401	80.006	19.994	103.134	19.735	4.783	0.489
766.000	464.386	80.006	19.994	103.161	19.738	4.600	0.482
768.000	465.372	80.006	19.997	103.158	19.743	4.256	0.508
770.000	466.379	80.007	19.994	103.155	19.742	4.319	0.509
772.000	467.369	80.006	19.993	103.139	19.740	4.413	0.515
774.000	468.354	80.007	19.994	103.139	19.741	4.344	0.523
776.000	469.298	80.008	19.993	103.142	19.746	4.041	0.520
778.000	470.284	80.007	19.994	103.141	19.748	3.885	0.484
780.000	471.266	80.007	19.993	103.143	19.745	4.111	0.484
782.000	472.213	80.008	19.993	103.145	19.747	3.940	0.496
784.000	473.187	80.008	19.996	103.139	19.752	3.587	0.515
786.000	474.187	80.008	19.996	103.138	19.752	3.591	0.518
788.000	475.159	80.007	19.995	103.138	19.750	3.760	0.511
790.000	476.150	80.007	19.995	103.141	19.749	3.826	0.473
792.000	477.113	80.005	19.995	103.144	19.751	3.694	0.502
794.000	478.063	80.005	19.994	103.136	19.754	3.442	0.487
796.000	479.046	80.005	19.994	103.151	19.755	3.379	0.497
798.000	480.031	80.004	19.993	103.136	19.756	3.365	0.500
800.000	480.966	80.006	19.995	103.143	19.751	3.650	0.476
802.000	481.962	80.005	19.994	103.158	19.753	3.534	0.465
804.000	482.932	80.006	19.993	103.157	19.754	3.502	0.488
806.000	483.937	80.006	19.994	103.140	19.752	3.580	0.517
808.000	484.891	80.005	19.995	103.149	19.755	3.416	0.496
810.000	485.924	80.005	19.994	103.153	19.755	3.431	0.521
812.000	486.909	80.006	19.994	103.161	19.753	3.512	0.493
814.000	487.883	80.004	19.994	103.139	19.754	3.444	0.497
816.000	488.920	80.004	19.997	103.141	19.757	3.286	0.518
818.000	489.901	80.004	19.995	103.145	19.754	3.497	0.495
820.000	490.901	80.005	19.996	103.164	19.755	3.385	0.504
822.000	491.949	80.004	19.995	103.160	19.756	3.358	0.519
824.000	492.940	80.003	19.995	103.157	19.755	3.411	0.485
826.000	493.985	80.004	19.995	103.154	19.757	3.234	0.529
828.000	495.052	80.005	19.994	103.153	19.757	3.240	0.562
830.000	496.086	80.005	19.996	103.152	19.758	3.194	0.523
832.000	497.155	80.004	19.994	103.162	19.757	3.302	0.525
834.000	498.286	80.007	19.994	103.158	19.757	3.258	0.527
836.000	499.305	80.006	19.996	103.151	19.758	3.212	0.539
838.000	500.391	80.006	19.994	103.162	19.760	3.038	0.531
840.000	501.490	80.008	19.993	103.153	19.759	3.148	0.493
842.000	502.571	80.007	19.993	103.140	19.761	2.964	0.553
844.000	503.628	80.008	19.993	103.153	19.762	2.894	0.541
846.000	504.706	80.008	19.995	103.151	19.759	3.105	0.550
848.000	505.770	80.007	19.992	103.162	19.761	2.993	0.535
850.000	506.829	80.008	19.993	103.150	19.759	3.107	0.551
852.000	507.923	80.007	19.993	103.142	19.765	2.734	0.505
854.001	508.968	80.007	19.994	103.154	19.762	2.946	0.527
856.000	510.132	80.006	19.995	103.148	19.761	3.014	0.554
858.000	511.168	80.006	19.994	103.147	19.761	2.960	0.527
860.000	512.211	80.008	19.993	103.149	19.751	3.677	0.548
862.000	513.307	80.008	19.994	103.149	19.764	2.788	0.520
864.000	514.330	80.008	19.994	103.148	19.764	2.799	0.585
866.000	515.503	80.007	19.993	103.153	19.759	3.120	0.581
868.000	516.617	80.008	19.992	103.138	19.760	3.052	0.602
870.000	517.648	80.007	19.995	103.144	19.761	2.958	0.522
872.000	518.730	80.006	19.993	103.149	19.760	3.038	0.507
874.000	519.226	80.004	19.995	103.158	19.760	3.052	0.408
876.000	521.173	80.005	19.996	103.150	19.757	3.300	0.502
878.000	522.174	80.005	19.995	103.150	19.759	3.112	0.594
880.000	523.117	80.005	19.996	103.154	19.761	2.960	0.490
882.000	523.940	80.004	19.994	103.145	19.764	2.816	0.495
884.000	525.079	80.004	19.995	103.153	19.763	2.846	0.562
886.000	526.057	80.005	19.994	103.134	19.766	2.675	0.579
888.000	527.062	80.005	19.994	103.132	19.760	3.074	0.545
890.000	528.103	80.005	19.996	103.136	19.763	2.825	0.476
892.000	529.142	80.006	19.994	103.133	19.764	2.757	0.532
894.000	530.238	80.005	19.993	103.132	19.768	2.529	0.518
896.000	531.252	80.006	19.995	103.138	19.764	2.752	0.508
898.000	532.280	80.006	19.995	103.141	19.763	2.857	0.508
900.000	533.312	80.005	19.995	103.128	19.766	2.653	0.568
902.000	534.376	80.004	19.994	103.128	19.767	2.548	0.493
904.000	535.395	80.005	19.995	103.131	19.765	2.743	0.575
906.000	536.366	80.004	19.995	103.128	19.765	2.741	0.509
908.000	537.366	80.004	19.995	103.127	19.762	2.906	0.522
910.000	538.387	80.003	19.996	103.128	19.762	2.934	0.502
912.000	539.362	80.004	19.997	103.134	19.763	2.875	0.505
914.000	540.374	80.005	19.995	103.135	19.766	2.620	0.518
916.000	541.347	80.005	19.994	103.126	19.761	2.967	0.497
918.000	542.347	80.008	19.995	103.130	19.765	2.743	0.484
920.000	543.340	80.006	19.993	103.131	19.764	2.793	0.458
922.000	544.339	80.007	19.993	103.127	19.764	2.752	0.477
924.000	545.320	80.007	19.993	103.127	19.764	2.761	0.487
926.000	546.320	80.006	19.995	103.131	19.762	2.901	0.504
928.000	547.366	80.005	19.993	103.126	19.765	2.719	0.505
930.000	548.352	80.006	19.994	103.131	19.765	2.739	0.505
932.000	549.340	80.006	19.995	103.134	19.763	2.838	0.483
934.000	550.355	80.005	19.994	103.133	19.768	2.531	0.495
936.000	551.369	80.006	19.994	103.137	19.765	2.710	0.526
938.000	552.397	80.006	19.993	103.137	19.765	2.732	0.520
940.000	553.427	80.007	19.994	103.136	19.765	2.745	0.529
942.000	554.451	80.008	19.995	103.133	19.767	2.590	0.516
944.000	555.440	80.007	19.992	103.129	19.764	2.782	0.520
946.000	556.419	80.007	19.994	103.130	19.769	2.469	0.483
948.000	557.493	80.008	19.992	103.129	19.763	2.885	0.518
950.000	558.472	80.006	19.994	103.132	19.765	2.688	0.507
952.000	559.491	80.007	19.993	103.130	19.765	2.713	0.500
954.000	560.497	80.006	19.994	103.134	19.768	2.478	0.511
956.000	561.519	80.006	19.994	103.139	19.767	2.603	0.483
958.000	562.569	80.007	19.995	103.134	19.768	2.535	0.540
960.001	563.549	80.007	19.994	103.136	19.767	2.561	0.489
962.000	564.563	80.006	19.994	103.130	19.766	2.629	0.483
964.001	565.591	80.006	19.994	103.129	19.769	2.425	0.509
966.000	566.639	80.006	19.994	103.136	19.769	2.471	0.545
968.000	567.666	80.005	19.995	103.133	19.773	2.162	0.523
970.000	568.714	80.006	19.996	103.139	19.768	2.495	0.494
972.000	569.737	80.006	19.996	103.130	19.771	2.320	0.498
974.000	570.813	80.005	19.995	103.131	19.766	2.634	0.532
976.000	571.843	80.006	19.995	103.133	19.770	2.372	0.502
978.000	572.910	80.007	19.995	103.135	19.767	2.559	0.561
980.000	573.974	80.007	19.994	103.132	19.764	2.752	0.548
982.000	575.093	80.006	19.994	103.133	19.769	2.460	0.554
984.000	576.105	80.005	19.995	103.133	19.770	2.390	0.519
986.000	577.180	80.005	19.994	103.136	19.769	2.441	0.545
988.000	578.218	80.005	19.994	103.138	19.768	2.480	0.506
990.000	579.235	80.006	19.994	103.138	19.771	2.273	0.523
992.000	580.310	80.004	19.995	103.140	19.769	2.460	0.562
994.000	581.330	80.005	19.995	103.139	19.771	2.300	0.539
996.000	582.433	80.005	19.994	103.132	19.770	2.399	0.525
998.000	583.481	80.005	19.995	103.133	19.771	2.316	0.534
1000.000	584.491	80.005	19.997	103.141	19.769	2.445	0.502
1002.000	585.575	80.006	19.996	103.152	19.771	2.307	0.527
1004.000	586.638	80.006	19.995	103.133	19.771	2.281	0.554
1006.000	587.700	80.005	19.996	103.128	19.771	2.279	0.583
1008.000	588.719	80.005	19.995	103.135	19.771	2.311	0.524
1010.000	589.782	80.004	19.995	103.133	19.771	2.283	0.521
1012.000	590.793	80.004	19.994	103.131	19.770	2.336	0.540
1014.000	591.825	80.006	19.993	103.132	19.772	2.263	0.524
1016.000	592.860	80.007	19.995	103.131	19.770	2.399	0.525
1018.000	593.930	80.006	19.994	103.130	19.769	2.421	0.557
1020.000	594.963	80.007	19.994	103.129	19.771	2.281	0.506
1022.000	596.005	80.008	19.993	103.127	19.770	2.347	0.489
1024.000	597.038	80.008	19.994	103.127	19.768	2.483	0.546
1026.000	598.045	80.008	19.993	103.127	19.769	2.450	0.509
1028.000	599.079	80.008	19.994	103.126	19.770	2.393	0.537
1030.001	600.075	80.007	19.994	103.127	19.767	2.544	0.498
1032.000	601.090	80.007	19.993	103.130	19.771	2.309	0.526
1034.000	602.133	80.007	19.994	103.127	19.769	2.454	0.544
1036.000	603.159	80.006	19.994	103.126	19.768	2.528	0.534
1038.001	604.159	80.007	19.994	103.126	19.766	2.680	0.515
1040.000	605.151	80.005	19.995	103.127	19.768	2.517	0.482
1042.000	606.178	80.006	19.995	103.128	19.768	2.511	0.493
1044.000	607.178	80.005	19.993	103.130	19.768	2.483	0.510
1046.000	608.222	80.006	19.995	103.127	19.771	2.313	0.534
1048.000	609.222	80.005	19.994	103.127	19.772	2.263	0.513
1050.000	610.217	80.005	19.994	103.125	19.772	2.235	0.485
1052.000	611.252	80.006	19.993	103.126	19.770	2.359	0.532
1054.000	612.262	80.008	19.994	103.128	19.768	2.506	0.547
1056.000	613.278	80.005	19.995	103.128	19.765	2.712	0.516
1058.001	614.278	80.006	19.994	103.129	19.764	2.754	0.533
1060.000	615.334	80.004	19.994	103.130	19.768	2.480	0.516
1062.000	616.378	80.004	19.996	103.130	19.766	2.640	0.497
1064.000	617.389	80.004	19.995	103.134	19.769	2.465	0.519
1066.000	618.412	80.005	19.994	103.133	19.765	2.686	0.503
1068.000	619.392	80.005	19.994	103.134	19.768	2.480	0.471
1070.000	620.370	80.005	19.995	103.133	19.772	2.250	0.478
1072.000	621.421	80.004	19.993	103.132	19.769	2.430	0.508
1074.001	622.446	80.004	19.994	103.129	19.767	2.561	0.523
1076.000	623.482	80.005	19.994	103.131	19.768	2.524	0.507
1078.000	624.466	80.006	19.994	103.131	19.769	2.423	0.513
1080.001	625.505	80.005	19.995	103.130	19.770	2.380	0.512
1082.000	626.554	80.006	19.995	103.129	19.772	2.200	0.530
1084.001	627.562	80.006	19.994	103.128	19.772	2.259	0.508
1086.001	628.594	80.008	19.993	103.125	19.767	2.546	0.539
1088.000	629.574	80.006	19.995	103.124	19.770	2.342	0.515
1090.001	630.584	80.005	19.995	103.126	19.770	2.382	0.504
1092.000	631.604	80.005	19.996	103.123	19.770	2.368	0.522
1094.001	632.642	80.005	19.995	103.124	19.772	2.248	0.510
1096.000	633.687	80.006	19.995	103.123	19.768	2.482	0.541
1098.000	634.660	80.005	19.994	103.124	19.770	2.366	0.514
1100.001	635.698	80.006	19.995	103.125	19.767	2.579	0.521
1102.000	636.731	80.007	19.995	103.126	19.770	2.392	0.506
1104.001	637.754	80.006	19.994	103.125	19.770	2.397	0.528
1106.000	638.782	80.009	19.995	103.124	19.770	2.351	0.541
1108.001	639.784	80.007	19.992	103.123	19.769	2.469	0.514
1110.000	640.785	80.008	19.994	103.124	19.768	2.485	0.466
1112.001	641.852	80.006	19.995	103.125	19.771	2.285	0.529
1114.001	642.845	80.006	19.995	103.125	19.771	2.314	0.503
1116.001	643.879	80.004	19.994	103.123	19.770	2.366	0.526
1118.001	644.890	80.005	19.994	103.125	19.768	2.509	0.530
1120.000	645.889	80.006	19.995	103.125	19.772	2.217	0.513
1122.000	646.876	80.005	19.994	103.128	19.774	2.063	0.464
1124.000	647.907	80.005	19.994	103.128	19.770	2.370	0.483
1126.000	648.927	80.005	19.993	103.124	19.771	2.322	0.514
1128.000	649.975	80.005	19.994	103.123	19.771	2.318	0.519
1130.000	651.005	80.005	19.994	103.125	19.772	2.208	0.508
1132.000	652.011	80.005	19.994	103.127	19.768	2.531	0.528
1134.001	653.085	80.006	19.993	103.128	19.771	2.329	0.528
1136.000	654.109	80.006	19.994	103.128	19.771	2.283	0.531
1138.000	655.080	80.006	19.993	103.128	19.771	2.279	0.490
1140.001	656.140	80.006	19.993	103.130	19.769	2.415	0.545
1142.000	657.129	80.005	19.993	103.127	19.768	2.480	0.544
1144.000	658.127	80.006	19.993	103.123	19.769	2.456	0.507
1146.001	659.131	80.006	19.993	103.124	19.771	2.301	0.510
1148.000	660.125	80.006	19.994	103.123	19.772	2.235	0.519
1150.001	661.165	80.005	19.994	103.127	19.769	2.439	0.508
1152.000	662.144	80.005	19.993	103.127	19.768	2.474	0.477
1154.000	663.168	80.005	19.995	103.127	19.772	2.244	0.524
1156.000	664.156	80.005	19.994	103.125	19.773	2.140	0.472
1158.000	665.210	80.008	19.995	103.121	19.767	2.583	0.510
1160.000	666.244	80.007	19.994	103.118	19.764	2.757	0.504
1162.001	667.262	80.007	19.995	103.118	19.769	2.447	0.526
1164.000	668.315	80.008	19.995	103.123	19.770	2.347	0.527
1166.000	669.258	80.006	19.995	103.122	19.767	2.594	0.515
1168.001	670.365	80.007	19.995	103.124	19.768	2.506	0.493
1170.000	671.469	80.007	19.995	103.124	19.768	2.537	0.518
1172.000	672.222	80.006	19.994	103.124	19.767	2.583	0.540
1174.000	673.348	80.006	19.995	103.120	19.766	2.634	0.580
1176.000	674.456	80.006	19.995	103.125	19.768	2.520	0.894
1178.000	675.447	80.006	19.994	103.126	19.767	2.557	0.530
1180.000	676.438	80.006	19.995	103.126	19.767	2.583	0.509
1182.000	677.469	80.006	19.994	103.126	19.765	2.693	0.481
1184.000	678.531	80.006	19.995	103.125	19.768	2.498	0.536
1186.001	679.509	80.006	19.996	103.126	19.766	2.667	0.496
1188.000	680.584	80.007	19.994	103.126	19.769	2.445	0.491
1190.000	681.575	80.006	19.994	103.123	19.767	2.603	0.515
1192.000	682.626	80.006	19.995	103.123	19.766	2.671	0.532
1194.000	683.655	80.005	19.996	103.124	19.768	2.476	0.518
1196.001	684.667	80.005	19.995	103.125	19.768	2.480	0.554
1198.000	685.686	80.005	19.994	103.123	19.766	2.654	0.517
1200.000	686.643	80.005	19.993	103.123	19.770	2.375	0.484
1202.000	687.787	80.005	19.992	103.127	19.768	2.509	0.566
1204.000	688.762	80.006	19.994	103.129	19.770	2.391	0.498
1206.000	689.821	80.004	19.994	103.129	19.770	2.377	0.484
1208.000	690.818	80.005	19.994	103.126	19.769	2.447	0.496
1210.000	691.893	80.005	19.993	103.125	19.767	2.561	0.523
1212.000	692.888	80.006	19.994	103.121	19.767	2.551	0.501
1214.000	693.922	80.005	19.994	103.115	19.765	2.711	0.512
1216.000	694.955	80.005	19.994	103.122	19.767	2.546	0.518
1218.000	695.978	80.006	19.993	103.123	19.767	2.603	0.492
1220.000	697.062	80.006	19.994	103.121	19.766	2.649	0.541
1222.001	698.073	80.007	19.994	103.122	19.768	2.520	0.521
1224.000	699.066	80.004	19.994	103.119	19.768	2.522	0.500
1226.000	700.134	80.006	19.994	103.116	19.768	2.493	0.551
1228.000	701.121	80.005	19.994	103.125	19.769	2.426	0.487
1230.001	702.179	80.005	19.995	103.126	19.769	2.470	0.528
1232.000	703.215	80.005	19.995	103.120	19.768	2.533	0.545
1234.000	704.206	80.005	19.994	103.118	19.767	2.590	0.502
1236.000	705.255	80.006	19.994	103.126	19.768	2.489	0.498
1238.001	706.264	80.007	19.994	103.125	19.766	2.643	0.501
1240.000	707.328	80.006	19.993	103.120	19.766	2.663	0.515
1242.000	708.302	80.008	19.994	103.124	19.766	2.669	0.483
1244.000	709.351	80.007	19.993	103.123	19.768	2.516	0.524
1246.000	710.309	80.006	19.994	103.120	19.766	2.645	0.513
1248.000	711.322	80.006	19.994	103.123	19.767	2.555	0.515
1250.001	712.338	80.006	19.993	103.127	19.770	2.401	0.532
1252.000	713.327	80.005	19.995	103.117	19.767	2.551	0.488
1254.000	714.345	80.005	19.995	103.123	19.769	2.434	0.522
1256.000	715.353	80.006	19.994	103.118	19.768	2.496	0.510
1258.000	716.391	80.007	19.995	103.115	19.768	2.518	0.505
1260.001	717.394	80.006	19.994	103.115	19.767	2.558	0.536
1262.001	718.390	80.006	19.994	103.116	19.768	2.512	0.515
1264.000	719.388	80.006	19.994	103.119	19.768	2.518	0.479
1266.001	720.427	80.008	19.995	103.109	19.766	2.651	0.499
1268.000	721.400	80.008	19.994	103.108	19.766	2.647	0.501
1270.001	722.440	80.006	19.992	103.107	19.766	2.672	0.527
1272.001	723.460	80.007	19.994	103.098	19.767	2.591	0.521
1274.000	724.457	80.007	19.995	103.119	19.768	2.520	0.508
1276.001	725.477	80.005	19.995	103.121	19.767	2.605	0.518
1278.000	726.492	80.004	19.994	103.116	19.769	2.456	0.501
1280.000	727.511	80.004	19.995	103.111	19.768	2.480	0.522
1282.001	728.502	80.004	19.996	103.106	19.766	2.632	0.525
1284.000	729.493	80.004	19.995	103.103	19.768	2.474	0.510
1286.000	730.487	80.004	19.995	103.116	19.765	2.708	0.493
1288.000	731.528	80.004	19.995	103.119	19.765	2.691	0.500
1290.000	732.555	80.005	19.995	103.115	19.764	2.761	0.515
1292.000	733.560	80.007	19.993	103.125	19.766	2.653	0.517
1294.000	734.563	80.006	19.994	103.124	19.763	2.830	0.505
1296.000	735.601	80.006	19.994	103.126	19.767	2.575	0.527
1298.000	736.599	80.006	19.994	103.126	19.768	2.536	0.522
1300.001	737.556	80.006	19.993	103.124	19.766	2.665	0.448
1302.000	738.580	80.006	19.995	103.127	19.768	2.494	0.542
1304.001	739.611	80.006	19.993	103.120	19.765	2.731	0.508
1306.000	740.585	80.005	19.995	103.107	19.764	2.751	0.497
1308.000	741.573	80.003	19.994	103.116	19.763	2.867	0.493
1310.001	742.667	80.003	19.993	103.118	19.764	2.805	0.562
1312.000	743.637	80.005	19.994	103.122	19.761	2.979	0.487