File: 01_Data/Polyester_Batting/FTIR/ATR/Polyester_Batting_ATR_210608_R5.tst
4497.79,-0.00555
4493.93,-0.00553
4490.07,-0.00535
4486.22,-0.00508
4482.36,-0.00533
4478.5,-0.00527
4474.64,-0.00512
4470.79,-0.00513
4466.93,-0.00527
4463.07,-0.00524
4459.21,-0.00517
4455.36,-0.00511
4451.5,-0.00490
4447.64,-0.00496
4443.79,-0.00486
4439.93,-0.00474
4436.07,-0.00473
4432.21,-0.00495
4428.36,-0.00480
4424.5,-0.00467
4420.64,-0.00478
4416.78,-0.00473
4412.93,-0.00481
4409.07,-0.00466
4405.21,-0.00458
4401.35,-0.00460
4397.5,-0.00463
4393.64,-0.00482
4389.78,-0.00463
4385.92,-0.00456
4382.07,-0.00447
4378.21,-0.00437
4374.35,-0.00497
4370.49,-0.00489
4366.64,-0.00470
4362.78,-0.00451
4358.92,-0.00429
4355.06,-0.00457
4351.21,-0.00457
4347.35,-0.00446
4343.49,-0.00452
4339.63,-0.00442
4335.78,-0.00435
4331.92,-0.00437
4328.06,-0.00437
4324.2,-0.00425
4320.35,-0.00411
4316.49,-0.00411
4312.63,-0.00420
4308.77,-0.00412
4304.92,-0.00427
4301.06,-0.00433
4297.2,-0.00426
4293.34,-0.00406
4289.49,-0.00388
4285.63,-0.00414
4281.77,-0.00418
4277.91,-0.00425
4274.06,-0.00416
4270.2,-0.00383
4266.34,-0.00399
4262.48,-0.00405
4258.63,-0.00397
4254.77,-0.00398
4250.91,-0.00399
4247.06,-0.00414
4243.2,-0.00414
4239.34,-0.00390
4235.48,-0.00396
4231.63,-0.00405
4227.77,-0.00409
4223.91,-0.00386
4220.05,-0.00379
4216.2,-0.00396
4212.34,-0.00386
4208.48,-0.00383
4204.62,-0.00366
4200.77,-0.00355
4196.91,-0.00374
4193.05,-0.00362
4189.19,-0.00361
4185.34,-0.00369
4181.48,-0.00376
4177.62,-0.00389
4173.76,-0.00371
4169.91,-0.00355
4166.05,-0.00353
4162.19,-0.00357
4158.33,-0.00361
4154.48,-0.00358
4150.62,-0.00370
4146.76,-0.00363
4142.9,-0.00346
4139.05,-0.00336
4135.19,-0.00331
4131.33,-0.00344
4127.47,-0.00355
4123.62,-0.00339
4119.76,-0.00326
4115.9,-0.00315
4112.04,-0.00330
4108.19,-0.00316
4104.33,-0.00295
4100.47,-0.00321
4096.61,-0.00313
4092.76,-0.00313
4088.9,-0.00264
4085.04,-0.00279
4081.18,-0.00278
4077.33,-0.00287
4073.47,-0.00266
4069.61,-0.00298
4065.75,-0.00311
4061.9,-0.00298
4058.04,-0.00294
4054.18,-0.00285
4050.33,-0.00283
4046.47,-0.00250
4042.61,-0.00265
4038.75,-0.00285
4034.9,-0.00272
4031.04,-0.00275
4027.18,-0.00259
4023.32,-0.00253
4019.47,-0.00233
4015.61,-0.00244
4011.75,-0.00241
4007.89,-0.00223
4004.04,-0.00255
4000.18,-0.00266
3996.32,-0.00216
3992.46,-0.00172
3988.61,-0.00210
3984.75,-0.00216
3980.89,-0.00192
3977.03,-0.00148
3973.18,-0.00116
3969.32,-0.00178
3965.46,-0.00200
3961.6,-0.00097
3957.75,-0.00121
3953.89,-0.00137
3950.03,0.00034
3946.17,-0.00003
3942.32,-0.00027
3938.46,-0.00140
3934.6,-0.00012
3930.74,0.00121
3926.89,0.00045
3923.03,0.00086
3919.17,0.00091
3915.31,-0.00039
3911.46,-0.00204
3907.6,0.00009
3903.74,0.00573
3899.88,0.00418
3896.03,0.00101
3892.17,0.00228
3888.31,0.00113
3884.45,0.00342
3880.6,0.00181
3876.74,0.00030
3872.88,0.00337
3869.02,0.00416
3865.17,0.00515
3861.31,0.00270
3857.45,0.00323
3853.59,0.00728
3849.74,0.00243
3845.88,0.00142
3842.02,0.00498
3838.17,0.00717
3834.31,0.00298
3830.45,0.00150
3826.59,0.00267
3822.74,0.00434
3818.88,0.00488
3815.02,0.00143
3811.16,-0.00031
3807.31,0.00166
3803.45,0.00398
3799.59,0.00414
3795.73,0.00072
3791.88,-0.00129
3788.02,-0.00033
3784.16,0.00075
3780.3,0.00062
3776.45,-0.00084
3772.59,0.00011
3768.73,0.00240
3764.87,0.00164
3761.02,0.00217
3757.16,0.00402
3753.3,0.00709
3749.44,0.01077
3745.59,0.00815
3741.73,0.00588
3737.87,0.00759
3734.01,0.00799
3730.16,0.00348
3726.3,0.00513
3722.44,0.00397
3718.58,0.00168
3714.73,0.00282
3710.87,0.00529
3707.01,0.00122
3703.15,0.00105
3699.3,0.00037
3695.44,0.00109
3691.58,0.00483
3687.72,0.00355
3683.87,0.00056
3680.01,0.00253
3676.15,0.00608
3672.29,0.00613
3668.44,0.00328
3664.58,-0.00002
3660.72,0.00038
3656.86,0.00226
3653.01,0.00384
3649.15,0.01015
3645.29,0.00331
3641.44,0.00156
3637.58,0.00105
3633.72,0.00245
3629.86,0.00599
3626.01,0.00302
3622.15,0.00316
3618.29,0.00621
3614.43,0.00575
3610.58,0.00495
3606.72,0.00265
3602.86,0.00226
3599,0.00387
3595.15,0.00312
3591.29,0.00235
3587.43,0.00544
3583.57,0.00187
3579.72,0.00107
3575.86,0.00093
3572,0.00120
3568.14,0.00607
3564.29,0.00440
3560.43,0.00151
3556.57,0.00060
3552.71,0.00186
3548.86,0.00233
3545,0.00366
3541.14,0.00028
3537.28,0.00042
3533.43,0.00027
3529.57,0.00234
3525.71,0.00356
3521.85,0.00145
3518,-0.00026
3514.14,-0.00058
3510.28,0.00076
3506.42,0.00081
3502.57,0.00216
3498.71,0.00007
3494.85,-0.00037
3490.99,-0.00064
3487.14,-0.00010
3483.28,0.00041
3479.42,-0.00013
3475.56,-0.00076
3471.71,-0.00107
3467.85,-0.00080
3463.99,-0.00033
3460.13,-0.00039
3456.28,-0.00084
3452.42,-0.00103
3448.56,0.00024
3444.7,0.00042
3440.85,-0.00026
3436.99,-0.00075
3433.13,-0.00061
3429.28,-0.00058
3425.42,-0.00049
3421.56,0.00034
3417.7,-0.00064
3413.85,-0.00098
3409.99,-0.00112
3406.13,-0.00108
3402.27,-0.00090
3398.42,-0.00073
3394.56,-0.00046
3390.7,-0.00075
3386.84,-0.00090
3382.99,-0.00074
3379.13,-0.00102
3375.27,-0.00116
3371.41,-0.00103
3367.56,-0.00054
3363.7,-0.00052
3359.84,-0.00066
3355.98,-0.00070
3352.13,-0.00105
3348.27,-0.00105
3344.41,-0.00091
3340.55,-0.00072
3336.7,-0.00039
3332.84,-0.00079
3328.98,-0.00056
3325.12,-0.00055
3321.27,-0.00071
3317.41,-0.00078
3313.55,-0.00044
3309.69,-0.00018
3305.84,-0.00057
3301.98,-0.00059
3298.12,-0.00040
3294.26,-0.00037
3290.41,-0.00023
3286.55,-0.00044
3282.69,-0.00022
3278.83,-0.00017
3274.98,0.00002
3271.12,-0.00026
3267.26,-0.00037
3263.4,-0.00038
3259.55,-0.00029
3255.69,-0.00005
3251.83,-0.00030
3247.97,-0.00021
3244.12,0.00006
3240.26,-0.00001
3236.4,-0.00008
3232.55,0.00005
3228.69,0.00013
3224.83,-0.00010
3220.97,0.00010
3217.12,0.00014
3213.26,0.00014
3209.4,0.00018
3205.54,0.00019
3201.69,0.00030
3197.83,0.00051
3193.97,0.00027
3190.11,0.00015
3186.26,0.00038
3182.4,0.00047
3178.54,0.00065
3174.68,0.00038
3170.83,0.00044
3166.97,0.00041
3163.11,0.00038
3159.25,0.00028
3155.4,0.00054
3151.54,0.00058
3147.68,0.00061
3143.82,0.00064
3139.97,0.00065
3136.11,0.00082
3132.25,0.00088
3128.39,0.00093
3124.54,0.00118
3120.68,0.00136
3116.82,0.00136
3112.96,0.00120
3109.11,0.00128
3105.25,0.00134
3101.39,0.00173
3097.53,0.00159
3093.68,0.00150
3089.82,0.00139
3085.96,0.00159
3082.1,0.00196
3078.25,0.00187
3074.39,0.00171
3070.53,0.00184
3066.67,0.00210
3062.82,0.00197
3058.96,0.00197
3055.1,0.00214
3051.24,0.00192
3047.39,0.00187
3043.53,0.00166
3039.67,0.00159
3035.82,0.00188
3031.96,0.00227
3028.1,0.00181
3024.24,0.00187
3020.39,0.00183
3016.53,0.00197
3012.67,0.00255
3008.81,0.00255
3004.96,0.00261
3001.1,0.00264
2997.24,0.00276
2993.38,0.00292
2989.53,0.00305
2985.67,0.00321
2981.81,0.00366
2977.95,0.00407
2974.1,0.00453
2970.24,0.00499
2966.38,0.00521
2962.52,0.00542
2958.67,0.00531
2954.81,0.00517
2950.95,0.00498
2947.09,0.00458
2943.24,0.00423
2939.38,0.00412
2935.52,0.00422
2931.66,0.00440
2927.81,0.00458
2923.95,0.00482
2920.09,0.00490
2916.23,0.00480
2912.38,0.00466
2908.52,0.00464
2904.66,0.00456
2900.8,0.00432
2896.95,0.00411
2893.09,0.00406
2889.23,0.00403
2885.37,0.00392
2881.52,0.00377
2877.66,0.00380
2873.8,0.00384
2869.94,0.00393
2866.09,0.00387
2862.23,0.00397
2858.37,0.00423
2854.51,0.00439
2850.66,0.00423
2846.8,0.00390
2842.94,0.00355
2839.08,0.00327
2835.23,0.00317
2831.37,0.00308
2827.51,0.00309
2823.66,0.00302
2819.8,0.00288
2815.94,0.00300
2812.08,0.00303
2808.23,0.00297
2804.37,0.00301
2800.51,0.00303
2796.65,0.00298
2792.8,0.00296
2788.94,0.00299
2785.08,0.00300
2781.22,0.00303
2777.37,0.00305
2773.51,0.00306
2769.65,0.00302
2765.79,0.00298
2761.94,0.00300
2758.08,0.00306
2754.22,0.00305
2750.36,0.00305
2746.51,0.00311
2742.65,0.00309
2738.79,0.00308
2734.93,0.00308
2731.08,0.00313
2727.22,0.00315
2723.36,0.00312
2719.5,0.00310
2715.65,0.00310
2711.79,0.00313
2707.93,0.00312
2704.07,0.00311
2700.22,0.00318
2696.36,0.00323
2692.5,0.00319
2688.64,0.00324
2684.79,0.00325
2680.93,0.00320
2677.07,0.00322
2673.21,0.00320
2669.36,0.00330
2665.5,0.00334
2661.64,0.00333
2657.78,0.00326
2653.93,0.00330
2650.07,0.00330
2646.21,0.00315
2642.35,0.00324
2638.5,0.00322
2634.64,0.00312
2630.78,0.00315
2626.93,0.00322
2623.07,0.00315
2619.21,0.00298
2615.35,0.00306
2611.5,0.00303
2607.64,0.00297
2603.78,0.00298
2599.92,0.00298
2596.07,0.00310
2592.21,0.00318
2588.35,0.00321
2584.49,0.00325
2580.64,0.00331
2576.78,0.00331
2572.92,0.00328
2569.06,0.00321
2565.21,0.00312
2561.35,0.00309
2557.49,0.00308
2553.63,0.00318
2549.78,0.00317
2545.92,0.00321
2542.06,0.00325
2538.2,0.00332
2534.35,0.00336
2530.49,0.00332
2526.63,0.00328
2522.77,0.00334
2518.92,0.00333
2515.06,0.00320
2511.2,0.00315
2507.34,0.00324
2503.49,0.00345
2499.63,0.00335
2495.77,0.00333
2491.91,0.00334
2488.06,0.00337
2484.2,0.00326
2480.34,0.00328
2476.48,0.00334
2472.63,0.00337
2468.77,0.00347
2464.91,0.00341
2461.05,0.00342
2457.2,0.00342
2453.34,0.00331
2449.48,0.00327
2445.62,0.00331
2441.77,0.00336
2437.91,0.00349
2434.05,0.00364
2430.2,0.00363
2426.34,0.00360
2422.48,0.00354
2418.62,0.00366
2414.77,0.00374
2410.91,0.00380
2407.05,0.00390
2403.19,0.00388
2399.34,0.00396
2395.48,0.00391
2391.62,0.00404
2387.76,0.00429
2383.91,0.00475
2380.05,0.00483
2376.19,0.00396
2372.33,0.00230
2368.48,-0.00030
2364.62,-0.00243
2360.76,-0.00216
2356.9,-0.00120
2353.05,0.00124
2349.19,0.00298
2345.33,0.00101
2341.47,-0.00099
2337.62,-0.00089
2333.76,-0.00007
2329.9,0.00118
2326.04,0.00211
2322.19,0.00340
2318.33,0.00424
2314.47,0.00450
2310.61,0.00516
2306.76,0.00514
2302.9,0.00470
2299.04,0.00464
2295.18,0.00463
2291.33,0.00454
2287.47,0.00449
2283.61,0.00441
2279.75,0.00408
2275.9,0.00412
2272.04,0.00396
2268.18,0.00402
2264.32,0.00386
2260.47,0.00372
2256.61,0.00399
2252.75,0.00420
2248.89,0.00397
2245.04,0.00430
2241.18,0.00402
2237.32,0.00395
2233.46,0.00424
2229.61,0.00409
2225.75,0.00400
2221.89,0.00383
2218.04,0.00376
2214.18,0.00383
2210.32,0.00349
2206.46,0.00338
2202.61,0.00354
2198.75,0.00339
2194.89,0.00315
2191.03,0.00298
2187.18,0.00308
2183.32,0.00274
2179.46,0.00275
2175.6,0.00291
2171.75,0.00279
2167.89,0.00266
2164.03,0.00273
2160.17,0.00299
2156.32,0.00315
2152.46,0.00355
2148.6,0.00366
2144.74,0.00382
2140.89,0.00417
2137.03,0.00415
2133.17,0.00410
2129.31,0.00413
2125.46,0.00384
2121.6,0.00376
2117.74,0.00369
2113.88,0.00378
2110.03,0.00356
2106.17,0.00377
2102.31,0.00396
2098.45,0.00410
2094.6,0.00415
2090.74,0.00444
2086.88,0.00435
2083.02,0.00429
2079.17,0.00424
2075.31,0.00413
2071.45,0.00423
2067.59,0.00491
2063.74,0.00519
2059.88,0.00456
2056.02,0.00439
2052.16,0.00449
2048.31,0.00395
2044.45,0.00444
2040.59,0.00506
2036.73,0.00462
2032.88,0.00422
2029.02,0.00416
2025.16,0.00443
2021.31,0.00436
2017.45,0.00533
2013.59,0.00483
2009.73,0.00485
2005.88,0.00482
2002.02,0.00464
1998.16,0.00479
1994.3,0.00565
1990.45,0.00628
1986.59,0.00581
1982.73,0.00562
1978.87,0.00551
1975.02,0.00523
1971.16,0.00527
1967.3,0.00631
1963.44,0.00532
1959.59,0.00573
1955.73,0.00626
1951.87,0.00606
1948.01,0.00618
1944.16,0.00739
1940.3,0.00638
1936.44,0.00558
1932.58,0.00569
1928.73,0.00520
1924.87,0.00646
1921.01,0.00752
1917.15,0.00654
1913.3,0.00556
1909.44,0.00659
1905.58,0.00561
1901.72,0.00533
1897.87,0.00567
1894.01,0.00595
1890.15,0.00630
1886.29,0.00572
1882.44,0.00511
1878.58,0.00501
1874.72,0.00531
1870.86,0.00774
1867.01,0.00840
1863.15,0.00581
1859.29,0.00580
1855.43,0.00520
1851.58,0.00539
1847.72,0.00781
1843.86,0.00914
1840,0.00658
1836.15,0.00648
1832.29,0.00708
1828.43,0.00825
1824.57,0.00765
1820.72,0.00619
1816.86,0.00603
1813,0.00685
1809.15,0.00739
1805.29,0.00687
1801.43,0.00866
1797.57,0.00881
1793.72,0.01015
1789.86,0.00811
1786,0.00676
1782.14,0.00761
1778.29,0.00768
1774.43,0.00907
1770.57,0.01016
1766.71,0.00752
1762.86,0.00788
1759,0.00890
1755.14,0.00888
1751.28,0.01312
1747.43,0.01815
1743.57,0.02004
1739.71,0.02565
1735.85,0.03272
1732,0.04404
1728.14,0.04659
1724.28,0.05256
1720.42,0.05998
1716.57,0.07357
1712.71,0.07087
1708.85,0.06739
1704.99,0.06357
1701.14,0.05804
1697.28,0.04977
1693.42,0.03820
1689.56,0.03631
1685.71,0.03625
1681.85,0.03340
1677.99,0.02902
1674.13,0.02767
1670.28,0.02704
1666.42,0.02195
1662.56,0.02110
1658.7,0.01941
1654.85,0.02175
1650.99,0.02175
1647.13,0.02194
1643.27,0.01730
1639.42,0.01751
1635.56,0.01848
1631.7,0.01470
1627.84,0.01510
1623.99,0.01625
1620.13,0.01560
1616.27,0.01627
1612.42,0.01493
1608.56,0.01541
1604.7,0.01427
1600.84,0.01281
1596.99,0.01204
1593.13,0.01207
1589.27,0.01166
1585.41,0.01164
1581.56,0.01303
1577.7,0.01623
1573.84,0.01522
1569.98,0.01482
1566.13,0.01406
1562.27,0.01493
1558.41,0.01993
1554.55,0.01769
1550.7,0.01562
1546.84,0.01607
1542.98,0.02451
1539.12,0.01884
1535.27,0.01741
1531.41,0.01608
1527.55,0.01793
1523.69,0.02172
1519.84,0.02057
1515.98,0.01874
1512.12,0.01849
1508.26,0.02570
1504.41,0.02035
1500.55,0.01815
1496.69,0.01581
1492.83,0.01334
1488.98,0.01725
1485.12,0.01284
1481.26,0.01239
1477.4,0.01438
1473.55,0.01996
1469.69,0.01585
1465.83,0.01561
1461.97,0.01598
1458.12,0.02190
1454.26,0.02018
1450.4,0.01764
1446.54,0.01691
1442.69,0.01549
1438.83,0.01705
1434.97,0.01761
1431.11,0.01516
1427.26,0.01286
1423.4,0.01316
1419.54,0.01631
1415.69,0.01906
1411.83,0.02460
1407.97,0.02784
1404.11,0.02445
1400.26,0.02170
1396.4,0.02155
1392.54,0.01729
1388.68,0.01720
1384.83,0.01584
1380.97,0.01525
1377.11,0.01712
1373.25,0.01880
1369.4,0.01725
1365.54,0.01600
1361.68,0.01536
1357.82,0.01220
1353.97,0.01183
1350.11,0.01283
1346.25,0.01647
1342.39,0.02333
1338.54,0.02846
1334.68,0.02033
1330.82,0.01450
1326.96,0.01235
1323.11,0.01325
1319.25,0.01630
1315.39,0.01807
1311.53,0.01947
1307.68,0.02070
1303.82,0.02216
1299.96,0.02414
1296.1,0.02716
1292.25,0.03044
1288.39,0.03437
1284.53,0.03696
1280.67,0.04000
1276.82,0.04350
1272.96,0.04783
1269.1,0.05249
1265.24,0.05642
1261.39,0.05955
1257.53,0.06106
1253.67,0.06258
1249.81,0.06547
1245.96,0.06899
1242.1,0.07186
1238.24,0.07283
1234.38,0.07218
1230.53,0.07091
1226.67,0.06966
1222.81,0.06758
1218.95,0.06376
1215.1,0.05827
1211.24,0.05270
1207.38,0.04765
1203.53,0.04331
1199.67,0.03948
1195.81,0.03590
1191.95,0.03279
1188.1,0.03027
1184.24,0.02838
1180.38,0.02754
1176.52,0.02756
1172.67,0.02713
1168.81,0.02567
1164.95,0.02399
1161.09,0.02278
1157.24,0.02234
1153.38,0.02282
1149.52,0.02413
1145.66,0.02639
1141.81,0.02951
1137.95,0.03357
1134.09,0.03851
1130.23,0.04400
1126.38,0.04946
1122.52,0.05406
1118.66,0.05680
1114.8,0.05732
1110.95,0.05765
1107.09,0.06040
1103.23,0.06549
1099.37,0.07060
1095.52,0.07406
1091.66,0.07497
1087.8,0.07356
1083.94,0.07106
1080.09,0.06839
1076.23,0.06563
1072.37,0.06154
1068.51,0.05636
1064.66,0.05168
1060.8,0.04804
1056.94,0.04594
1053.08,0.04517
1049.23,0.04543
1045.37,0.04593
1041.51,0.04584
1037.65,0.04457
1033.8,0.04263
1029.94,0.04066
1026.08,0.04203
1022.22,0.04976
1018.37,0.05880
1014.51,0.05996
1010.65,0.05269
1006.8,0.04718
1002.94,0.04414
999.08,0.04211
995.223,0.04040
991.365,0.03957
987.508,0.03866
983.65,0.03817
979.793,0.03836
975.935,0.03908
972.078,0.04038
968.221,0.04100
964.363,0.04002
960.506,0.03862
956.648,0.03705
952.791,0.03611
948.933,0.03516
945.076,0.03504
941.218,0.03512
937.361,0.03502
933.503,0.03503
929.646,0.03471
925.789,0.03400
921.931,0.03330
918.074,0.03215
914.216,0.03134
910.359,0.03129
906.501,0.03189
902.644,0.03231
898.786,0.03319
894.929,0.03355
891.072,0.03323
887.214,0.03318
883.357,0.03404
879.499,0.03688
875.642,0.04171
871.784,0.04703
867.927,0.04423
864.069,0.03991
860.212,0.03820
856.354,0.03789
852.497,0.03830
848.64,0.03976
844.782,0.04019
840.925,0.03927
837.067,0.03787
833.21,0.03666
829.352,0.03568
825.495,0.03486
821.637,0.03482
817.78,0.03392
813.922,0.03264
810.065,0.03300
806.208,0.03301
802.35,0.03265
798.493,0.03237
794.635,0.03343
790.778,0.03396
786.92,0.03214
783.063,0.03081
779.205,0.02953
775.348,0.02874
771.49,0.02804
767.633,0.02618
763.776,0.02399
759.918,0.02299
756.061,0.02154
752.203,0.02024
748.346,0.01946
744.488,0.01967
740.631,0.02412
736.773,0.03554
732.916,0.05204
729.058,0.07143
725.201,0.08942
721.344,0.09185
717.486,0.08191
713.629,0.07252
709.771,0.06599
705.914,0.06154
702.056,0.05738
698.199,0.05344
694.341,0.04979
690.484,0.04735
686.627,0.04564
682.769,0.04443
678.912,0.04388
675.054,0.04325
671.197,0.04194
667.339,0.04002
663.482,0.04020
659.624,0.04023
655.767,0.03979
651.909,0.03927
648.052,0.03860
644.195,0.03845
640.337,0.03854
636.48,0.03876
632.622,0.03912
628.765,0.03787
624.907,0.03559
621.05,0.03440
617.192,0.03942
613.335,0.03790
609.477,0.03714
605.62,0.03700
601.763,0.03786
599.834,0.03814