File: 01_Data/PETG/STA/N2/10K_min/PETG_STA_N2_10KData_210831_R1.csv
##Temp./Â°C,Time/min,Mass loss(subtr.2)/mg,DSC(subtr.2)/(mW/mg),Sensit./(uV/mW)
49.708,10.00917,-0.01382,-0.006533795,1.03585
50.308,11.4607,-0.01657486,0.01175538,1.03582
50.908,11.82333,-0.0158002,0.02151662,1.03579
51.508,12.08728,-0.01575738,0.03166555,1.03576
52.108,12.30626,-0.01813529,0.04089254,1.03572
52.708,12.49713,-0.01612998,0.04865864,1.03569
53.308,12.66858,-0.01715372,0.05305663,1.03565
53.908,12.82784,-0.01710406,0.06096559,1.03562
54.508,12.97827,-0.01700581,0.06613038,1.03558
55.108,13.12067,-0.01745924,0.06892325,1.03554
55.708,13.25424,-0.01684711,0.07458256,1.03549
56.308,13.38504,-0.01748715,0.0771361,1.03545
56.908,13.51119,-0.01859368,0.08215312,1.0354
57.508,13.63171,-0.01811394,0.08487045,1.03536
58.108,13.7485,-0.01843507,0.08791375,1.03531
58.708,13.86266,-0.0195685,0.09131849,1.03526
59.308,13.97385,-0.01834288,0.09412739,1.0352
59.908,14.08266,-0.01832701,0.09532288,1.03515
60.508,14.18873,-0.01833308,0.09984668,1.0351
61.108,14.2926,-0.01833013,0.1031,1.03504
61.708,14.39512,-0.0196141,0.10442,1.03498
62.308,14.49505,-0.02074248,0.10824,1.03492
62.908,14.59295,-0.01789405,0.10961,1.03486
63.508,14.6897,-0.01852969,0.1128,1.0348
64.108,14.78447,-0.01956792,0.11744,1.03473
64.708,14.8781,-0.0195113,0.12029,1.03467
65.308,14.97042,-0.02078467,0.11979,1.0346
65.908,15.0609,-0.01953167,0.12434,1.03453
66.508,15.1504,-0.02080089,0.12525,1.03446
67.108,15.2387,-0.02083077,0.12708,1.03439
67.708,15.32576,-0.02127501,0.12891,1.03432
68.308,15.41165,-0.02226453,0.12961,1.03424
68.908,15.4967,-0.02092054,0.13302,1.03417
69.508,15.5808,-0.02218548,0.13703,1.03409
70.108,15.66475,-0.02175527,0.13631,1.03401
70.708,15.747,-0.02228678,0.1385,1.03393
71.308,15.82805,-0.02298271,0.14136,1.03385
71.908,15.9089,-0.02227032,0.14384,1.03376
72.508,15.98885,-0.02216204,0.14403,1.03368
73.108,16.0684,-0.02088737,0.14426,1.03359
73.708,16.1471,-0.02217907,0.14614,1.0335
74.308,16.22438,-0.02224499,0.14488,1.03341
74.908,16.30153,-0.02227059,0.14563,1.03332
75.508,16.3787,-0.02368515,0.14406,1.03323
76.108,16.45495,-0.0237002,0.14636,1.03313
76.708,16.53045,-0.02369345,0.14665,1.03304
77.308,16.60545,-0.02483764,0.14829,1.03294
77.908,16.67924,-0.02370092,0.14793,1.03284
78.508,16.7527,-0.02369064,0.14616,1.03274
79.108,16.82558,-0.02368468,0.14658,1.03264
79.708,16.89868,-0.02370014,0.1448,1.03254
80.308,16.9714,-0.02369087,0.14657,1.03243
80.908,17.0434,-0.02373921,0.14734,1.03233
81.508,17.1144,-0.02477553,0.14786,1.03222
82.108,17.18509,-0.02428553,0.14702,1.03211
82.708,17.25558,-0.02370063,0.14596,1.032
83.308,17.32546,-0.024868,0.14519,1.03189
83.908,17.3955,-0.02511991,0.142,1.03177
84.508,17.46475,-0.02558941,0.14334,1.03166
85.108,17.53375,-0.0249489,0.14268,1.03154
85.708,17.60193,-0.0250469,0.14097,1.03142
86.308,17.6703,-0.02381124,0.1438,1.0313
86.908,17.73845,-0.02512283,0.14238,1.03118
87.508,17.80573,-0.0251099,0.14216,1.03106
88.108,17.87268,-0.02496953,0.14253,1.03094
88.708,17.9393,-0.02545305,0.14305,1.03081
89.308,18.00603,-0.02512012,0.14281,1.03069
89.908,18.07218,-0.02509,0.14339,1.03056
90.508,18.13788,-0.02641917,0.14176,1.03043
91.108,18.2035,-0.02644343,0.144,1.0303
91.708,18.2688,-0.02643512,0.14352,1.03017
92.308,18.33372,-0.02776338,0.14263,1.03003
92.908,18.39821,-0.02643629,0.14413,1.0299
93.508,18.4623,-0.02645467,0.14319,1.02976
94.108,18.52659,-0.02642716,0.14221,1.02962
94.708,18.59085,-0.02775489,0.14372,1.02948
95.308,18.6548,-0.02650605,0.14391,1.02934
95.908,18.71854,-0.02646174,0.14353,1.0292
96.508,18.78183,-0.02710206,0.14419,1.02906
97.108,18.84504,-0.02775236,0.14543,1.02891
97.708,18.90774,-0.02696903,0.14688,1.02877
98.308,18.9703,-0.02730597,0.14667,1.02862
98.908,19.03289,-0.02777856,0.14777,1.02847
99.508,19.09541,-0.02762656,0.1475,1.02832
100.108,19.15801,-0.02863391,0.14754,1.02817
100.708,19.2201,-0.02776213,0.15106,1.02801
101.308,19.28192,-0.02775355,0.15023,1.02786
101.908,19.34357,-0.02769921,0.15097,1.0277
102.508,19.40534,-0.02934822,0.15274,1.02755
103.108,19.4669,-0.02929046,0.15454,1.02739
103.708,19.5284,-0.02797272,0.15482,1.02723
104.308,19.58955,-0.0266605,0.15639,1.02706
104.908,19.65082,-0.0279703,0.15683,1.0269
105.508,19.71204,-0.0278225,0.15893,1.02674
106.108,19.77318,-0.02656401,0.16279,1.02657
106.708,19.83383,-0.02798884,0.16189,1.0264
107.308,19.8944,-0.02799958,0.16314,1.02624
107.908,19.9547,-0.02797001,0.16469,1.02607
108.508,20.01514,-0.02797,0.16671,1.02589
109.108,20.07549,-0.02797187,0.1695,1.02572
109.708,20.13578,-0.02929082,0.16994,1.02555
110.308,20.1959,-0.02797122,0.17356,1.02537
110.908,20.256,-0.02796324,0.17394,1.0252
111.508,20.31596,-0.02927137,0.17559,1.02502
112.108,20.37583,-0.02927826,0.17606,1.02484
112.708,20.43561,-0.02936122,0.17911,1.02466
113.308,20.49524,-0.02860528,0.1813,1.02448
113.908,20.55463,-0.02927731,0.1837,1.02429
114.508,20.6139,-0.02950096,0.18474,1.02411
115.108,20.67306,-0.02917214,0.18652,1.02392
115.708,20.7322,-0.02818997,0.18767,1.02373
116.308,20.7913,-0.0281884,0.1884,1.02354
116.908,20.85077,-0.02950003,0.1895,1.02335
117.508,20.9098,-0.03054,0.19081,1.02316
118.108,20.96859,-0.02951312,0.19454,1.02297
118.708,21.02727,-0.03081712,0.19454,1.02278
119.308,21.08601,-0.02949437,0.19749,1.02258
119.908,21.14483,-0.02946339,0.1994,1.02238
120.508,21.20352,-0.02951253,0.2011,1.02219
121.108,21.26211,-0.02949783,0.20155,1.02199
121.708,21.3204,-0.03036715,0.20436,1.02179
122.308,21.3787,-0.02951,0.20519,1.02158
122.908,21.4369,-0.03091994,0.20464,1.02138
123.508,21.4946,-0.02951097,0.20651,1.02118
124.108,21.55251,-0.02966168,0.20753,1.02097
124.708,21.6103,-0.03079936,0.20883,1.02076
125.308,21.66819,-0.03015692,0.20996,1.02055
125.908,21.72589,-0.03077206,0.20905,1.02035
126.508,21.78344,-0.03081397,0.21045,1.02013
127.108,21.8409,-0.03213419,0.20904,1.01992
127.708,21.8981,-0.03083265,0.21353,1.01971
128.308,21.9555,-0.03082938,0.21356,1.01949
128.908,22.01274,-0.03172147,0.21753,1.01928
129.508,22.0699,-0.03081999,0.21665,1.01906
130.108,22.1267,-0.03065288,0.21639,1.01884
130.708,22.1836,-0.03088102,0.22036,1.01862
131.308,22.2404,-0.02944281,0.21779,1.0184
131.908,22.297,-0.03082163,0.22201,1.01818
132.508,22.3537,-0.03081977,0.22271,1.01795
133.108,22.41029,-0.0315735,0.22268,1.01773
133.708,22.46653,-0.03093446,0.22403,1.0175
134.308,22.5232,-0.03081927,0.22599,1.01727
134.908,22.57955,-0.02949938,0.22489,1.01705
135.508,22.636,-0.03080324,0.22852,1.01682
136.108,22.6927,-0.03082998,0.22936,1.01658
136.708,22.74896,-0.03083109,0.23123,1.01635
137.308,22.8051,-0.03114947,0.23044,1.01612
137.908,22.86099,-0.03115005,0.23228,1.01588
138.508,22.91686,-0.03090761,0.23289,1.01565
139.108,22.9728,-0.0321058,0.23542,1.01541
139.708,23.02856,-0.03082018,0.23545,1.01517
140.308,23.0843,-0.03068928,0.23525,1.01493
140.908,23.14012,-0.02992817,0.2359,1.01469
141.508,23.19576,-0.03080377,0.23794,1.01445
142.108,23.25149,-0.02982896,0.23634,1.0142
142.708,23.30716,-0.02982437,0.23833,1.01396
143.308,23.36262,-0.03117284,0.23965,1.01371
143.908,23.4182,-0.03140268,0.2398,1.01346
144.508,23.47353,-0.03083205,0.23835,1.01322
145.108,23.5288,-0.03082999,0.24216,1.01297
145.708,23.58419,-0.03168423,0.24178,1.01271
146.308,23.63939,-0.03214049,0.24187,1.01246
146.908,23.6946,-0.03315241,0.24228,1.01221
147.508,23.7498,-0.0321399,0.24409,1.01195
148.108,23.80501,-0.03118815,0.24488,1.0117
148.708,23.8601,-0.03155797,0.24585,1.01144
149.308,23.9152,-0.03214021,0.24746,1.01118
149.908,23.9702,-0.03214,0.2457,1.01092
150.508,24.0251,-0.03214697,0.24662,1.01066
151.108,24.0802,-0.03083096,0.2475,1.0104
151.708,24.13526,-0.03082949,0.24952,1.01014
152.308,24.19034,-0.03189247,0.25007,1.00987
152.908,24.2454,-0.03076915,0.2488,1.00961
153.508,24.30044,-0.03213952,0.25129,1.00934
154.108,24.35514,-0.03156716,0.25074,1.00907
154.708,24.4099,-0.03082022,0.25095,1.00881
155.308,24.46453,-0.03207889,0.25289,1.00854
155.908,24.51922,-0.03213,0.25386,1.00826
156.508,24.57382,-0.03212856,0.25485,1.00799
157.108,24.62848,-0.03082379,0.25651,1.00772
157.708,24.68313,-0.03214705,0.25468,1.00744
158.308,24.73772,-0.03214024,0.25655,1.00717
158.908,24.79232,-0.03141167,0.25732,1.00689
159.508,24.84701,-0.0324409,0.25754,1.00661
160.108,24.90165,-0.03246872,0.25719,1.00633
160.708,24.95618,-0.03279459,0.25796,1.00605
161.308,25.01079,-0.03378061,0.26024,1.00577
161.908,25.06525,-0.03343598,0.2609,1.00549
162.508,25.11979,-0.03213873,0.25872,1.00521
163.108,25.1743,-0.03266311,0.25907,1.00492
163.708,25.22851,-0.03213957,0.26141,1.00464
164.308,25.2829,-0.03213997,0.25969,1.00435
164.908,25.3373,-0.03215901,0.25943,1.00406
165.508,25.39196,-0.03209236,0.26175,1.00377
166.108,25.44671,-0.03214003,0.26113,1.00348
166.708,25.5012,-0.03212657,0.26312,1.00319
167.308,25.5556,-0.03083132,0.26225,1.0029
167.908,25.61003,-0.03083002,0.26303,1.0026
168.508,25.6645,-0.03074079,0.26413,1.00231
169.108,25.71888,-0.03081751,0.26506,1.00201
169.708,25.77337,-0.03081998,0.26543,1.00171
170.308,25.8276,-0.03082003,0.26506,1.00142
170.908,25.88186,-0.0308724,0.26521,1.00112
171.508,25.93627,-0.02985037,0.26776,1.00082
172.108,25.99033,-0.0298362,0.26844,1.00051
172.708,26.04475,-0.0308267,0.26954,1.00021
173.308,26.09903,-0.03082,0.26887,0.99991
173.908,26.1532,-0.03081698,0.2699,0.9996
174.508,26.20745,-0.03214692,0.27167,0.9993
175.108,26.2616,-0.03202941,0.27206,0.99899
175.708,26.31575,-0.03082255,0.27213,0.99868
176.308,26.36982,-0.03214241,0.27217,0.99837
176.908,26.42391,-0.03214635,0.27132,0.99806
177.508,26.4781,-0.03081871,0.27262,0.99775
178.108,26.53228,-0.03082023,0.27227,0.99744
178.708,26.58636,-0.03032387,0.27464,0.99713
179.308,26.64054,-0.02881685,0.27487,0.99681
179.908,26.6946,-0.03021596,0.27544,0.9965
180.508,26.74868,-0.03016999,0.27653,0.99618
181.108,26.80289,-0.03016999,0.27603,0.99586
181.708,26.8569,-0.03017684,0.27639,0.99554
182.308,26.91077,-0.030208,0.27707,0.99522
182.908,26.9647,-0.0301699,0.27701,0.9949
183.508,27.01851,-0.03017889,0.2801,0.99458
184.108,27.07227,-0.03149056,0.27844,0.99426
184.708,27.12586,-0.0304871,0.27942,0.99394
185.308,27.17963,-0.03049,0.27991,0.99361
185.908,27.2334,-0.03048435,0.28105,0.99329
186.508,27.2874,-0.03181239,0.27936,0.99296
187.108,27.34143,-0.03181008,0.28299,0.99263
187.708,27.3953,-0.03160232,0.28283,0.9923
188.308,27.44874,-0.03150228,0.28284,0.99197
188.908,27.50222,-0.03085544,0.28313,0.99164
189.508,27.5557,-0.03083917,0.28374,0.99131
190.108,27.6092,-0.03114997,0.28457,0.99098
190.708,27.6631,-0.03115074,0.28323,0.99064
191.308,27.7168,-0.03103265,0.28485,0.99031
191.908,27.7705,-0.03016029,0.28486,0.98997
192.508,27.8238,-0.03145464,0.28402,0.98963
193.108,27.87733,-0.03148002,0.28733,0.9893
193.708,27.931,-0.03149118,0.28803,0.98896
194.308,27.9846,-0.0327984,0.28891,0.98862
194.908,28.03813,-0.03279998,0.28902,0.98828
195.508,28.09175,-0.03274472,0.28946,0.98794
196.108,28.1453,-0.03205936,0.29071,0.98759
196.708,28.1988,-0.03278992,0.29002,0.98725
197.308,28.25276,-0.03279,0.29244,0.9869
197.908,28.30627,-0.03278999,0.29264,0.98656
198.508,28.36,-0.03278686,0.29198,0.98621
199.108,28.41354,-0.03139922,0.2909,0.98586
199.708,28.4672,-0.03280019,0.29367,0.98551
200.308,28.52082,-0.03279988,0.29505,0.98517
200.908,28.57426,-0.03313743,0.29445,0.98481
201.508,28.62775,-0.0334601,0.29439,0.98446
202.108,28.68099,-0.03346,0.29742,0.98411
202.708,28.73425,-0.03345917,0.29574,0.98376
203.308,28.78773,-0.03341664,0.29752,0.9834
203.908,28.84127,-0.03279574,0.29723,0.98305
204.508,28.89463,-0.03280001,0.29932,0.98269
205.108,28.94834,-0.0328,0.30065,0.98233
205.708,29.00197,-0.03280225,0.29948,0.98198
206.308,29.0555,-0.03386454,0.30098,0.98162
206.908,29.10952,-0.03247003,0.30161,0.98126
207.508,29.1631,-0.03246802,0.30279,0.9809
208.108,29.21671,-0.03279495,0.30381,0.98053
208.708,29.2702,-0.03387087,0.30359,0.98017
209.308,29.32357,-0.03412003,0.30634,0.97981
209.908,29.3771,-0.03412,0.30707,0.97944
210.508,29.43065,-0.03412,0.30675,0.97908
211.108,29.4843,-0.03412317,0.30996,0.97871
211.708,29.53787,-0.03338222,0.30972,0.97834
212.308,29.5914,-0.03342883,0.31014,0.97798
212.908,29.6448,-0.03410884,0.31044,0.97761
213.508,29.69833,-0.03411,0.31297,0.97724
214.108,29.75185,-0.03410997,0.31361,0.97687
214.708,29.8055,-0.03422737,0.31379,0.97649
215.308,29.85919,-0.03411003,0.31391,0.97612
215.908,29.91265,-0.03411,0.31815,0.97575
216.508,29.96616,-0.03411,0.31891,0.97537
217.108,30.01959,-0.03411,0.31952,0.975
217.708,30.073,-0.03410989,0.32061,0.97462
218.308,30.1268,-0.03298259,0.32454,0.97424
218.908,30.18037,-0.03280007,0.32347,0.97387
219.508,30.234,-0.03280173,0.32411,0.97349
220.108,30.28772,-0.03411187,0.32736,0.97311
220.708,30.3413,-0.03411999,0.32829,0.97273
221.308,30.3951,-0.03412669,0.32953,0.97235
221.908,30.44865,-0.03279933,0.3317,0.97196
222.508,30.5022,-0.03385493,0.33508,0.97158
223.108,30.55545,-0.03509996,0.3342,0.9712
223.708,30.6091,-0.03510026,0.33885,0.97081
224.308,30.66279,-0.03378182,0.34029,0.97043
224.908,30.71622,-0.03378,0.33953,0.97004
225.508,30.77025,-0.03378,0.34509,0.96965
226.108,30.82416,-0.03378,0.34909,0.96926
226.708,30.8781,-0.03378029,0.35172,0.96888
227.308,30.9321,-0.03267958,0.35432,0.96849
227.908,30.9856,-0.03249433,0.36043,0.9681
228.508,31.03898,-0.03378994,0.36175,0.9677
229.108,31.09243,-0.03378997,0.36629,0.96731
229.708,31.14607,-0.03392557,0.36953,0.96692
230.308,31.1997,-0.03511015,0.37053,0.96652
230.908,31.2535,-0.03510998,0.3757,0.96613
231.508,31.30715,-0.0351235,0.38014,0.96573
232.108,31.36095,-0.03412089,0.38555,0.96534
232.708,31.41455,-0.03412009,0.38879,0.96494
233.308,31.4682,-0.03408648,0.39393,0.96454
233.908,31.52181,-0.03477032,0.39884,0.96414
234.508,31.57537,-0.0347893,0.40497,0.96374
235.108,31.62919,-0.03509954,0.41216,0.96334
235.708,31.683,-0.03510004,0.41832,0.96294
236.308,31.73677,-0.03510708,0.42505,0.96254
236.908,31.79053,-0.03513366,0.43061,0.96214
237.508,31.8442,-0.03509979,0.44006,0.96173
238.108,31.8979,-0.03516187,0.44698,0.96133
238.708,31.9518,-0.03410946,0.45649,0.96093
239.308,32.00573,-0.03301275,0.46898,0.96052
239.908,32.05965,-0.03306165,0.47748,0.96011
240.508,32.11342,-0.03400048,0.48931,0.95971
241.108,32.16721,-0.03400399,0.49976,0.9593
241.708,32.2211,-0.03334364,0.5166,0.95889
242.308,32.27485,-0.03467595,0.53005,0.95848
242.908,32.3288,-0.03466645,0.54381,0.95807
243.508,32.38261,-0.03401136,0.56388,0.95766
244.108,32.43642,-0.03401172,0.57955,0.95725
244.708,32.49031,-0.03532409,0.59753,0.95683
245.308,32.54364,-0.03531999,0.62052,0.95642
245.908,32.59727,-0.03532,0.64168,0.95601
246.508,32.65118,-0.03532,0.66509,0.95559
247.108,32.70482,-0.03531899,0.689,0.95517
247.708,32.7592,-0.03399776,0.71233,0.95476
248.308,32.81346,-0.0340017,0.74035,0.95434
248.908,32.8675,-0.03531146,0.76723,0.95392
249.508,32.92168,-0.03531999,0.79459,0.9535
250.108,32.97573,-0.03531323,0.82103,0.95309
250.708,33.0295,-0.03465962,0.8443,0.95267
251.308,33.0835,-0.03466002,0.86469,0.95224
251.908,33.13727,-0.0346471,0.87629,0.95182
252.508,33.19133,-0.03366605,0.88272,0.9514
253.108,33.24561,-0.03499518,0.87663,0.95098
253.708,33.29968,-0.03499,0.85659,0.95055
254.308,33.35392,-0.03499,0.82227,0.95013
254.908,33.408,-0.03499108,0.77213,0.94971
255.508,33.4619,-0.0363064,0.7143,0.94928
256.108,33.51592,-0.03629999,0.65375,0.94885
256.708,33.56963,-0.0363,0.59846,0.94843
257.308,33.62339,-0.03632852,0.55215,0.948
257.908,33.67707,-0.03598068,0.51418,0.94757
258.508,33.7309,-0.03486596,0.48601,0.94714
259.108,33.78482,-0.0346601,0.45956,0.94671
259.708,33.83858,-0.03594339,0.44101,0.94628
260.308,33.89227,-0.03597987,0.42203,0.94585
260.908,33.94582,-0.03598001,0.4093,0.94542
261.508,33.9994,-0.03598097,0.39845,0.94499
262.108,34.05314,-0.03631718,0.39014,0.94455
262.708,34.10699,-0.03597989,0.38165,0.94412
263.308,34.161,-0.03598,0.37695,0.94368
263.908,34.21496,-0.03598003,0.37325,0.94325
264.508,34.26862,-0.03569377,0.36617,0.94281
265.108,34.32253,-0.0346595,0.36133,0.94238
265.708,34.3765,-0.03466,0.35965,0.94194
266.308,34.43043,-0.03466,0.35612,0.9415
266.908,34.48471,-0.03465964,0.35383,0.94106
267.508,34.53869,-0.03529835,0.35321,0.94063
268.108,34.59253,-0.0353199,0.35016,0.94019
268.708,34.64646,-0.03531999,0.3503,0.93975
269.308,34.7005,-0.03531218,0.35117,0.93931
269.908,34.7545,-0.03401164,0.34868,0.93886
270.508,34.80858,-0.03401,0.34605,0.93842
271.108,34.86264,-0.03400974,0.34766,0.93798
271.708,34.91666,-0.03452693,0.34817,0.93754
272.308,34.9707,-0.03466982,0.3454,0.93709
272.908,35.0248,-0.03606386,0.34519,0.93665
273.508,35.0788,-0.03597999,0.34548,0.9362
274.108,35.1328,-0.03598,0.34328,0.93576
274.708,35.18675,-0.03598,0.34269,0.93531
275.308,35.2408,-0.03598,0.3434,0.93486
275.908,35.29487,-0.03598,0.34483,0.93442
276.508,35.34892,-0.03598004,0.34345,0.93397
277.108,35.40305,-0.03511969,0.34449,0.93352
277.708,35.45726,-0.03463668,0.34377,0.93307
278.308,35.5114,-0.03373332,0.34302,0.93262
278.908,35.56564,-0.03400013,0.34557,0.93217
279.508,35.6198,-0.03399944,0.34432,0.93172
280.108,35.67394,-0.03464176,0.34457,0.93127
280.708,35.7282,-0.03466002,0.34265,0.93081
281.308,35.78228,-0.03470817,0.34332,0.93036
281.908,35.83651,-0.03465755,0.3442,0.92991
282.508,35.89073,-0.03336578,0.345,0.92945
283.108,35.94498,-0.03466563,0.34275,0.929
283.708,35.99922,-0.03466,0.34545,0.92854
284.308,36.0533,-0.03461678,0.34584,0.92809
284.908,36.1075,-0.03597119,0.34519,0.92763
285.508,36.16167,-0.03597,0.34415,0.92717
286.108,36.21589,-0.03597,0.3445,0.92672
286.708,36.2702,-0.03597,0.34362,0.92626
287.308,36.3245,-0.03597005,0.34345,0.9258
287.908,36.3788,-0.03596244,0.34242,0.92534
288.508,36.43311,-0.03334735,0.3421,0.92488
289.108,36.48754,-0.03441447,0.34294,0.92442
289.708,36.54188,-0.0336697,0.34496,0.92396
290.308,36.59622,-0.03367,0.34349,0.9235
290.908,36.65057,-0.03367047,0.34308,0.92304
291.508,36.70482,-0.03496832,0.34499,0.92258
292.108,36.7594,-0.03463963,0.34428,0.92211
292.708,36.81392,-0.03444363,0.34536,0.92165
293.308,36.86843,-0.03444,0.34599,0.92119
293.908,36.92307,-0.03444,0.34405,0.92072
294.508,36.97763,-0.03444,0.34656,0.92026
295.108,37.03222,-0.03444,0.34651,0.91979
295.708,37.08677,-0.03444,0.34768,0.91933
296.308,37.14136,-0.03444002,0.34456,0.91886
296.908,37.19582,-0.03440463,0.34895,0.91839
297.508,37.25035,-0.0347701,0.34543,0.91793
298.108,37.30515,-0.03477,0.34784,0.91746
298.708,37.35982,-0.03477002,0.3471,0.91699
299.308,37.41455,-0.03467853,0.34606,0.91652
299.908,37.46883,-0.03609003,0.34769,0.91605
300.508,37.52337,-0.03609,0.34705,0.91558
301.108,37.57796,-0.03609,0.34771,0.91511
301.708,37.63262,-0.03609001,0.34519,0.91464
302.308,37.68756,-0.03608032,0.34648,0.91417
302.908,37.74217,-0.03476644,0.34549,0.9137
303.508,37.79678,-0.03472411,0.34662,0.91323
304.108,37.8515,-0.0360891,0.34761,0.91276
304.708,37.90613,-0.03614036,0.34737,0.91228
305.308,37.96078,-0.03477069,0.34585,0.91181
305.908,38.01559,-0.03479545,0.34735,0.91134
306.508,38.07028,-0.03608028,0.34841,0.91086
307.108,38.125,-0.03608751,0.34636,0.91039
307.708,38.17973,-0.0350977,0.3484,0.90991
308.308,38.2344,-0.03510192,0.34733,0.90944
308.908,38.28914,-0.03640989,0.34838,0.90896
309.508,38.34367,-0.03640987,0.34614,0.90848
310.108,38.3983,-0.03515538,0.34719,0.90801
310.708,38.45302,-0.03510014,0.34611,0.90753
311.308,38.50789,-0.03509984,0.34807,0.90705
311.908,38.563,-0.03606562,0.34846,0.90657
312.508,38.61775,-0.03640945,0.3504,0.90609
313.108,38.6725,-0.03508107,0.34635,0.90561
313.708,38.72717,-0.03366269,0.34654,0.90513
314.308,38.78192,-0.03498814,0.34478,0.90465
314.908,38.83665,-0.03525135,0.34612,0.90417
315.508,38.89155,-0.03727921,0.34657,0.90369
316.108,38.9465,-0.03729001,0.34543,0.90321
316.708,39.00141,-0.03729682,0.34526,0.90273
317.308,39.05621,-0.03630736,0.34768,0.90225
317.908,39.11095,-0.03631,0.34731,0.90177
318.508,39.16577,-0.03631018,0.34724,0.90128
319.108,39.22058,-0.03595717,0.34812,0.9008
319.708,39.27547,-0.03608605,0.34881,0.90032
320.308,39.33025,-0.03456058,0.35003,0.89983
320.908,39.38499,-0.03366959,0.34984,0.89935
321.508,39.4398,-0.03366818,0.34752,0.89886
322.108,39.49476,-0.03465967,0.34738,0.89838
322.708,39.5497,-0.03494047,0.34812,0.89789
323.308,39.60485,-0.03357554,0.34753,0.89741
323.908,39.65992,-0.03428297,0.34781,0.89692
324.508,39.7148,-0.03488023,0.35059,0.89643
325.108,39.76983,-0.03488,0.34993,0.89595
325.708,39.82488,-0.03487067,0.34993,0.89546
326.308,39.88,-0.03455028,0.35014,0.89497
326.908,39.93508,-0.03455,0.35174,0.89448
327.508,39.9901,-0.03455,0.3519,0.89399
328.108,40.04503,-0.03455008,0.35094,0.89351
328.708,40.0999,-0.03417212,0.35271,0.89302
329.308,40.1549,-0.03375395,0.34946,0.89253
329.908,40.20989,-0.03388998,0.35091,0.89204
330.508,40.26495,-0.03389,0.35017,0.89155
331.108,40.32007,-0.03389,0.34992,0.89106
331.708,40.37508,-0.03389955,0.35303,0.89056
332.308,40.43025,-0.03421967,0.35272,0.89007
332.908,40.48533,-0.03412207,0.35537,0.88958
333.508,40.54058,-0.03554176,0.35382,0.88909
334.108,40.59584,-0.03421529,0.35207,0.8886
334.708,40.65105,-0.03422,0.35348,0.8881
335.308,40.7061,-0.03421999,0.35451,0.88761
335.908,40.76108,-0.034213,0.35161,0.88712
336.508,40.81619,-0.03356711,0.35464,0.88662
337.108,40.87147,-0.0349739,0.3536,0.88613
337.708,40.9268,-0.03488994,0.35268,0.88564
338.308,40.9822,-0.03489,0.35685,0.88514
338.908,41.0376,-0.03489001,0.35465,0.88465
339.508,41.09277,-0.03494622,0.35658,0.88415
340.108,41.148,-0.03586975,0.35775,0.88366
340.708,41.20347,-0.03587,0.35753,0.88316
341.308,41.25861,-0.03587,0.35613,0.88266
341.908,41.31426,-0.03586825,0.35954,0.88217
342.508,41.36976,-0.03454778,0.35778,0.88167
343.108,41.42516,-0.03488574,0.35965,0.88117
343.708,41.48083,-0.03587322,0.36061,0.88068
344.308,41.53626,-0.03620148,0.36081,0.88018
344.908,41.5916,-0.0362,0.36233,0.87968
345.508,41.6471,-0.03619901,0.36105,0.87918
346.108,41.70255,-0.03519396,0.36225,0.87869
346.708,41.7579,-0.03521,0.36036,0.87819
347.308,41.8134,-0.03520396,0.36105,0.87769
347.908,41.86874,-0.03652049,0.36033,0.87719
348.508,41.92423,-0.03652,0.36219,0.87669
349.108,41.9799,-0.03652,0.35956,0.87619
349.708,42.03535,-0.03652,0.36085,0.87569
350.308,42.09091,-0.03652,0.36164,0.87519
350.908,42.14642,-0.03651374,0.36073,0.87469
351.508,42.20187,-0.03783826,0.36,0.87419
352.108,42.2573,-0.03784038,0.3643,0.87369
352.708,42.31282,-0.03654623,0.3633,0.87319
353.308,42.36834,-0.03652076,0.3622,0.87269
353.908,42.42398,-0.03784664,0.36296,0.87218
354.508,42.47951,-0.03784006,0.36421,0.87168
355.108,42.53515,-0.03896247,0.36429,0.87118
355.708,42.5907,-0.03915992,0.36307,0.87068
356.308,42.6463,-0.03922101,0.36577,0.87018
356.908,42.70199,-0.0378379,0.36526,0.86967
357.508,42.75759,-0.03784,0.36601,0.86917
358.108,42.8132,-0.03784,0.36853,0.86867
358.708,42.86873,-0.03784,0.36661,0.86816
359.308,42.9244,-0.03784,0.36686,0.86766
359.908,42.98017,-0.03784018,0.36897,0.86715
360.508,43.03603,-0.03901703,0.3689,0.86665
361.108,43.09182,-0.03913219,0.37037,0.86615
361.708,43.1475,-0.04048118,0.37175,0.86564
362.308,43.20333,-0.04048003,0.37088,0.86514
362.908,43.25922,-0.04048097,0.37121,0.86463
363.508,43.31505,-0.03893881,0.37164,0.86413
364.108,43.37083,-0.03973826,0.37277,0.86362
364.708,43.42661,-0.04020542,0.37778,0.86312
365.308,43.48222,-0.04133037,0.37788,0.86261
365.908,43.53803,-0.04157181,0.37913,0.8621
366.508,43.59406,-0.04156733,0.38088,0.8616
367.108,43.64998,-0.04189965,0.38162,0.86109
367.708,43.7059,-0.04323159,0.38387,0.86058
368.308,43.76174,-0.04452913,0.38366,0.86008
368.908,43.81742,-0.04453,0.38775,0.85957
369.508,43.87318,-0.04453,0.38899,0.85906
370.108,43.92893,-0.04453002,0.38818,0.85856
370.708,43.98482,-0.04593266,0.39065,0.85805
371.308,44.04078,-0.04585057,0.39392,0.85754
371.908,44.09672,-0.04715857,0.39695,0.85703
372.508,44.15253,-0.04781118,0.39901,0.85653
373.108,44.20851,-0.04782724,0.40099,0.85602
373.708,44.26395,-0.04913827,0.40417,0.85551
374.308,44.31973,-0.04914001,0.40447,0.855
374.908,44.3758,-0.05017883,0.40694,0.85449
375.508,44.43177,-0.05046084,0.41064,0.85398
376.108,44.48822,-0.0517755,0.41267,0.85348
376.708,44.5443,-0.05224859,0.41472,0.85297
377.308,44.60034,-0.05309005,0.41653,0.85246
377.908,44.6562,-0.05300308,0.41948,0.85195
378.508,44.71216,-0.05509624,0.42314,0.85144
379.108,44.76831,-0.05633775,0.42516,0.85093
379.708,44.82442,-0.05769318,0.42998,0.85042
380.308,44.88061,-0.05901879,0.43146,0.84991
380.908,44.93673,-0.05893436,0.43274,0.8494
381.508,44.99284,-0.06029148,0.4381,0.84889
382.108,45.04905,-0.06164961,0.43731,0.84838
382.708,45.10538,-0.0635618,0.43849,0.84787
383.308,45.16185,-0.065697,0.43772,0.84736
383.908,45.21823,-0.06701648,0.44085,0.84685
384.508,45.27465,-0.06823513,0.43819,0.84634
385.108,45.33109,-0.0706296,0.43735,0.84583
385.708,45.3874,-0.07187672,0.4403,0.84532
386.308,45.444,-0.07415844,0.444,0.8448
386.908,45.50053,-0.07703226,0.4471,0.84429
387.508,45.55705,-0.07928572,0.44953,0.84378
388.108,45.61356,-0.0830281,0.45158,0.84327
388.708,45.6702,-0.08621232,0.45474,0.84276
389.308,45.72676,-0.0888516,0.46314,0.84225
389.908,45.78332,-0.09173702,0.46118,0.84174
390.508,45.8399,-0.09475136,0.46461,0.84123
391.108,45.89653,-0.09902502,0.47073,0.84071
391.708,45.95309,-0.10314,0.47447,0.8402
392.308,46.00972,-0.10938,0.47727,0.83969
392.908,46.0662,-0.11311,0.48091,0.83918
393.508,46.1226,-0.11568,0.48236,0.83867
394.108,46.1789,-0.11944,0.48814,0.83815
394.708,46.23532,-0.1236,0.49312,0.83764
395.308,46.2917,-0.12786,0.49316,0.83713
395.908,46.34836,-0.13439,0.49923,0.83662
396.508,46.40504,-0.13728,0.50261,0.8361
397.108,46.46161,-0.1425,0.50636,0.83559
397.708,46.51834,-0.14801,0.50979,0.83508
398.308,46.57485,-0.15284,0.51451,0.83457
398.908,46.63123,-0.15826,0.51611,0.83405
399.508,46.68769,-0.16258,0.52183,0.83354
400.108,46.74409,-0.16685,0.52726,0.83303
400.708,46.80062,-0.17089,0.53332,0.83252
401.308,46.85732,-0.17765,0.53725,0.832
401.908,46.9139,-0.18432,0.54124,0.83149
402.508,46.97064,-0.19082,0.5473,0.83098
403.108,47.02724,-0.1971,0.556,0.83046
403.708,47.08381,-0.20441,0.56272,0.82995
404.308,47.14034,-0.21202,0.56992,0.82944
404.908,47.1969,-0.2202,0.57535,0.82892
405.508,47.25334,-0.2296,0.58392,0.82841
406.108,47.31017,-0.2362,0.59022,0.8279
406.708,47.36699,-0.2442,0.59377,0.82738
407.308,47.42392,-0.25283,0.60065,0.82687
407.908,47.48093,-0.26186,0.60832,0.82636
408.508,47.53774,-0.27339,0.6149,0.82584
409.108,47.59447,-0.2832,0.62807,0.82533
409.708,47.65064,-0.29266,0.63423,0.82482
410.308,47.7075,-0.30461,0.64377,0.8243
410.908,47.76406,-0.31523,0.65612,0.82379
411.508,47.82128,-0.32815,0.6608,0.82328
412.108,47.8788,-0.33832,0.66874,0.82276
412.708,47.9358,-0.35051,0.67633,0.82225
413.308,47.99289,-0.36485,0.681,0.82174
413.908,48.04976,-0.37736,0.69223,0.82122
414.508,48.10629,-0.39182,0.70379,0.82071
415.108,48.1631,-0.40678,0.71842,0.8202
415.708,48.22009,-0.42144,0.72756,0.81968
416.308,48.27697,-0.43695,0.73764,0.81917
416.908,48.33359,-0.45247,0.74851,0.81866
417.508,48.39047,-0.46963,0.75906,0.81814
418.108,48.4474,-0.48678,0.77998,0.81763
418.708,48.50443,-0.50187,0.79418,0.81712
419.308,48.56187,-0.52636,0.81988,0.8166
419.908,48.61885,-0.54645,0.83702,0.81609
420.508,48.67575,-0.56822,0.85483,0.81558
421.108,48.73254,-0.5897,0.87002,0.81506
421.708,48.7893,-0.61223,0.87649,0.81455
422.308,48.84636,-0.63581,0.88835,0.81404
422.908,48.9034,-0.6575,0.90346,0.81353
423.508,48.96063,-0.68351,0.91968,0.81301
424.108,49.01766,-0.70909,0.93891,0.8125
424.708,49.0746,-0.73578,0.93971,0.81199
425.308,49.13166,-0.76106,0.94706,0.81147
425.908,49.18877,-0.78884,0.97035,0.81096
426.508,49.24593,-0.81805,1.00601,0.81045
427.108,49.30303,-0.84829,1.01183,0.80993
427.708,49.3603,-0.87762,1.00724,0.80942
428.308,49.41744,-0.90698,1.00353,0.80891
428.908,49.47464,-0.93883,1.02729,0.8084
429.508,49.5319,-0.97148,1.05798,0.80788
430.108,49.58896,-1.00545,1.09249,0.80737
430.708,49.64611,-1.0421,1.09291,0.80686
431.308,49.70326,-1.07716,1.11007,0.80635
431.908,49.76045,-1.1163,1.12121,0.80583
432.508,49.8177,-1.15224,1.12799,0.80532
433.108,49.87477,-1.19181,1.13526,0.80481
433.708,49.93185,-1.22983,1.14233,0.8043
434.308,49.9891,-1.26954,1.14769,0.80379
434.908,50.04632,-1.31107,1.14834,0.80327
435.508,50.10374,-1.35188,1.14815,0.80276
436.108,50.16097,-1.39527,1.15192,0.80225
436.708,50.21835,-1.43521,1.15471,0.80174
437.308,50.27567,-1.47989,1.1602,0.80123
437.908,50.3331,-1.52387,1.16385,0.80071
438.508,50.39058,-1.56887,1.16885,0.8002
439.108,50.448,-1.61231,1.16959,0.79969
439.708,50.5056,-1.65678,1.16963,0.79918
440.308,50.56302,-1.70404,1.16865,0.79867
440.908,50.6205,-1.74896,1.16821,0.79816
441.508,50.678,-1.79625,1.16228,0.79765
442.108,50.73489,-1.83933,1.1568,0.79714
442.708,50.7922,-1.88586,1.14845,0.79662
443.308,50.8497,-1.93086,1.13698,0.79611
443.908,50.9073,-1.97701,1.12184,0.7956
444.508,50.96526,-2.02158,1.10755,0.79509
445.108,51.02278,-2.06442,1.09263,0.79458
445.708,51.08015,-2.11098,1.07249,0.79407
446.308,51.13754,-2.15113,1.05026,0.79356
446.908,51.19495,-2.19353,1.03104,0.79305
447.508,51.25213,-2.23293,1.00507,0.79254
448.108,51.30935,-2.27163,0.97353,0.79203
448.708,51.36651,-2.30981,0.94303,0.79152
449.308,51.4238,-2.34534,0.91335,0.79101
449.908,51.48115,-2.38233,0.87661,0.7905
450.508,51.5385,-2.41446,0.84299,0.78999
451.108,51.59555,-2.44619,0.8076,0.78948
451.708,51.65274,-2.47553,0.77402,0.78898
452.308,51.71,-2.50409,0.73851,0.78847
452.908,51.7674,-2.52994,0.7,0.78796
453.508,51.8247,-2.55428,0.66236,0.78745
454.108,51.88197,-2.57825,0.62395,0.78694
454.708,51.93927,-2.59752,0.58774,0.78643
455.308,51.9966,-2.61915,0.55679,0.78592
455.908,52.05417,-2.63634,0.52478,0.78542
456.508,52.11168,-2.65193,0.4921,0.78491
457.108,52.16908,-2.6682,0.46728,0.7844
457.708,52.2264,-2.68282,0.44418,0.78389
458.308,52.28371,-2.69646,0.41542,0.78338
458.908,52.34109,-2.70904,0.39469,0.78288
459.508,52.39852,-2.72172,0.37329,0.78237
460.108,52.456,-2.73333,0.3551,0.78186
460.708,52.51354,-2.74271,0.33601,0.78136
461.308,52.5711,-2.75287,0.31655,0.78085
461.908,52.62868,-2.76325,0.30142,0.78034
462.508,52.68623,-2.77088,0.2872,0.77984
463.108,52.74377,-2.78022,0.27012,0.77933
463.708,52.8013,-2.78945,0.25771,0.77882
464.308,52.85895,-2.7972,0.24404,0.77832
464.908,52.9165,-2.80444,0.2299,0.77781
465.508,52.9741,-2.81091,0.21568,0.77731
466.108,53.03175,-2.8161,0.20241,0.7768
466.708,53.0893,-2.82159,0.1931,0.7763
467.308,53.14682,-2.82872,0.18059,0.77579
467.908,53.20446,-2.83458,0.16976,0.77529
468.508,53.26204,-2.84041,0.15602,0.77478
469.108,53.31966,-2.84541,0.14561,0.77428
469.708,53.3773,-2.85155,0.13621,0.77377
470.308,53.4347,-2.85428,0.12441,0.77327
470.908,53.4923,-2.85967,0.11691,0.77277
471.508,53.5499,-2.86452,0.10695,0.77226
472.108,53.60759,-2.86849,0.0971947,0.77176
472.708,53.66525,-2.87199,0.08979776,0.77125
473.308,53.7229,-2.87724,0.08354224,0.77075
473.908,53.78049,-2.88158,0.07391937,0.77025
474.508,53.8382,-2.88416,0.06585235,0.76975
475.108,53.89577,-2.88692,0.06066122,0.76924
475.708,53.95346,-2.88942,0.05224713,0.76874
476.308,54.011,-2.89258,0.04691528,0.76824
476.908,54.0687,-2.89571,0.04446923,0.76774
477.508,54.12644,-2.89891,0.03542669,0.76724
478.108,54.1843,-2.90298,0.03043981,0.76673
478.708,54.24219,-2.90593,0.02885127,0.76623
479.308,54.29962,-2.90958,0.02350183,0.76573
479.908,54.3573,-2.91025,0.0176042,0.76523
480.508,54.41486,-2.91192,0.01324122,0.76473
481.108,54.47286,-2.91359,0.01217579,0.76423
481.708,54.5309,-2.91608,0.008470277,0.76373
482.308,54.58891,-2.91743,0.005362716,0.76323
482.908,54.64683,-2.92059,0.00138627,0.76273
483.508,54.70465,-2.92298,0.0002986001,0.76223
484.108,54.76235,-2.92556,-0.002818852,0.76173
484.708,54.82017,-2.9281,-0.005639567,0.76123
485.308,54.878,-2.92806,-0.008818457,0.76073
485.908,54.9359,-2.92939,-0.01031491,0.76024
486.508,54.99383,-2.9308,-0.01126847,0.75974
487.108,55.05169,-2.93208,-0.01244058,0.75924
487.708,55.1094,-2.93346,-0.01540446,0.75874
488.308,55.1673,-2.93615,-0.01331111,0.75824
488.908,55.22526,-2.93891,-0.02042779,0.75775
489.508,55.28306,-2.9403,-0.01818146,0.75725
490.108,55.3411,-2.94025,-0.01856507,0.75675
490.708,55.399,-2.94199,-0.01953017,0.75626
491.308,55.457,-2.94399,-0.01919343,0.75576
491.908,55.51501,-2.94485,-0.02024486,0.75526
492.508,55.5731,-2.94725,-0.02318885,0.75477
493.108,55.6313,-2.94846,-0.02278645,0.75427
493.708,55.68948,-2.94847,-0.02474478,0.75378
494.308,55.74762,-2.95053,-0.02430355,0.75328
494.908,55.80575,-2.95286,-0.02530776,0.75279
495.508,55.86385,-2.95416,-0.02715136,0.75229
496.108,55.92194,-2.9555,-0.02577559,0.7518
496.708,55.98015,-2.95548,-0.02681317,0.7513
497.308,56.03816,-2.95681,-0.02776233,0.75081
497.908,56.0962,-2.95812,-0.02772672,0.75032
498.508,56.15425,-2.95944,-0.02656223,0.74982
499.108,56.21255,-2.95944,-0.03263429,0.74933
499.708,56.27072,-2.9581,-0.02903307,0.74884
500.308,56.3291,-2.95944,-0.03124448,0.74834
500.908,56.38726,-2.96173,-0.03355369,0.74785
501.508,56.4455,-2.96289,-0.03094286,0.74736
502.108,56.50399,-2.96331,-0.03349969,0.74687
502.708,56.56231,-2.96452,-0.03364767,0.74638
503.308,56.6206,-2.96566,-0.03488952,0.74589
503.908,56.6787,-2.96572,-0.03128199,0.7454
504.508,56.737,-2.96701,-0.03069484,0.74491
505.108,56.7954,-2.9683,-0.03289214,0.74442
505.708,56.8539,-2.96734,-0.03391187,0.74393
506.308,56.9123,-2.96735,-0.03425107,0.74344
506.908,56.9707,-2.96866,-0.03677787,0.74295
507.508,57.02916,-2.96998,-0.03370053,0.74246
508.108,57.08761,-2.97259,-0.03378,0.74197
508.708,57.14597,-2.9726,-0.03522975,0.74148
509.308,57.20429,-2.97393,-0.03672309,0.74099
509.908,57.26269,-2.97429,-0.0343233,0.7405
510.508,57.32088,-2.9736,-0.03392917,0.74002
511.108,57.3793,-2.9749,-0.03548646,0.73953
511.708,57.4375,-2.97622,-0.03712332,0.73904
512.308,57.49599,-2.97753,-0.0345321,0.73856
512.908,57.5545,-2.97843,-0.03664244,0.73807
513.508,57.6129,-2.97939,-0.03625231,0.73758
514.108,57.6713,-2.97886,-0.03732449,0.7371
514.708,57.7297,-2.97956,-0.03819645,0.73661
515.308,57.78815,-2.98149,-0.0405497,0.73613
515.908,57.84684,-2.98151,-0.03915623,0.73564
516.508,57.90535,-2.98139,-0.03830755,0.73516
517.108,57.96385,-2.98281,-0.03854024,0.73467
517.708,58.02248,-2.98376,-0.03864485,0.73419
518.308,58.08099,-2.98392,-0.0377886,0.73371
518.908,58.13966,-2.9851,-0.03793055,0.73322
519.508,58.1984,-2.98451,-0.03605991,0.73274
520.108,58.25704,-2.98379,-0.03536315,0.73226
520.708,58.3159,-2.9838,-0.03624716,0.73177
521.308,58.3745,-2.98511,-0.03378545,0.73129
521.908,58.4332,-2.98601,-0.0339423,0.73081
522.508,58.49181,-2.9872,-0.03266425,0.73033
523.108,58.55056,-2.98643,-0.03077317,0.72985
523.708,58.60892,-2.98774,-0.03233427,0.72937
524.308,58.6676,-2.98774,-0.03312783,0.72889
524.908,58.72585,-2.98912,-0.03335325,0.72841
525.508,58.78447,-2.99047,-0.03323608,0.72793
526.108,58.84338,-2.98927,-0.03288929,0.72745
526.708,58.90215,-2.99038,-0.03461559,0.72697
527.308,58.96076,-2.99036,-0.03288473,0.72649
527.908,59.01945,-2.99169,-0.03251032,0.72601
528.508,59.07813,-2.99169,-0.03451017,0.72554
529.108,59.1367,-2.99306,-0.03205123,0.72506
529.708,59.1953,-2.99205,-0.0343796,0.72458
530.308,59.2538,-2.99301,-0.03464974,0.7241
530.908,59.3125,-2.99301,-0.03511431,0.72363
531.508,59.3712,-2.99301,-0.03525943,0.72315
532.108,59.4299,-2.99333,-0.03718321,0.72268
532.708,59.4886,-2.99465,-0.0363935,0.7222
533.308,59.54746,-2.99465,-0.03487594,0.72172
533.908,59.6061,-2.99597,-0.03706746,0.72125
534.508,59.6647,-2.99597,-0.03662443,0.72077
535.108,59.7234,-2.99638,-0.03846639,0.7203
535.708,59.782,-2.99728,-0.03823097,0.71983
536.308,59.8407,-2.99807,-0.03916473,0.71935
536.908,59.8994,-2.9986,-0.03823491,0.71888
537.508,59.9581,-2.9986,-0.0393673,0.71841
538.108,60.01709,-2.99958,-0.04028565,0.71794
538.708,60.07601,-2.99959,-0.04023808,0.71746
539.308,60.1348,-2.99966,-0.04086093,0.71699
539.908,60.1938,-2.99895,-0.04348869,0.71652
540.508,60.25272,-2.99958,-0.04231519,0.71605
541.108,60.3116,-3.00024,-0.04443562,0.71558
541.708,60.3705,-3.00024,-0.04536899,0.71511
542.308,60.42949,-3.00024,-0.04135195,0.71464
542.908,60.48845,-3.00126,-0.04461222,0.71417
543.508,60.5475,-3.00091,-0.04092136,0.7137
544.108,60.60637,-3.0021,-0.04503091,0.71323
544.708,60.66516,-3.00217,-0.0427102,0.71276
545.308,60.72405,-3.00494,-0.04115084,0.7123
545.908,60.7831,-3.00481,-0.04708231,0.71183
546.508,60.8422,-3.00354,-0.04435201,0.71136
547.108,60.90113,-3.00485,-0.04551456,0.71089
547.708,60.96,-3.00486,-0.04420649,0.71043
548.308,61.019,-3.00583,-0.04537775,0.70996
548.908,61.07821,-3.00584,-0.04827632,0.7095
549.508,61.1374,-3.00556,-0.04653122,0.70903
550.108,61.1967,-3.00551,-0.04696803,0.70857
550.708,61.25581,-3.00655,-0.0461968,0.7081
551.308,61.31485,-3.00683,-0.04622137,0.70764
551.908,61.37393,-3.00816,-0.04779356,0.70717
552.508,61.43305,-3.00815,-0.04534354,0.70671
553.108,61.4921,-3.00815,-0.04217947,0.70625
553.708,61.5512,-3.00815,-0.04405107,0.70578
554.308,61.6105,-3.00816,-0.04531401,0.70532
554.908,61.66944,-3.00913,-0.04711957,0.70486
555.508,61.7285,-3.00913,-0.04841328,0.7044
556.108,61.78762,-3.00947,-0.04901061,0.70394
556.708,61.84678,-3.01013,-0.05249699,0.70348
557.308,61.90588,-3.01012,-0.05100599,0.70302
557.908,61.96493,-3.01138,-0.04994336,0.70256
558.508,62.02395,-3.01011,-0.05016271,0.7021
559.108,62.08296,-3.01011,-0.05008467,0.70164
559.708,62.14206,-3.01107,-0.05325277,0.70118
560.308,62.20104,-3.01106,-0.05402469,0.70072
560.908,62.2601,-3.01242,-0.053177,0.70026
561.508,62.31905,-3.01242,-0.05535715,0.69981
562.108,62.3783,-3.01375,-0.05525446,0.69935
562.708,62.43761,-3.01374,-0.05445116,0.69889
563.308,62.4969,-3.01505,-0.05737265,0.69844
563.908,62.55616,-3.01505,-0.05950303,0.69798
564.508,62.6155,-3.01638,-0.05899329,0.69753
565.108,62.6748,-3.01606,-0.05894127,0.69707
565.708,62.7341,-3.01505,-0.06146942,0.69662
566.308,62.7936,-3.01505,-0.0608129,0.69616
566.908,62.853,-3.01577,-0.0622813,0.69571
567.508,62.9122,-3.01638,-0.062161,0.69526
568.108,62.9714,-3.01768,-0.06280201,0.6948
568.708,63.03065,-3.01768,-0.06317514,0.69435
569.308,63.0899,-3.01768,-0.06520977,0.6939
569.908,63.1492,-3.01834,-0.06417904,0.69345
570.508,63.20856,-3.01835,-0.0645521,0.693
571.108,63.26777,-3.01835,-0.06675978,0.69254
571.708,63.327,-3.01835,-0.06335042,0.69209
572.308,63.38615,-3.0194,-0.06615477,0.69164
572.908,63.44535,-3.019,-0.06570889,0.69119
573.508,63.5047,-3.019,-0.06563235,0.69075
574.108,63.56397,-3.02002,-0.06683529,0.6903
574.708,63.6232,-3.0189,-0.06796461,0.68985
575.308,63.68241,-3.01966,-0.06737351,0.6894
575.908,63.7416,-3.02034,-0.06568342,0.68895
576.508,63.80104,-3.02001,-0.0690834,0.68851
577.108,63.8603,-3.01952,-0.07146647,0.68806
577.708,63.91981,-3.023,-0.06859198,0.68761
578.308,63.9789,-3.02426,-0.07018585,0.68717
578.908,64.03834,-3.02427,-0.07202662,0.68672
579.508,64.09756,-3.02526,-0.0717774,0.68628
580.108,64.15684,-3.02559,-0.07106861,0.68583
580.708,64.21605,-3.02493,-0.06928096,0.68539
581.308,64.27529,-3.02493,-0.07051473,0.68495
581.908,64.3345,-3.02493,-0.07052721,0.6845
582.508,64.3937,-3.02421,-0.07207444,0.68406
583.108,64.45302,-3.02558,-0.07422804,0.68362
583.708,64.5124,-3.02689,-0.0757669,0.68318
584.308,64.5718,-3.02602,-0.08010112,0.68273
584.908,64.63127,-3.02559,-0.08553966,0.68229
585.508,64.6908,-3.02638,-0.08416294,0.68185
586.108,64.75019,-3.02788,-0.08126398,0.68141
586.708,64.80967,-3.02788,-0.08378459,0.68097
587.308,64.869,-3.02788,-0.08378585,0.68053
587.908,64.9283,-3.02786,-0.08477133,0.6801
588.508,64.9878,-3.02918,-0.08461074,0.67966
589.108,65.0474,-3.02924,-0.08362228,0.67922
589.708,65.10684,-3.02921,-0.08517946,0.67878
590.308,65.16641,-3.02921,-0.08377419,0.67835
590.908,65.22573,-3.03056,-0.08800899,0.67791
591.508,65.28515,-3.03052,-0.08660432,0.67747
592.108,65.34469,-3.03118,-0.08535584,0.67704
592.708,65.40409,-3.03184,-0.08755007,0.6766
593.308,65.46347,-3.03303,-0.08725009,0.67617
593.908,65.5227,-3.03249,-0.08757401,0.67573
594.508,65.58198,-3.03241,-0.08661977,0.6753
595.108,65.64147,-3.03216,-0.08778831,0.67487
595.708,65.70106,-3.03346,-0.08813578,0.67443
596.308,65.7607,-3.03348,-0.08757608,0.674
596.908,65.8202,-3.03479,-0.08614701,0.67357
597.508,65.87965,-3.0348,-0.0865777,0.67314
598.108,65.9393,-3.03611,-0.08414321,0.67271
598.708,65.999,-3.03611,-0.0869407,0.67227
599.308,66.05885,-3.03578,-0.09003898,0.67184
599.908,66.11864,-3.03578,-0.08829321,0.67141
600.508,66.17814,-3.03579,-0.08896768,0.67099
601.108,66.23774,-3.03705,-0.08884711,0.67056
601.708,66.29726,-3.03842,-0.09048115,0.67013
602.308,66.35695,-3.03842,-0.08602418,0.6697
602.908,66.4166,-3.03839,-0.08787426,0.66927
603.508,66.47621,-3.03734,-0.08410518,0.66885
604.108,66.5359,-3.03874,-0.08243825,0.66842
604.708,66.59551,-3.03872,-0.08725098,0.66799
605.308,66.655,-3.03969,-0.08686393,0.66757
605.908,66.7146,-3.04006,-0.08669315,0.66714
606.508,66.77395,-3.04007,-0.08757024,0.66672
607.108,66.83371,-3.04101,-0.08528078,0.66629
607.708,66.89339,-3.04077,-0.08810309,0.66587
608.308,66.95307,-3.04073,-0.08757792,0.66545
608.908,67.01292,-3.04171,-0.08793187,0.66502
609.508,67.07268,-3.04171,-0.08705353,0.6646
610.108,67.13263,-3.04171,-0.084428,0.66418
610.708,67.19258,-3.04171,-0.08434132,0.66376
611.308,67.2525,-3.04303,-0.08399476,0.66334
611.908,67.31224,-3.04306,-0.08946365,0.66292
612.508,67.372,-3.04389,-0.08706654,0.6625
613.108,67.43176,-3.04477,-0.09064415,0.66208
613.708,67.4916,-3.04467,-0.09128882,0.66166
614.308,67.55114,-3.04467,-0.08902257,0.66124
614.908,67.61098,-3.045,-0.09007614,0.66082
615.508,67.6706,-3.04533,-0.09011928,0.6604
616.108,67.7305,-3.04463,-0.08894217,0.65999
616.708,67.79024,-3.04466,-0.09087545,0.65957
617.308,67.85004,-3.045,-0.09176307,0.65915
617.908,67.91009,-3.0463,-0.08700158,0.65874
618.508,67.96996,-3.04631,-0.08929221,0.65832
619.108,68.02999,-3.04671,-0.08995849,0.65791
619.708,68.09005,-3.04763,-0.08655942,0.65749
620.308,68.14997,-3.04763,-0.0806874,0.65708
620.908,68.20996,-3.04763,-0.08182674,0.65667
621.508,68.26982,-3.04894,-0.08140963,0.65625
622.108,68.3295,-3.04762,-0.08131203,0.65584
622.708,68.3896,-3.04931,-0.08069174,0.65543
623.308,68.4495,-3.05026,-0.07976813,0.65502
623.908,68.5098,-3.04892,-0.07608843,0.65461
624.508,68.56973,-3.04895,-0.07212266,0.6542
625.108,68.62986,-3.05124,-0.07446668,0.65379
625.708,68.68974,-3.05088,-0.0787977,0.65338
626.308,68.7497,-3.05027,-0.07954119,0.65297
626.908,68.80968,-3.05157,-0.07921027,0.65256
627.508,68.86975,-3.05159,-0.07987677,0.65215
628.108,68.9298,-3.05261,-0.07900501,0.65175
628.708,68.98948,-3.05355,-0.07776321,0.65134
629.308,69.04946,-3.05355,-0.0844258,0.65093
629.908,69.10937,-3.05224,-0.08263947,0.65053
630.508,69.1694,-3.05224,-0.08324767,0.65012
631.108,69.22971,-3.05356,-0.07645811,0.64971
631.708,69.2897,-3.05356,-0.0788804,0.64931
632.308,69.34975,-3.05423,-0.07808625,0.64891
632.908,69.4097,-3.05289,-0.07974264,0.6485
633.508,69.46967,-3.05357,-0.07780753,0.6481
634.108,69.52974,-3.05359,-0.0797728,0.6477
634.708,69.58965,-3.05487,-0.07730169,0.64729
635.308,69.6497,-3.05557,-0.0757696,0.64689
635.908,69.70968,-3.05619,-0.07734961,0.64649
636.508,69.76977,-3.05487,-0.08067073,0.64609
637.108,69.82995,-3.05487,-0.07839055,0.64569
637.708,69.89,-3.05589,-0.0777694,0.64529
638.308,69.95018,-3.05618,-0.08189112,0.64489
638.708,69.99025,-3.05618,-0.07954132,0.64463