File: 01_Data/PETG/STA/N2/10K_min/PETG_STA_N2_10KData_210901_R2.csv
##Temp./Â°C,Time/min,Mass loss(subtr.2)/mg,DSC(subtr.2)/(mW/mg),Sensit./(uV/mW)
49.239,10.00917,-0.02863,0.02612376,1.03587
49.839,11.3886,-0.03151057,0.04246719,1.03584
50.439,11.77403,-0.03228261,0.05723642,1.03581
51.039,12.04364,-0.03273875,0.06778097,1.03578
51.639,12.26481,-0.03340542,0.07610409,1.03575
52.239,12.45626,-0.03343534,0.08490532,1.03572
52.839,12.63135,-0.03564535,0.09086295,1.03568
53.439,12.7902,-0.03377505,0.09682306,1.03565
54.039,12.9397,-0.03476561,0.10251,1.03561
54.639,13.08325,-0.03627656,0.10623,1.03557
55.239,13.2188,-0.03519764,0.10925,1.03553
55.839,13.3472,-0.03615653,0.11444,1.03548
56.439,13.47127,-0.03634155,0.11614,1.03544
57.039,13.59312,-0.03657416,0.12201,1.03539
57.639,13.7129,-0.03764371,0.12643,1.03534
58.239,13.82905,-0.03664792,0.129,1.0353
58.839,13.94082,-0.03804193,0.13244,1.03525
59.439,14.0501,-0.03808905,0.1356,1.03519
60.039,14.15606,-0.03817629,0.13915,1.03514
60.639,14.25956,-0.03870267,0.13987,1.03508
61.239,14.36046,-0.03763047,0.14551,1.03503
61.839,14.4596,-0.03851029,0.14758,1.03497
62.439,14.5574,-0.03835783,0.15055,1.03491
63.039,14.65369,-0.03718907,0.15247,1.03485
63.639,14.7481,-0.03862989,0.15562,1.03478
64.239,14.8426,-0.03794476,0.15825,1.03472
64.839,14.9367,-0.03869195,0.16066,1.03465
65.439,15.02863,-0.03975457,0.16369,1.03459
66.039,15.1181,-0.03931807,0.16565,1.03452
66.639,15.206,-0.03872652,0.16691,1.03445
67.239,15.29321,-0.03874798,0.17034,1.03437
67.839,15.37925,-0.03873042,0.17302,1.0343
68.439,15.46454,-0.03980367,0.17564,1.03423
69.039,15.54827,-0.04006005,0.17681,1.03415
69.639,15.63124,-0.04004199,0.17769,1.03407
70.239,15.71364,-0.03886509,0.18151,1.03399
70.839,15.79525,-0.04002713,0.18205,1.03391
71.439,15.8756,-0.04006498,0.18406,1.03383
72.039,15.9554,-0.04015567,0.18531,1.03374
72.639,16.0343,-0.04134796,0.18756,1.03366
73.239,16.11287,-0.04002779,0.18805,1.03357
73.839,16.19065,-0.04002928,0.1862,1.03348
74.439,16.26785,-0.04004029,0.18772,1.03339
75.039,16.3443,-0.03899686,0.18736,1.0333
75.639,16.4202,-0.04131109,0.18879,1.03321
76.239,16.49555,-0.04135966,0.18858,1.03311
76.839,16.57013,-0.04134926,0.18848,1.03302
77.439,16.64469,-0.04132138,0.18991,1.03292
78.039,16.71856,-0.04104754,0.18842,1.03282
78.639,16.79175,-0.04251386,0.18916,1.03272
79.239,16.8639,-0.04265337,0.18909,1.03262
79.839,16.93589,-0.04129254,0.18812,1.03251
80.439,17.0077,-0.04137944,0.18794,1.03241
81.039,17.0793,-0.04136052,0.18739,1.0323
81.639,17.1505,-0.04133449,0.18859,1.03219
82.239,17.22093,-0.04137921,0.18842,1.03208
82.839,17.2911,-0.0411868,0.18869,1.03197
83.439,17.3607,-0.0426991,0.1872,1.03186
84.039,17.43013,-0.04176591,0.18863,1.03175
84.639,17.49865,-0.04267808,0.18718,1.03163
85.239,17.56714,-0.04162432,0.1883,1.03152
85.839,17.63505,-0.04228139,0.18536,1.0314
86.439,17.703,-0.0425662,0.18697,1.03128
87.039,17.77037,-0.04267027,0.18627,1.03116
87.639,17.83719,-0.04265423,0.18668,1.03103
88.239,17.90361,-0.04268138,0.18554,1.03091
88.839,17.96964,-0.04534281,0.18683,1.03079
89.439,18.03546,-0.04396408,0.18494,1.03066
90.039,18.10099,-0.04397026,0.18602,1.03053
90.639,18.16635,-0.04366552,0.18598,1.0304
91.239,18.23154,-0.04232124,0.18556,1.03027
91.839,18.29676,-0.04267205,0.18569,1.03014
92.439,18.36168,-0.04287048,0.18576,1.03
93.039,18.4266,-0.04397906,0.18474,1.02987
93.639,18.49106,-0.0439885,0.18509,1.02973
94.239,18.55564,-0.0438185,0.18614,1.02959
94.839,18.61981,-0.04266174,0.18741,1.02945
95.439,18.68382,-0.04397773,0.18753,1.02931
96.039,18.74709,-0.04402143,0.18842,1.02917
96.639,18.81051,-0.04289989,0.18809,1.02903
97.239,18.8736,-0.04393591,0.19001,1.02888
97.839,18.9363,-0.04398865,0.19012,1.02873
98.439,18.9988,-0.0439899,0.19197,1.02859
99.039,19.06113,-0.04398995,0.19149,1.02844
99.639,19.12346,-0.04365982,0.19287,1.02829
100.239,19.18564,-0.04399885,0.19407,1.02813
100.839,19.24735,-0.04400888,0.19467,1.02798
101.439,19.30915,-0.04399,0.19789,1.02783
102.039,19.3709,-0.04402494,0.19709,1.02767
102.639,19.43255,-0.04269546,0.20021,1.02751
103.239,19.49407,-0.04404518,0.20055,1.02735
103.839,19.55487,-0.04407308,0.20325,1.02719
104.439,19.61535,-0.04399053,0.20536,1.02703
105.039,19.67578,-0.04373296,0.20526,1.02687
105.639,19.7361,-0.04269698,0.20717,1.0267
106.239,19.79674,-0.04401533,0.20885,1.02653
106.839,19.85761,-0.04405139,0.21137,1.02637
107.439,19.91889,-0.04399021,0.21047,1.0262
108.039,19.97994,-0.0452957,0.21393,1.02603
108.639,20.04087,-0.04398962,0.21513,1.02586
109.239,20.1008,-0.04399,0.21646,1.02568
109.839,20.16094,-0.04400019,0.21854,1.02551
110.439,20.22091,-0.04400077,0.22035,1.02533
111.039,20.28094,-0.04400244,0.22326,1.02516
111.639,20.34103,-0.04400113,0.22508,1.02498
112.239,20.40111,-0.04538703,0.22571,1.0248
112.839,20.4608,-0.04524492,0.22792,1.02462
113.439,20.52059,-0.04399682,0.22831,1.02444
114.039,20.5799,-0.04530004,0.23126,1.02425
114.639,20.63915,-0.04530963,0.231,1.02407
115.239,20.69829,-0.04531306,0.23323,1.02388
115.839,20.75743,-0.04399062,0.23461,1.02369
116.439,20.81646,-0.0441422,0.23672,1.0235
117.039,20.87538,-0.04382141,0.23745,1.02331
117.639,20.93401,-0.04529981,0.23879,1.02312
118.239,20.99298,-0.04528413,0.24004,1.02293
118.839,21.05164,-0.04530493,0.24242,1.02273
119.439,21.11003,-0.04528389,0.24436,1.02254
120.039,21.16865,-0.04530996,0.24557,1.02234
120.639,21.2269,-0.04606687,0.24625,1.02214
121.239,21.2854,-0.04526135,0.24638,1.02194
121.839,21.34344,-0.04529916,0.24841,1.02174
122.439,21.40109,-0.04394873,0.25066,1.02154
123.039,21.45865,-0.04427885,0.25194,1.02134
123.639,21.51632,-0.04531687,0.25161,1.02113
124.239,21.57405,-0.0439916,0.2538,1.02093
124.839,21.63191,-0.0448764,0.25583,1.02072
125.439,21.68956,-0.04399292,0.25594,1.02051
126.039,21.74738,-0.04399141,0.25712,1.0203
126.639,21.8053,-0.04531542,0.25783,1.02009
127.239,21.86308,-0.04528979,0.26053,1.01988
127.839,21.92049,-0.04396604,0.26164,1.01966
128.439,21.97785,-0.04475617,0.26299,1.01945
129.039,22.03506,-0.04529822,0.26457,1.01923
129.639,22.09226,-0.045284,0.26416,1.01901
130.239,22.1494,-0.04399099,0.26544,1.01879
130.839,22.2063,-0.04530886,0.26639,1.01857
131.439,22.2633,-0.04531122,0.26899,1.01835
132.039,22.3201,-0.04534625,0.26951,1.01813
132.639,22.37665,-0.04530987,0.26994,1.0179
133.239,22.43307,-0.04508077,0.26975,1.01768
133.839,22.48947,-0.04529984,0.27215,1.01745
134.439,22.54595,-0.04427858,0.27427,1.01722
135.039,22.60141,-0.04431652,0.2747,1.017
135.639,22.65784,-0.04530206,0.27586,1.01676
136.239,22.71387,-0.04531009,0.27653,1.01653
136.839,22.77035,-0.04491561,0.27679,1.0163
137.439,22.82712,-0.04529936,0.27862,1.01607
138.039,22.883,-0.04602897,0.27897,1.01583
138.639,22.93901,-0.0466247,0.27969,1.01559
139.239,22.9948,-0.04531084,0.28087,1.01536
139.839,23.0505,-0.0453136,0.2809,1.01512
140.439,23.1063,-0.04553716,0.28421,1.01488
141.039,23.16144,-0.04530908,0.28443,1.01464
141.639,23.21697,-0.04454039,0.28463,1.01439
142.239,23.27195,-0.04528243,0.28613,1.01415
142.839,23.32734,-0.04530001,0.28634,1.0139
143.439,23.38326,-0.04529994,0.28612,1.01366
144.039,23.4387,-0.04530998,0.2868,1.01341
144.639,23.49454,-0.04530348,0.28883,1.01316
145.239,23.5499,-0.04662929,0.2903,1.01291
145.839,23.60513,-0.04672612,0.29326,1.01266
146.439,23.66036,-0.04531008,0.29133,1.01241
147.039,23.71564,-0.04531,0.29221,1.01215
147.639,23.7707,-0.04531061,0.29167,1.0119
148.239,23.82566,-0.04593246,0.29446,1.01164
148.839,23.88074,-0.04563085,0.29415,1.01138
149.439,23.93498,-0.04530766,0.29512,1.01113
150.039,23.98989,-0.04557364,0.29689,1.01087
150.639,24.0446,-0.04638991,0.29775,1.01061
151.239,24.0995,-0.04661993,0.29634,1.01034
151.839,24.15486,-0.04551502,0.29799,1.01008
152.439,24.2095,-0.04530001,0.29773,1.00982
153.039,24.2643,-0.04530005,0.29905,1.00955
153.639,24.319,-0.04529664,0.30028,1.00928
154.239,24.3739,-0.04527594,0.30108,1.00902
154.839,24.42882,-0.04530801,0.30147,1.00875
155.439,24.48368,-0.04428192,0.30205,1.00848
156.039,24.53839,-0.04531092,0.30189,1.00821
156.639,24.59295,-0.0453114,0.30395,1.00793
157.239,24.64722,-0.04660714,0.30425,1.00766
157.839,24.70176,-0.04662001,0.3058,1.00738
158.439,24.7563,-0.04647631,0.30724,1.00711
159.039,24.81087,-0.04529963,0.30718,1.00683
159.639,24.86564,-0.04529949,0.307,1.00655
160.239,24.92008,-0.04660867,0.3078,1.00627
160.839,24.9745,-0.04526478,0.30962,1.00599
161.439,25.02899,-0.04630318,0.30848,1.00571
162.039,25.08353,-0.04630031,0.308,1.00543
162.639,25.13804,-0.04571494,0.30946,1.00514
163.239,25.1925,-0.04530996,0.31206,1.00486
163.839,25.24701,-0.04526731,0.31104,1.00457
164.439,25.30143,-0.04661891,0.31175,1.00429
165.039,25.35581,-0.04800474,0.3129,1.004
165.639,25.41037,-0.04794001,0.31303,1.00371
166.239,25.46472,-0.04799074,0.3127,1.00342
166.839,25.51911,-0.04661996,0.31484,1.00313
167.439,25.5734,-0.04662571,0.31329,1.00283
168.039,25.6277,-0.04530323,0.31576,1.00254
168.639,25.682,-0.04661824,0.3154,1.00224
169.239,25.73595,-0.04662,0.31658,1.00195
169.839,25.7901,-0.04662005,0.31695,1.00165
170.439,25.8442,-0.04635779,0.31734,1.00135
171.039,25.8982,-0.04658663,0.31684,1.00105
171.639,25.95259,-0.04661993,0.31744,1.00075
172.239,26.00668,-0.04661972,0.31822,1.00045
172.839,26.06075,-0.04558744,0.3204,1.00015
173.439,26.11494,-0.04703089,0.31872,0.99984
174.039,26.16904,-0.04695,0.31928,0.99954
174.639,26.2233,-0.04695161,0.3209,0.99923
175.239,26.2774,-0.04797668,0.32138,0.99892
175.839,26.3315,-0.04784001,0.32298,0.99862
176.439,26.38583,-0.0466225,0.32197,0.99831
177.039,26.44006,-0.04794337,0.32394,0.998
177.639,26.49414,-0.04652871,0.32212,0.99768
178.239,26.5484,-0.04662002,0.32382,0.99737
178.839,26.60285,-0.04662,0.32508,0.99706
179.439,26.65723,-0.04662021,0.32562,0.99674
180.039,26.7117,-0.04575887,0.32745,0.99643
180.639,26.76588,-0.04530978,0.32513,0.99611
181.239,26.8199,-0.04529641,0.32598,0.99579
181.839,26.8739,-0.04630201,0.32738,0.99547
182.439,26.92785,-0.04530596,0.32916,0.99516
183.039,26.98165,-0.04531003,0.32932,0.99483
183.639,27.0355,-0.0452589,0.32827,0.99451
184.239,27.0893,-0.04529014,0.32983,0.99419
184.839,27.1431,-0.04530013,0.3301,0.99387
185.439,27.1969,-0.04529999,0.32962,0.99354
186.039,27.25075,-0.04529426,0.33138,0.99321
186.639,27.3044,-0.04513409,0.33351,0.99289
187.239,27.3581,-0.045684,0.33338,0.99256
187.839,27.41197,-0.04530987,0.33556,0.99223
188.439,27.46565,-0.04531027,0.33432,0.9919
189.039,27.5194,-0.04462719,0.33505,0.99157
189.639,27.57307,-0.04398382,0.33578,0.99124
190.239,27.6265,-0.0449649,0.33523,0.9909
190.839,27.6801,-0.04498008,0.33651,0.99057
191.439,27.7335,-0.04358364,0.33624,0.99023
192.039,27.7871,-0.04399107,0.33904,0.9899
192.639,27.8407,-0.04399918,0.34004,0.98956
193.239,27.8944,-0.0453083,0.33813,0.98922
193.839,27.9481,-0.04531195,0.33862,0.98888
194.439,28.0018,-0.04400654,0.34025,0.98854
195.039,28.0552,-0.04464444,0.34253,0.9882
195.639,28.1086,-0.04465042,0.34367,0.98786
196.239,28.1621,-0.04529174,0.34461,0.98752
196.839,28.21547,-0.04531709,0.34492,0.98717
197.439,28.269,-0.04398527,0.34498,0.98683
198.039,28.32263,-0.04500112,0.34744,0.98648
198.639,28.3762,-0.04627551,0.34821,0.98614
199.239,28.4298,-0.04496883,0.34773,0.98579
199.839,28.4834,-0.04496658,0.34868,0.98544
200.439,28.53698,-0.04399707,0.35053,0.98509
201.039,28.5906,-0.04399178,0.35106,0.98474
201.639,28.6441,-0.04266513,0.34971,0.98439
202.239,28.6977,-0.04398301,0.35258,0.98403
202.839,28.7513,-0.04398999,0.3529,0.98368
203.439,28.80485,-0.04399,0.35403,0.98333
204.039,28.85835,-0.04399,0.3539,0.98297
204.639,28.91167,-0.04400758,0.3545,0.98261
205.239,28.9653,-0.04530854,0.35635,0.98226
205.839,29.0188,-0.04530982,0.35687,0.9819
206.439,29.0725,-0.04534513,0.35719,0.98154
207.039,29.12616,-0.04529996,0.35787,0.98118
207.639,29.1796,-0.0453,0.35816,0.98082
208.239,29.23315,-0.0453001,0.36114,0.98046
208.839,29.2866,-0.04521331,0.36078,0.98009
209.439,29.34015,-0.04532252,0.36211,0.97973
210.039,29.39374,-0.04530997,0.36264,0.97936
210.639,29.44721,-0.04531,0.36349,0.979
211.239,29.5008,-0.04530999,0.36427,0.97863
211.839,29.55438,-0.0453737,0.36587,0.97826
212.439,29.60793,-0.04628899,0.36696,0.9779
213.039,29.6616,-0.04625625,0.36964,0.97753
213.639,29.7151,-0.04530096,0.36903,0.97716
214.239,29.76878,-0.0453,0.37089,0.97678
214.839,29.82245,-0.0453,0.37367,0.97641
215.439,29.876,-0.04529987,0.37274,0.97604
216.039,29.9297,-0.04396245,0.37561,0.97567
216.639,29.9832,-0.04396893,0.37802,0.97529
217.239,30.0367,-0.04458738,0.37882,0.97492
217.839,30.09021,-0.04531019,0.37974,0.97454
218.439,30.14368,-0.04531,0.38081,0.97416
219.039,30.19728,-0.04531006,0.38278,0.97378
219.639,30.2507,-0.04530976,0.38417,0.97341
220.239,30.3042,-0.04531,0.38612,0.97303
220.839,30.35786,-0.04531,0.3896,0.97264
221.439,30.4113,-0.04531,0.39006,0.97226
222.039,30.46487,-0.04531689,0.39297,0.97188
222.639,30.51855,-0.04398924,0.39459,0.9715
223.239,30.5722,-0.04398998,0.39707,0.97111
223.839,30.6257,-0.04401562,0.39934,0.97073
224.439,30.6794,-0.04530007,0.40162,0.97034
225.039,30.733,-0.0453,0.40251,0.96996
225.639,30.7865,-0.04529998,0.40537,0.96957
226.239,30.84,-0.04529037,0.40693,0.96918
226.839,30.8935,-0.04500644,0.41063,0.96879
227.439,30.94704,-0.04497999,0.41341,0.9684
228.039,31.00065,-0.04498014,0.41358,0.96801
228.639,31.0544,-0.04357206,0.417,0.96762
229.239,31.1082,-0.04396638,0.42131,0.96723
229.839,31.16177,-0.04539812,0.42367,0.96683
230.439,31.21542,-0.0453099,0.42867,0.96644
231.039,31.26898,-0.04531,0.43336,0.96604
231.639,31.32265,-0.04531,0.43658,0.96565
232.239,31.37627,-0.04531,0.44103,0.96525
232.839,31.43007,-0.04531011,0.4457,0.96485
233.439,31.48398,-0.04566932,0.45057,0.96446
234.039,31.5375,-0.04430801,0.45656,0.96406
234.639,31.59127,-0.04535107,0.46304,0.96366
235.239,31.6449,-0.04529993,0.46808,0.96326
235.839,31.6987,-0.0453,0.47432,0.96286
236.439,31.75246,-0.0453,0.48306,0.96245
237.039,31.80623,-0.04529998,0.49074,0.96205
237.639,31.86008,-0.04529158,0.5,0.96165
238.239,31.9138,-0.0466235,0.50764,0.96124
238.839,31.9676,-0.04542139,0.51712,0.96084
239.439,32.02143,-0.04531012,0.5281,0.96043
240.039,32.0751,-0.04531,0.53789,0.96002
240.639,32.1288,-0.04531,0.5519,0.95962
241.239,32.18271,-0.04531,0.56294,0.95921
241.839,32.2365,-0.04530998,0.57628,0.9588
242.439,32.2904,-0.04529764,0.5907,0.95839
243.039,32.34437,-0.04662332,0.60488,0.95798
243.639,32.39825,-0.04662,0.62344,0.95757
244.239,32.45218,-0.04659603,0.64279,0.95716
244.839,32.50613,-0.04530114,0.66018,0.95674
245.439,32.56012,-0.0453,0.68089,0.95633
246.039,32.61392,-0.04529811,0.70533,0.95591
246.639,32.66805,-0.04399519,0.728,0.9555
247.239,32.72183,-0.04399001,0.75251,0.95508
247.839,32.77577,-0.04398495,0.77724,0.95467
248.439,32.82977,-0.04465167,0.804,0.95425
249.039,32.8838,-0.04516401,0.83105,0.95383
249.639,32.93779,-0.04531004,0.85662,0.95341
250.239,32.99198,-0.04531,0.8843,0.95299
250.839,33.04611,-0.04531,0.90883,0.95257
251.439,33.10011,-0.04531009,0.92945,0.95215
252.039,33.1541,-0.0448549,0.94568,0.95173
252.639,33.2081,-0.0439863,0.95108,0.95131
253.239,33.26191,-0.04530829,0.94739,0.95089
253.839,33.31582,-0.04531,0.9265,0.95046
254.439,33.36963,-0.04531,0.88991,0.95004
255.039,33.42348,-0.04531,0.8427,0.94961
255.639,33.47728,-0.04531,0.78272,0.94919
256.239,33.53106,-0.04531287,0.72338,0.94876
256.839,33.5847,-0.04415743,0.66596,0.94833
257.439,33.63835,-0.04425697,0.62229,0.94791
258.039,33.692,-0.04535557,0.58123,0.94748
258.639,33.7457,-0.04398965,0.54992,0.94705
259.239,33.79951,-0.04398848,0.52547,0.94662
259.839,33.85313,-0.04463776,0.5078,0.94619
260.439,33.9069,-0.04529217,0.48833,0.94576
261.039,33.9606,-0.04665332,0.47478,0.94532
261.639,34.01432,-0.04662044,0.46106,0.94489
262.239,34.0681,-0.0452906,0.45387,0.94446
262.839,34.12161,-0.04530997,0.44319,0.94402
263.439,34.1753,-0.04530995,0.43804,0.94359
264.039,34.2291,-0.04531186,0.43057,0.94315
264.639,34.28294,-0.04497982,0.42644,0.94272
265.239,34.33692,-0.04498,0.42181,0.94228
265.839,34.39082,-0.04497858,0.42142,0.94185
266.439,34.44465,-0.04600951,0.41705,0.94141
267.039,34.49844,-0.04530976,0.41378,0.94097
267.639,34.55225,-0.04531043,0.41227,0.94053
268.239,34.60607,-0.04566199,0.41025,0.94009
268.839,34.6601,-0.04564001,0.40843,0.93965
269.439,34.7143,-0.04564,0.40737,0.93921
270.039,34.76834,-0.04564,0.40881,0.93877
270.639,34.82232,-0.04562913,0.40621,0.93832
271.239,34.87615,-0.04626104,0.40409,0.93788
271.839,34.93007,-0.04630707,0.40612,0.93744
272.439,34.984,-0.04531195,0.40614,0.93699
273.039,35.03783,-0.04530992,0.40366,0.93655
273.639,35.09192,-0.0450892,0.40473,0.9361
274.239,35.14588,-0.04398982,0.40284,0.93566
274.839,35.19997,-0.04470662,0.40228,0.93521
275.439,35.25415,-0.04530026,0.4038,0.93476
276.039,35.30812,-0.0453,0.40408,0.93432
276.639,35.36221,-0.04529434,0.40331,0.93387
277.239,35.41635,-0.0449786,0.40463,0.93342
277.839,35.47041,-0.04498,0.40272,0.93297
278.439,35.5246,-0.04498,0.40374,0.93252
279.039,35.57882,-0.04498,0.40496,0.93207
279.639,35.6329,-0.04498024,0.40405,0.93162
280.239,35.6871,-0.04446581,0.40417,0.93117
280.839,35.741,-0.04398994,0.40523,0.93071
281.439,35.79522,-0.04399,0.40581,0.93026
282.039,35.84944,-0.04399,0.40614,0.92981
282.639,35.90367,-0.04399,0.40458,0.92935
283.239,35.95797,-0.04399,0.40394,0.9289
283.839,36.01218,-0.04399,0.4052,0.92844
284.439,36.0666,-0.04399001,0.40589,0.92799
285.039,36.1209,-0.04398999,0.40647,0.92753
285.639,36.17542,-0.04399,0.40592,0.92707
286.239,36.22977,-0.04399,0.4083,0.92662
286.839,36.28409,-0.04400494,0.40651,0.92616
287.439,36.33822,-0.04496927,0.40824,0.9257
288.039,36.39239,-0.04497,0.40623,0.92524
288.639,36.44661,-0.04497,0.40817,0.92478
289.239,36.5007,-0.04497,0.4069,0.92432
289.839,36.55518,-0.04497,0.40715,0.92386
290.439,36.60964,-0.04497,0.40572,0.9234
291.039,36.6642,-0.04497017,0.40704,0.92294
291.639,36.71883,-0.04464787,0.40773,0.92248
292.239,36.77317,-0.0443075,0.40565,0.92201
292.839,36.8275,-0.04431,0.40631,0.92155
293.439,36.88174,-0.04431,0.40789,0.92109
294.039,36.93574,-0.04430995,0.40686,0.92062
294.639,36.9899,-0.04429324,0.40633,0.92016
295.239,37.0441,-0.04398987,0.40747,0.91969
295.839,37.09858,-0.04398196,0.40793,0.91923
296.439,37.1532,-0.04266949,0.408,0.91876
297.039,37.2076,-0.04267,0.40691,0.91829
297.639,37.26254,-0.04267001,0.40808,0.91783
298.239,37.3174,-0.04266483,0.40976,0.91736
298.839,37.37233,-0.04401199,0.40887,0.91689
299.439,37.42708,-0.04271689,0.40987,0.91642
300.039,37.4816,-0.04267003,0.40913,0.91595
300.639,37.53611,-0.04267,0.4102,0.91548
301.239,37.5906,-0.04267,0.41131,0.91501
301.839,37.64521,-0.04266993,0.41015,0.91454
302.439,37.69978,-0.04264946,0.40896,0.91407
303.039,37.75436,-0.04135088,0.41003,0.9136
303.639,37.80863,-0.0413575,0.41019,0.91313
304.239,37.86327,-0.04247217,0.41077,0.91265
304.839,37.91795,-0.0413613,0.40724,0.91218
305.439,37.9726,-0.04268689,0.40852,0.91171
306.039,38.02767,-0.04268,0.40824,0.91123
306.639,38.08222,-0.04268002,0.40937,0.91076
307.239,38.13674,-0.04251336,0.40992,0.91028
307.839,38.19146,-0.04135786,0.41167,0.90981
308.439,38.24617,-0.04271133,0.41184,0.90933
309.039,38.301,-0.04268001,0.4125,0.90886
309.639,38.35588,-0.04268,0.41057,0.90838
310.239,38.4107,-0.04268,0.41197,0.9079
310.839,38.46542,-0.04268,0.4124,0.90742
311.439,38.52029,-0.04268143,0.41282,0.90695
312.039,38.57515,-0.04135438,0.41151,0.90647
312.639,38.63007,-0.04135183,0.41131,0.90599
313.239,38.6849,-0.04267331,0.41115,0.90551
313.839,38.73966,-0.04232827,0.41302,0.90503
314.439,38.7943,-0.04135305,0.4122,0.90455
315.039,38.84897,-0.04136,0.41248,0.90407
315.639,38.90371,-0.04136101,0.41305,0.90359
316.239,38.95856,-0.04233339,0.41137,0.90311
316.839,39.0133,-0.04233998,0.41099,0.90263
317.439,39.0681,-0.04233869,0.41123,0.90214
318.039,39.12292,-0.04267112,0.41255,0.90166
318.639,39.1777,-0.0413622,0.41332,0.90118
319.239,39.2326,-0.04236689,0.41174,0.90069
319.839,39.28747,-0.0436554,0.41365,0.90021
320.439,39.3423,-0.04366492,0.41293,0.89973
321.039,39.39728,-0.0424561,0.41503,0.89924
321.639,39.45217,-0.04167971,0.4124,0.89876
322.239,39.50721,-0.04168,0.41303,0.89827
322.839,39.562,-0.04168,0.41454,0.89779
323.439,39.6169,-0.04168,0.41472,0.8973
324.039,39.6719,-0.04168113,0.41584,0.89681
324.639,39.72691,-0.04271443,0.4128,0.89633
325.239,39.78224,-0.04300256,0.41477,0.89584
325.839,39.83728,-0.043,0.41624,0.89535
326.439,39.89228,-0.04299422,0.41577,0.89486
327.039,39.94715,-0.04267902,0.41523,0.89438
327.639,40.00201,-0.04268148,0.41528,0.89389
328.239,40.0571,-0.04235219,0.41633,0.8934
328.839,40.1122,-0.0413877,0.41377,0.89291
329.439,40.16728,-0.04136009,0.41537,0.89242
330.039,40.22248,-0.0427756,0.41473,0.89193
330.639,40.2775,-0.04267995,0.4145,0.89144
331.239,40.33252,-0.04266243,0.41554,0.89095
331.839,40.38758,-0.04136021,0.41612,0.89046
332.439,40.44267,-0.04265396,0.41593,0.88997
333.039,40.49798,-0.04268001,0.41752,0.88947
333.639,40.5533,-0.04268,0.41814,0.88898
334.239,40.60855,-0.04268,0.41478,0.88849
334.839,40.6638,-0.04268,0.41678,0.888
335.439,40.71903,-0.04268,0.41644,0.8875
336.039,40.77431,-0.04268,0.41858,0.88701
336.639,40.8296,-0.04268,0.41883,0.88652
337.239,40.88495,-0.04268,0.41904,0.88602
337.839,40.9401,-0.04268023,0.41922,0.88553
338.439,40.99542,-0.04338227,0.42009,0.88503
339.039,41.05083,-0.04331861,0.42077,0.88454
339.639,41.106,-0.04365956,0.41918,0.88404
340.239,41.16132,-0.04366,0.41972,0.88355
340.839,41.21648,-0.04366,0.42281,0.88305
341.439,41.27174,-0.04366,0.42093,0.88256
342.039,41.32705,-0.04366,0.42241,0.88206
342.639,41.38234,-0.04366032,0.42193,0.88156
343.239,41.43778,-0.04279788,0.42089,0.88107
343.839,41.49324,-0.04233384,0.42076,0.88057
344.439,41.5488,-0.04332804,0.42413,0.88007
345.039,41.60419,-0.0434959,0.42361,0.87957
345.639,41.65951,-0.04365999,0.42341,0.87908
346.239,41.71488,-0.04365561,0.42281,0.87858
346.839,41.77017,-0.04464783,0.42279,0.87808
347.439,41.82557,-0.04465,0.42539,0.87758
348.039,41.881,-0.04464758,0.42499,0.87708
348.639,41.93646,-0.0439938,0.42491,0.87658
349.239,41.99196,-0.04399,0.42583,0.87608
349.839,42.04741,-0.04399,0.42686,0.87558
350.439,42.10283,-0.04398999,0.42643,0.87508
351.039,42.15833,-0.04399406,0.42718,0.87458
351.639,42.21395,-0.04431933,0.42725,0.87408
352.239,42.26944,-0.04431836,0.42627,0.87358
352.839,42.32512,-0.04464567,0.42834,0.87308
353.439,42.38067,-0.04593001,0.42892,0.87258
354.039,42.43625,-0.04695881,0.42917,0.87207
354.639,42.49191,-0.04696243,0.43049,0.87157
355.239,42.5475,-0.04596795,0.42984,0.87107
355.839,42.60328,-0.0449844,0.42962,0.87057
356.439,42.659,-0.04498,0.43021,0.87007
357.039,42.71464,-0.04498,0.43098,0.86956
357.639,42.7704,-0.04497974,0.43244,0.86906
358.239,42.82589,-0.04601083,0.43031,0.86856
358.839,42.88143,-0.04597002,0.43123,0.86805
359.439,42.93711,-0.04597001,0.4326,0.86755
360.039,42.99265,-0.04599005,0.43568,0.86704
360.639,43.04851,-0.04696083,0.43538,0.86654
361.239,43.10432,-0.04748225,0.43703,0.86604
361.839,43.1601,-0.0476101,0.43774,0.86553
362.439,43.21583,-0.04796358,0.43858,0.86503
363.039,43.27152,-0.04794,0.4409,0.86452
363.639,43.32677,-0.04795247,0.44014,0.86402
364.239,43.3825,-0.04728367,0.44184,0.86351
364.839,43.4382,-0.04728,0.44205,0.86301
365.439,43.49394,-0.04727996,0.44158,0.8625
366.039,43.55018,-0.04725948,0.44168,0.86199
366.639,43.6059,-0.04728914,0.44237,0.86149
367.239,43.6619,-0.04728015,0.44469,0.86098
367.839,43.7178,-0.04674281,0.44707,0.86047
368.439,43.7737,-0.04588482,0.445,0.85997
369.039,43.82955,-0.04727953,0.44749,0.85946
369.639,43.88534,-0.04859555,0.44686,0.85895
370.239,43.9412,-0.04858983,0.45045,0.85845
370.839,43.9972,-0.04990575,0.44967,0.85794
371.439,44.0533,-0.05122909,0.4517,0.85743
372.039,44.10913,-0.05122891,0.4523,0.85692
372.639,44.165,-0.05254919,0.45315,0.85642
373.239,44.2208,-0.05255439,0.45488,0.85591
373.839,44.2766,-0.05385293,0.45615,0.8554
374.439,44.33252,-0.05382472,0.46067,0.85489
375.039,44.38851,-0.05610259,0.46296,0.85438
375.639,44.44454,-0.05789884,0.46485,0.85387
376.239,44.5006,-0.05921397,0.46706,0.85336
376.839,44.5568,-0.06258753,0.47076,0.85286
377.439,44.6131,-0.06409742,0.47452,0.85235
378.039,44.66918,-0.06538099,0.47528,0.85184
378.639,44.7252,-0.06815863,0.47871,0.85133
379.239,44.78132,-0.06933022,0.4821,0.85082
379.839,44.8376,-0.06926224,0.48586,0.85031
380.439,44.89413,-0.07108036,0.49218,0.8498
381.039,44.95061,-0.07135587,0.49382,0.84929
381.639,45.00707,-0.07309647,0.4976,0.84878
382.239,45.0635,-0.07480078,0.49957,0.84827
382.839,45.11965,-0.07334598,0.50209,0.84776
383.439,45.17585,-0.0743781,0.50599,0.84725
384.039,45.2319,-0.07431197,0.50598,0.84674
384.639,45.28822,-0.07744524,0.50418,0.84623
385.239,45.3448,-0.08002778,0.5077,0.84572
385.839,45.40135,-0.08291181,0.50492,0.8452
386.439,45.4581,-0.08314197,0.50571,0.84469
387.039,45.51443,-0.08557006,0.5045,0.84418
387.639,45.5707,-0.08774965,0.5058,0.84367
388.239,45.62709,-0.09100274,0.50506,0.84316
388.839,45.6837,-0.09397821,0.50778,0.84265
389.439,45.7401,-0.09823796,0.50949,0.84214
390.039,45.79672,-0.10159,0.50916,0.84163
390.639,45.85326,-0.1035,0.51405,0.84111
391.239,45.90975,-0.10674,0.51902,0.8406
391.839,45.9662,-0.11023,0.52065,0.84009
392.439,46.02254,-0.11461,0.52416,0.83958
393.039,46.0788,-0.11997,0.52848,0.83907
393.639,46.13523,-0.12458,0.5323,0.83855
394.239,46.1918,-0.12887,0.5374,0.83804
394.839,46.24831,-0.13265,0.54235,0.83753
395.439,46.3048,-0.13771,0.54383,0.83702
396.039,46.3613,-0.14224,0.5474,0.8365
396.639,46.41745,-0.14837,0.54841,0.83599
397.239,46.47379,-0.1546,0.55231,0.83548
397.839,46.53033,-0.16079,0.55643,0.83497
398.439,46.58713,-0.16615,0.56019,0.83445
399.039,46.64386,-0.17214,0.56387,0.83394
399.639,46.70043,-0.17889,0.56962,0.83343
400.239,46.7567,-0.18507,0.57556,0.83292
400.839,46.81302,-0.19294,0.5817,0.8324
401.439,46.8694,-0.19945,0.58768,0.83189
402.039,46.926,-0.20654,0.5921,0.83138
402.639,46.98272,-0.21425,0.60282,0.83086
403.239,47.03918,-0.22223,0.6068,0.83035
403.839,47.09574,-0.23102,0.61295,0.82984
404.439,47.15224,-0.23892,0.61993,0.82933
405.039,47.2087,-0.24802,0.62929,0.82881
405.639,47.2654,-0.25697,0.6384,0.8283
406.239,47.3219,-0.26624,0.64702,0.82779
406.839,47.37863,-0.27749,0.65223,0.82727
407.439,47.43538,-0.28801,0.65777,0.82676
408.039,47.4923,-0.29871,0.65965,0.82625
408.639,47.54916,-0.30833,0.66875,0.82573
409.239,47.60569,-0.32126,0.67617,0.82522
409.839,47.6623,-0.33285,0.68101,0.82471
410.439,47.71865,-0.34444,0.69045,0.82419
411.039,47.7753,-0.35539,0.69818,0.82368
411.639,47.83204,-0.36866,0.70449,0.82317
412.239,47.88884,-0.38317,0.71512,0.82265
412.839,47.94572,-0.39576,0.72316,0.82214
413.439,48.0026,-0.41013,0.73629,0.82163
414.039,48.0593,-0.42706,0.74764,0.82111
414.639,48.11609,-0.44258,0.75656,0.8206
415.239,48.17297,-0.45778,0.76985,0.82009
415.839,48.22976,-0.47429,0.78634,0.81957
416.439,48.2866,-0.49101,0.80302,0.81906
417.039,48.3434,-0.50712,0.81178,0.81855
417.639,48.4001,-0.5268,0.82397,0.81803
418.239,48.45682,-0.54502,0.83872,0.81752
418.839,48.5137,-0.56696,0.85618,0.81701
419.439,48.5706,-0.58794,0.87782,0.81649
420.039,48.62753,-0.60816,0.89893,0.81598
420.639,48.68456,-0.63202,0.90974,0.81547
421.239,48.74154,-0.65492,0.92271,0.81495
421.839,48.79875,-0.67988,0.93513,0.81444
422.439,48.85583,-0.70411,0.94498,0.81393
423.039,48.91283,-0.73073,0.96011,0.81341
423.639,48.96985,-0.75677,0.97356,0.8129
424.239,49.0267,-0.78272,0.9768,0.81239
424.839,49.0839,-0.81127,0.9818,0.81187
425.439,49.1409,-0.83948,0.9933,0.81136
426.039,49.19804,-0.87146,1.02314,0.81085
426.639,49.25523,-0.90055,1.04468,0.81034
427.239,49.31237,-0.93404,1.06537,0.80982
427.839,49.36954,-0.96685,1.07543,0.80931
428.439,49.42693,-1.00104,1.09337,0.8088
429.039,49.48413,-1.03835,1.1242,0.80828
429.639,49.5413,-1.07346,1.13534,0.80777
430.239,49.59854,-1.11311,1.16429,0.80726
430.839,49.65583,-1.15032,1.18764,0.80675
431.439,49.7133,-1.19301,1.20124,0.80623
432.039,49.77073,-1.23176,1.19141,0.80572
432.639,49.82808,-1.2732,1.18512,0.80521
433.239,49.88542,-1.31574,1.1847,0.8047
433.839,49.9427,-1.3569,1.20161,0.80419
434.439,49.99989,-1.40512,1.21995,0.80367
435.039,50.0571,-1.44773,1.22817,0.80316
435.639,50.1142,-1.49446,1.22681,0.80265
436.239,50.17132,-1.53867,1.21675,0.80214
436.839,50.2286,-1.58549,1.21901,0.80163
437.439,50.2858,-1.63267,1.22175,0.80111
438.039,50.34317,-1.67896,1.22975,0.8006
438.639,50.40061,-1.72968,1.24339,0.80009
439.239,50.45818,-1.77903,1.25309,0.79958
439.839,50.51572,-1.82963,1.25821,0.79907
440.439,50.57307,-1.87776,1.26101,0.79856
441.039,50.63043,-1.92794,1.25808,0.79805
441.639,50.6879,-1.97881,1.2536,0.79753
442.239,50.74557,-2.02785,1.2513,0.79702
442.839,50.8033,-2.079,1.2473,0.79651
443.439,50.86099,-2.12846,1.23824,0.796
444.039,50.91873,-2.18005,1.22992,0.79549
444.639,50.9764,-2.22953,1.21921,0.79498
445.239,51.03436,-2.28209,1.21168,0.79447
445.839,51.0923,-2.33068,1.19633,0.79396
446.439,51.15005,-2.38151,1.1814,0.79345
447.039,51.20773,-2.4289,1.16146,0.79294
447.639,51.2654,-2.48354,1.14282,0.79243
448.239,51.323,-2.53415,1.1209,0.79192
448.839,51.38071,-2.58026,1.09388,0.79141
449.439,51.43826,-2.62829,1.06508,0.7909
450.039,51.49555,-2.67438,1.03801,0.79039
450.639,51.5531,-2.71836,1.00154,0.78988
451.239,51.6105,-2.76053,0.97059,0.78937
451.839,51.66788,-2.80224,0.93271,0.78886
452.439,51.72532,-2.84211,0.89461,0.78836
453.039,51.78252,-2.88063,0.85307,0.78785
453.639,51.83937,-2.9167,0.81119,0.78734
454.239,51.89653,-2.95259,0.77077,0.78683
454.839,51.9534,-2.98463,0.72799,0.78632
455.439,52.01041,-3.01386,0.68407,0.78581
456.039,52.0674,-3.04227,0.64384,0.7853
456.639,52.12424,-3.06944,0.60797,0.7848
457.239,52.18114,-3.09324,0.56628,0.78429
457.839,52.23805,-3.11592,0.53107,0.78378
458.439,52.29504,-3.13686,0.49635,0.78327
459.039,52.35203,-3.15535,0.46614,0.78277
459.639,52.409,-3.17264,0.43749,0.78226
460.239,52.4661,-3.19051,0.41235,0.78175
460.839,52.52327,-3.2065,0.3889,0.78125
461.439,52.58045,-3.21991,0.36908,0.78074
462.039,52.6375,-3.23413,0.34837,0.78023
462.639,52.69465,-3.2467,0.33347,0.77973
463.239,52.7519,-3.25811,0.3141,0.77922
463.839,52.80915,-3.26887,0.29707,0.77871
464.439,52.86656,-3.28075,0.28145,0.77821
465.039,52.92389,-3.29179,0.26538,0.7777
465.639,52.98135,-3.30138,0.25243,0.7772
466.239,53.0387,-3.30915,0.23681,0.77669
466.839,53.09626,-3.31761,0.22417,0.77619
467.439,53.15356,-3.32608,0.20823,0.77568
468.039,53.21096,-3.33419,0.19514,0.77518
468.639,53.26829,-3.34202,0.18462,0.77467
469.239,53.3257,-3.34865,0.17163,0.77417
469.839,53.38321,-3.35592,0.16247,0.77366
470.439,53.44076,-3.36137,0.15085,0.77316
471.039,53.49853,-3.36852,0.13859,0.77266
471.639,53.55614,-3.37259,0.12888,0.77215
472.239,53.61348,-3.37855,0.12398,0.77165
472.839,53.6708,-3.38488,0.10983,0.77114
473.439,53.72838,-3.38758,0.10253,0.77064
474.039,53.7863,-3.39316,0.09419038,0.77014
474.639,53.84418,-3.39824,0.08738717,0.76964
475.239,53.9021,-3.4048,0.08296667,0.76913
475.839,53.96003,-3.40737,0.07333599,0.76863
476.439,54.0179,-3.41146,0.06584781,0.76813
477.039,54.0757,-3.41627,0.05735299,0.76763
477.639,54.13352,-3.41975,0.05720874,0.76713
478.239,54.19113,-3.4231,0.04886519,0.76662
478.839,54.249,-3.42494,0.04626314,0.76612
479.439,54.3065,-3.42889,0.04027196,0.76562
480.039,54.36441,-3.43199,0.03824168,0.76512
480.639,54.42246,-3.43525,0.03193932,0.76462
481.239,54.4806,-3.43822,0.02808119,0.76412
481.839,54.53855,-3.44127,0.02405146,0.76362
482.439,54.5964,-3.44432,0.02099173,0.76312
483.039,54.6542,-3.44655,0.01659437,0.76262
483.639,54.71209,-3.44867,0.01407219,0.76212
484.239,54.77016,-3.45105,0.0097902,0.76162
484.839,54.82806,-3.45408,0.008120456,0.76112
485.439,54.88596,-3.45648,0.004524877,0.76062
486.039,54.9439,-3.45857,0.001335974,0.76013
486.639,55.00166,-3.4599,0.000225731,0.75963
487.239,55.0597,-3.46164,-0.0008688595,0.75913
487.839,55.11779,-3.46444,-0.00544611,0.75863
488.439,55.176,-3.46709,-0.005242341,0.75813
489.039,55.234,-3.46839,-0.005063744,0.75764
489.639,55.29209,-3.46995,-0.00997407,0.75714
490.239,55.3499,-3.47119,-0.01100414,0.75664
490.839,55.4076,-3.47382,-0.0138454,0.75615
491.439,55.46565,-3.4746,-0.01582164,0.75565
492.039,55.52364,-3.47599,-0.01613688,0.75515
492.639,55.5823,-3.47733,-0.01627992,0.75466
493.239,55.64045,-3.47916,-0.01830403,0.75416
493.839,55.69835,-3.4814,-0.01762281,0.75367
494.439,55.7565,-3.48282,-0.01973404,0.75317
495.039,55.8147,-3.48271,-0.01963652,0.75268
495.639,55.8729,-3.48416,-0.02130296,0.75218
496.239,55.9312,-3.48671,-0.02217096,0.75169
496.839,55.9893,-3.48803,-0.02162718,0.7512
497.439,56.04756,-3.4885,-0.02286536,0.7507
498.039,56.1057,-3.48933,-0.0231539,0.75021
498.639,56.1638,-3.49066,-0.025901,0.74972
499.239,56.2219,-3.49204,-0.02705332,0.74922
499.839,56.28,-3.49406,-0.02592815,0.74873
500.439,56.3381,-3.49537,-0.02748392,0.74824
501.039,56.3964,-3.49668,-0.0259878,0.74775
501.639,56.4547,-3.49799,-0.02715465,0.74725
502.239,56.513,-3.49801,-0.02818884,0.74676
502.839,56.57145,-3.49933,-0.02723159,0.74627
503.439,56.6297,-3.50035,-0.03001171,0.74578
504.039,56.688,-3.50197,-0.03112386,0.74529
504.639,56.7462,-3.50304,-0.03036464,0.7448
505.239,56.8043,-3.50262,-0.0294447,0.74431
505.839,56.86255,-3.5039,-0.02815154,0.74382
506.439,56.92083,-3.50524,-0.02930462,0.74333
507.039,56.97909,-3.50523,-0.03101757,0.74284
507.639,57.0375,-3.50586,-0.03158794,0.74235
508.239,57.09576,-3.50722,-0.03265601,0.74186
508.839,57.15424,-3.5098,-0.03304021,0.74137
509.439,57.21278,-3.50986,-0.03242909,0.74089
510.039,57.27123,-3.51119,-0.03136804,0.7404
510.639,57.3299,-3.51182,-0.03358569,0.73991
511.239,57.3885,-3.51315,-0.03344398,0.73942
511.839,57.44686,-3.51314,-0.03237678,0.73894
512.439,57.5056,-3.51351,-0.03285093,0.73845
513.039,57.56403,-3.51446,-0.03186696,0.73796
513.639,57.6225,-3.51578,-0.03139868,0.73748
514.239,57.68105,-3.51575,-0.031011,0.73699
514.839,57.7395,-3.5171,-0.03032866,0.73651
515.439,57.798,-3.51837,-0.03216705,0.73602
516.039,57.8565,-3.51841,-0.03044605,0.73554
516.639,57.9151,-3.5184,-0.03021871,0.73505
517.239,57.97351,-3.51973,-0.02996064,0.73457
517.839,58.0321,-3.52104,-0.0299023,0.73408
518.439,58.09065,-3.52104,-0.02896418,0.7336
519.039,58.14921,-3.52235,-0.0281015,0.73312
519.639,58.20805,-3.5223,-0.02808919,0.73263
520.239,58.2667,-3.52368,-0.03017901,0.73215
520.839,58.32545,-3.52497,-0.02916878,0.73167
521.439,58.3841,-3.52557,-0.02880064,0.73119
522.039,58.4427,-3.52564,-0.03124073,0.73071
522.639,58.50115,-3.52646,-0.0309539,0.73023
523.239,58.5597,-3.52696,-0.03035028,0.72974
523.839,58.6183,-3.52696,-0.03101873,0.72926
524.439,58.6768,-3.52828,-0.02852329,0.72878
525.039,58.7353,-3.52893,-0.0296908,0.7283
525.639,58.79381,-3.52797,-0.02847357,0.72782
526.239,58.85241,-3.52796,-0.02879493,0.72734
526.839,58.91084,-3.52828,-0.02790925,0.72687
527.439,58.9695,-3.52928,-0.027422,0.72639
528.039,59.028,-3.52925,-0.03157498,0.72591
528.639,59.08674,-3.53006,-0.02885284,0.72543
529.239,59.14571,-3.53086,-0.02946521,0.72495
529.839,59.2044,-3.53223,-0.03007104,0.72448
530.439,59.2631,-3.53223,-0.02989809,0.724
531.039,59.3218,-3.53234,-0.03172318,0.72352
531.639,59.38055,-3.53355,-0.03019735,0.72305
532.239,59.43939,-3.53487,-0.03260485,0.72257
532.839,59.49819,-3.53486,-0.03123465,0.7221
533.439,59.55689,-3.53609,-0.0330559,0.72162
534.039,59.61571,-3.53489,-0.03131803,0.72115
534.639,59.67476,-3.53486,-0.03161082,0.72067
535.239,59.7337,-3.53491,-0.03465673,0.7202
535.839,59.79241,-3.53619,-0.03672919,0.71972
536.439,59.8512,-3.53684,-0.03567519,0.71925
537.039,59.9102,-3.53814,-0.03723462,0.71878
537.639,59.96931,-3.53947,-0.03644742,0.7183
538.239,60.0283,-3.53949,-0.03840692,0.71783
538.839,60.0873,-3.53814,-0.03699252,0.71736
539.439,60.1464,-3.54076,-0.03908234,0.71689
540.039,60.2053,-3.54077,-0.0402837,0.71642
540.639,60.26419,-3.54083,-0.03959891,0.71595
541.239,60.32309,-3.54078,-0.0410209,0.71548
541.839,60.38179,-3.54078,-0.04047749,0.71501
542.439,60.4405,-3.5421,-0.04339165,0.71454
543.039,60.4995,-3.54276,-0.04352045,0.71407
543.639,60.5585,-3.54407,-0.04316585,0.7136
544.239,60.6175,-3.544,-0.04382176,0.71313
544.839,60.67649,-3.54539,-0.04386491,0.71266
545.439,60.73529,-3.54441,-0.04544516,0.71219
546.039,60.7942,-3.54407,-0.04383302,0.71173
546.639,60.8531,-3.54454,-0.04484733,0.71126
547.239,60.91195,-3.54539,-0.04493237,0.71079
547.839,60.9711,-3.54539,-0.04548191,0.71033
548.439,61.02992,-3.54539,-0.0487083,0.70986
549.039,61.08876,-3.5467,-0.04742629,0.70939
549.639,61.14768,-3.54802,-0.04891437,0.70893
550.239,61.2066,-3.54802,-0.05124159,0.70846
550.839,61.26565,-3.54795,-0.05247798,0.708
551.439,61.32448,-3.54811,-0.05422494,0.70754
552.039,61.38351,-3.54802,-0.05307267,0.70707
552.639,61.4426,-3.55032,-0.05388936,0.70661
553.239,61.5017,-3.55032,-0.05613413,0.70615
553.839,61.561,-3.549,-0.05746397,0.70568
554.439,61.61985,-3.54935,-0.06165958,0.70522
555.039,61.67873,-3.55066,-0.06114446,0.70476
555.639,61.73777,-3.55066,-0.06345511,0.7043
556.239,61.79684,-3.55058,-0.06247871,0.70384
556.839,61.85586,-3.55197,-0.06545411,0.70338
557.439,61.9149,-3.55197,-0.06775822,0.70292
558.039,61.9738,-3.55192,-0.06543302,0.70246
558.639,62.03281,-3.5533,-0.06635251,0.702
559.239,62.09177,-3.5546,-0.06947445,0.70154
559.839,62.1506,-3.55459,-0.06996129,0.70108
560.439,62.2098,-3.5546,-0.06999671,0.70062
561.039,62.2692,-3.5546,-0.06882062,0.70016
561.639,62.3284,-3.5546,-0.06983071,0.69971
562.239,62.3879,-3.55682,-0.06904004,0.69925
562.839,62.44715,-3.55723,-0.06793542,0.69879
563.439,62.50637,-3.55591,-0.0696948,0.69834
564.039,62.5655,-3.55723,-0.07035654,0.69788
564.639,62.62465,-3.55722,-0.06946732,0.69743
565.239,62.68385,-3.55855,-0.07114084,0.69697
565.839,62.7429,-3.55727,-0.07103428,0.69652
566.439,62.80219,-3.55932,-0.07351241,0.69606
567.039,62.86139,-3.55987,-0.07679695,0.69561
567.639,62.9204,-3.55987,-0.07560046,0.69516
568.239,62.97962,-3.56088,-0.07383903,0.6947
568.839,63.03892,-3.56118,-0.07167473,0.69425
569.439,63.09822,-3.56119,-0.07033522,0.6938
570.039,63.1579,-3.56119,-0.06723739,0.69335
570.639,63.21703,-3.56119,-0.06853622,0.6929
571.239,63.2761,-3.56187,-0.06936326,0.69245
571.839,63.3353,-3.5625,-0.06854492,0.692
572.439,63.39435,-3.56249,-0.07075352,0.69155
573.039,63.45349,-3.56382,-0.07252167,0.6911
573.639,63.5127,-3.56382,-0.07540765,0.69065
574.239,63.5719,-3.56511,-0.07590648,0.6902
574.839,63.63111,-3.56381,-0.0745924,0.68975
575.439,63.69034,-3.56382,-0.07088213,0.6893
576.039,63.74958,-3.56513,-0.06999567,0.68886
576.639,63.80891,-3.56645,-0.06901223,0.68841
577.239,63.8683,-3.56645,-0.06785494,0.68796
577.839,63.9275,-3.56666,-0.06747444,0.68752
578.439,63.98685,-3.56777,-0.06701597,0.68707
579.039,64.04625,-3.56777,-0.06480725,0.68663
579.639,64.10556,-3.56777,-0.06262579,0.68618
580.239,64.16494,-3.56786,-0.061621,0.68574
580.839,64.2243,-3.56918,-0.06059799,0.68529
581.439,64.28385,-3.57007,-0.06404597,0.68485
582.039,64.34306,-3.56954,-0.06254399,0.68441
582.639,64.40239,-3.57124,-0.06132489,0.68396
583.239,64.46186,-3.57248,-0.06273783,0.68352
583.839,64.5214,-3.57265,-0.05986458,0.68308
584.439,64.58136,-3.5738,-0.05991074,0.68264
585.039,64.64107,-3.57511,-0.05901064,0.6822
585.639,64.70059,-3.57511,-0.06061289,0.68176
586.239,64.7603,-3.57511,-0.06085186,0.68132
586.839,64.81973,-3.57449,-0.05963743,0.68088
587.439,64.87915,-3.57544,-0.06132376,0.68044
588.039,64.93859,-3.57544,-0.05959002,0.68
588.639,64.99791,-3.57601,-0.06221148,0.67956
589.239,65.05722,-3.57708,-0.0598339,0.67912
589.839,65.11673,-3.5784,-0.05942129,0.67869
590.439,65.17609,-3.5784,-0.05987486,0.67825
591.039,65.2356,-3.57775,-0.05782921,0.67781
591.639,65.295,-3.5782,-0.05484859,0.67738
592.239,65.3545,-3.57838,-0.06125517,0.67694
592.839,65.4138,-3.57907,-0.05837336,0.67651
593.439,65.47329,-3.5797,-0.0569459,0.67607
594.039,65.53277,-3.58006,-0.05708158,0.67564
594.639,65.59219,-3.5804,-0.05568501,0.6752
595.239,65.6516,-3.57916,-0.05292264,0.67477
595.839,65.711,-3.58038,-0.05235241,0.67434
596.439,65.77037,-3.58036,-0.05314862,0.67391
597.039,65.82995,-3.5817,-0.05204623,0.67347
597.639,65.8894,-3.5827,-0.05007089,0.67304
598.239,65.94891,-3.58301,-0.04959418,0.67261
598.839,66.00855,-3.58301,-0.04651547,0.67218
599.439,66.06819,-3.58326,-0.04817243,0.67175
600.039,66.12788,-3.58433,-0.04460382,0.67132
600.639,66.18768,-3.58433,-0.04381315,0.67089
601.239,66.24728,-3.58429,-0.04200846,0.67046
601.839,66.307,-3.58498,-0.04307163,0.67004
602.439,66.36644,-3.58629,-0.04298805,0.66961
603.039,66.42604,-3.58564,-0.0404509,0.66918
603.639,66.48562,-3.58601,-0.03897874,0.66875
604.239,66.54535,-3.58795,-0.03975634,0.66833
604.839,66.60483,-3.58695,-0.0389583,0.6679
605.439,66.6644,-3.58696,-0.04212909,0.66748
606.039,66.72412,-3.58836,-0.04184929,0.66705
606.639,66.78385,-3.58926,-0.03987545,0.66663
607.239,66.84353,-3.58925,-0.04045418,0.6662
607.839,66.90344,-3.5898,-0.04356045,0.66578
608.439,66.96321,-3.58926,-0.04074205,0.66535
609.039,67.02282,-3.58944,-0.0418975,0.66493
609.639,67.08234,-3.59117,-0.04203352,0.66451
610.239,67.1419,-3.59222,-0.04370601,0.66409
610.839,67.20151,-3.59222,-0.04291005,0.66367
611.439,67.26119,-3.59222,-0.04285188,0.66325
612.039,67.32082,-3.5928,-0.04342986,0.66283
612.639,67.3805,-3.59223,-0.04142603,0.66241
613.239,67.4401,-3.59355,-0.03944705,0.66199
613.839,67.49995,-3.59355,-0.03988004,0.66157
614.439,67.55971,-3.59425,-0.03926609,0.66115
615.039,67.61954,-3.59486,-0.03934542,0.66073
615.639,67.67899,-3.59486,-0.03858349,0.66031
616.239,67.7388,-3.59486,-0.03620267,0.6599
616.839,67.7989,-3.59618,-0.03572973,0.65948
617.439,67.85898,-3.59618,-0.03391059,0.65906
618.039,67.9192,-3.59716,-0.03128064,0.65865
618.639,67.97919,-3.59749,-0.03023643,0.65823
619.239,68.03916,-3.59749,-0.02999148,0.65782
619.839,68.0992,-3.59848,-0.02841132,0.6574
620.439,68.1593,-3.59749,-0.02467917,0.65699
621.039,68.21911,-3.59881,-0.02633047,0.65658
621.639,68.2791,-3.60012,-0.02394603,0.65616
622.239,68.33887,-3.60012,-0.02185207,0.65575
622.839,68.39867,-3.60012,-0.02214876,0.65534
623.439,68.45843,-3.60145,-0.02176783,0.65493
624.039,68.51831,-3.60144,-0.02155033,0.65452
624.639,68.57842,-3.60143,-0.01901841,0.65411
625.239,68.63849,-3.60079,-0.01921949,0.6537
625.839,68.69837,-3.60211,-0.02023506,0.65329
626.439,68.75825,-3.6021,-0.01629993,0.65288
627.039,68.8181,-3.6034,-0.016586,0.65247
627.639,68.87823,-3.60341,-0.01732393,0.65206
628.239,68.93819,-3.60475,-0.01780034,0.65166
628.839,68.99812,-3.60473,-0.01875575,0.65125
629.439,69.05815,-3.60473,-0.02095653,0.65084
630.039,69.11827,-3.60473,-0.01922317,0.65044
630.639,69.17835,-3.60604,-0.02291469,0.65003
631.239,69.23845,-3.60607,-0.02069899,0.64963
631.839,69.29876,-3.60538,-0.02123481,0.64922
632.439,69.35896,-3.6067,-0.01962364,0.64882
633.039,69.41905,-3.60539,-0.02070502,0.64841
633.639,69.47912,-3.60539,-0.0215576,0.64801
634.239,69.53909,-3.60539,-0.01969136,0.64761
634.839,69.59915,-3.60671,-0.02049899,0.64721
635.439,69.65913,-3.60671,-0.01997847,0.6468
636.039,69.71908,-3.60802,-0.01971576,0.6464
636.639,69.77929,-3.60802,-0.01594652,0.646
637.239,69.8394,-3.60835,-0.01700167,0.6456
637.839,69.89976,-3.60939,-0.01276565,0.6452
638.439,69.9601,-3.60967,-0.01333749,0.6448
638.739,69.99051,-3.60967,-0.01362799,0.6446