File: 01_Data/PETG/STA/N2/10K_min/PETG_STA_N2_10KData_210901_R3.csv
##Temp./Â°C,Time/min,Mass loss(subtr.2)/mg,DSC(subtr.2)/(mW/mg),Sensit./(uV/mW)
49.799,10.00917,-0.01645,-0.000158737,1.03584
50.399,11.4345,-0.01807337,0.01690487,1.03582
50.999,11.8069,-0.02013626,0.0299599,1.03578
51.599,12.07218,-0.02189812,0.03948628,1.03575
52.199,12.29349,-0.02246744,0.04843621,1.03572
52.799,12.48335,-0.02183166,0.0543429,1.03568
53.399,12.65592,-0.02220207,0.06111396,1.03565
53.999,12.81514,-0.02249949,0.06642296,1.03561
54.599,12.965,-0.02240669,0.07025124,1.03557
55.199,13.1068,-0.02254181,0.07467845,1.03553
55.799,13.24179,-0.0218591,0.07851148,1.03549
56.399,13.3706,-0.02255379,0.08278939,1.03544
56.999,13.4956,-0.02254425,0.08479384,1.0354
57.599,13.61641,-0.0246464,0.08894546,1.03535
58.199,13.7334,-0.02375627,0.09268884,1.0353
58.799,13.8471,-0.02415035,0.0965222,1.03525
59.399,13.95861,-0.0238332,0.09847011,1.0352
59.999,14.06749,-0.02367315,0.10016,1.03514
60.599,14.174,-0.02293479,0.10269,1.03509
61.199,14.27861,-0.02421117,0.10708,1.03503
61.799,14.3808,-0.02332216,0.10985,1.03497
62.399,14.4808,-0.02450229,0.11264,1.03491
62.999,14.5793,-0.02468276,0.11616,1.03485
63.599,14.67564,-0.02447671,0.11754,1.03479
64.199,14.77,-0.02448446,0.12125,1.03472
64.799,14.86321,-0.02513352,0.12197,1.03466
65.399,14.9552,-0.02319145,0.12457,1.03459
65.999,15.0466,-0.02413142,0.12704,1.03452
66.599,15.13649,-0.02287187,0.12792,1.03445
67.199,15.22445,-0.0244839,0.13026,1.03438
67.799,15.3112,-0.02463536,0.13162,1.03431
68.399,15.3967,-0.02454176,0.13384,1.03423
68.999,15.4819,-0.02479598,0.13591,1.03415
69.599,15.56645,-0.0251011,0.13893,1.03408
70.199,15.6492,-0.02324007,0.14106,1.034
70.799,15.73,-0.02456185,0.14196,1.03392
71.399,15.8111,-0.02443153,0.14383,1.03383
71.999,15.892,-0.02337808,0.14547,1.03375
72.599,15.9727,-0.02359911,0.14623,1.03366
73.199,16.05213,-0.02339724,0.147,1.03358
73.799,16.13071,-0.02587213,0.1457,1.03349
74.399,16.20873,-0.02446059,0.14733,1.0334
74.999,16.28577,-0.02434507,0.14582,1.03331
75.599,16.3632,-0.02564369,0.14738,1.03321
76.199,16.4399,-0.02329181,0.14622,1.03312
76.799,16.51594,-0.02473952,0.14682,1.03302
77.399,16.59092,-0.0255862,0.14795,1.03293
77.999,16.66535,-0.02564574,0.14658,1.03283
78.599,16.73963,-0.02671948,0.14616,1.03273
79.199,16.81307,-0.02567309,0.1462,1.03262
79.799,16.88605,-0.02573823,0.14697,1.03252
80.399,16.95789,-0.02575979,0.14775,1.03242
80.999,17.02992,-0.02573233,0.14606,1.03231
81.599,17.1012,-0.0257637,0.14655,1.0322
82.199,17.17274,-0.02574787,0.14523,1.03209
82.799,17.24315,-0.02581599,0.14512,1.03198
83.399,17.3136,-0.02582117,0.14428,1.03187
83.999,17.3834,-0.02614145,0.14431,1.03176
84.599,17.45301,-0.02517193,0.14321,1.03164
85.199,17.52186,-0.02507101,0.14329,1.03152
85.799,17.59018,-0.02588602,0.14171,1.03141
86.399,17.65811,-0.02545995,0.14383,1.03129
86.999,17.72586,-0.02452107,0.14275,1.03117
87.599,17.79341,-0.02506885,0.14376,1.03104
88.199,17.86058,-0.02589242,0.14282,1.03092
88.799,17.92751,-0.02588575,0.14279,1.03079
89.399,17.9939,-0.02584997,0.14297,1.03067
89.999,18.0605,-0.02586509,0.14199,1.03054
90.599,18.1264,-0.02567447,0.14344,1.03041
91.199,18.19237,-0.0270703,0.14406,1.03028
91.799,18.25752,-0.02667189,0.14349,1.03015
92.399,18.32249,-0.02691501,0.14237,1.03001
92.999,18.38743,-0.02711174,0.14156,1.02988
93.599,18.45186,-0.02635802,0.14361,1.02974
94.199,18.5162,-0.02580505,0.14209,1.0296
94.799,18.5804,-0.02585941,0.14261,1.02946
95.399,18.64433,-0.02590579,0.14246,1.02932
95.999,18.70795,-0.0271887,0.14344,1.02918
96.599,18.77122,-0.02851328,0.14512,1.02904
97.199,18.83451,-0.02725822,0.14612,1.02889
97.799,18.89736,-0.0285339,0.14468,1.02874
98.399,18.96014,-0.02793033,0.14643,1.0286
98.999,19.02273,-0.02710999,0.14637,1.02845
99.599,19.0851,-0.02708226,0.14837,1.0283
100.199,19.14735,-0.02841963,0.15045,1.02814
100.799,19.20962,-0.02718892,0.15002,1.02799
101.399,19.27179,-0.02717221,0.15264,1.02784
101.999,19.33383,-0.02823902,0.15396,1.02768
102.599,19.39571,-0.0272014,0.15557,1.02752
103.199,19.45731,-0.0280363,0.15608,1.02736
103.799,19.51877,-0.02727322,0.15716,1.0272
104.399,19.58005,-0.02731034,0.15833,1.02704
104.999,19.6408,-0.02863494,0.16179,1.02688
105.599,19.70195,-0.02863792,0.16289,1.02671
106.199,19.76292,-0.02864975,0.16369,1.02655
106.799,19.8241,-0.02862001,0.16468,1.02638
107.399,19.8847,-0.0286268,0.16712,1.02621
107.999,19.9453,-0.0274513,0.16945,1.02604
108.599,20.0061,-0.02722668,0.17213,1.02587
109.199,20.0668,-0.02729992,0.17338,1.0257
109.799,20.1274,-0.0267811,0.17498,1.02552
110.399,20.1877,-0.02730941,0.17585,1.02535
110.999,20.24764,-0.02731066,0.1792,1.02517
111.599,20.30732,-0.02864837,0.18121,1.02499
112.199,20.3671,-0.02814372,0.18189,1.02481
112.799,20.42694,-0.02731989,0.18333,1.02463
113.399,20.48668,-0.02729843,0.18469,1.02445
113.999,20.54703,-0.02726691,0.18581,1.02426
114.599,20.60626,-0.02862894,0.18951,1.02408
115.199,20.6657,-0.02988105,0.18985,1.02389
115.799,20.7251,-0.02861975,0.1915,1.02371
116.399,20.78463,-0.03002625,0.19317,1.02352
116.999,20.8439,-0.0313871,0.19587,1.02333
117.599,20.90297,-0.03025766,0.1961,1.02313
118.199,20.96175,-0.0299406,0.19756,1.02294
118.799,21.02006,-0.03125939,0.19873,1.02275
119.399,21.07878,-0.02994079,0.20084,1.02255
119.999,21.13731,-0.03104186,0.20192,1.02235
120.599,21.19596,-0.02993957,0.20422,1.02216
121.199,21.25509,-0.02951279,0.20436,1.02196
121.799,21.31345,-0.02993917,0.20596,1.02176
122.399,21.37179,-0.03123614,0.20709,1.02155
122.999,21.4301,-0.03126097,0.20891,1.02135
123.599,21.4881,-0.03123462,0.2094,1.02115
124.199,21.54599,-0.02997203,0.2112,1.02094
124.799,21.60377,-0.03096607,0.21274,1.02073
125.399,21.6615,-0.03048511,0.21397,1.02052
125.999,21.71925,-0.02961185,0.21547,1.02031
126.599,21.77681,-0.02993993,0.21599,1.0201
127.199,21.83428,-0.02939725,0.21765,1.01989
127.799,21.89174,-0.02992959,0.21959,1.01968
128.399,21.94906,-0.03091066,0.22064,1.01946
128.999,22.0063,-0.02993586,0.2211,1.01924
129.599,22.06355,-0.03030511,0.22227,1.01903
130.199,22.12057,-0.03027837,0.22272,1.01881
130.799,22.17738,-0.03125261,0.2253,1.01859
131.399,22.2344,-0.03097052,0.22489,1.01837
131.999,22.2913,-0.0299382,0.22599,1.01814
132.599,22.34834,-0.03126773,0.22616,1.01792
133.199,22.405,-0.03014952,0.22754,1.01769
133.799,22.46151,-0.03126606,0.22867,1.01747
134.399,22.518,-0.03125896,0.22896,1.01724
134.999,22.57449,-0.02993316,0.23144,1.01701
135.599,22.63106,-0.02858955,0.23145,1.01678
136.199,22.68749,-0.02883036,0.23239,1.01655
136.799,22.7437,-0.02869936,0.23351,1.01632
137.399,22.8,-0.02994022,0.23512,1.01608
137.999,22.85596,-0.03098661,0.23428,1.01585
138.599,22.91214,-0.03129547,0.2375,1.01561
139.199,22.9682,-0.03099327,0.23783,1.01537
139.799,23.0241,-0.03093075,0.23731,1.01513
140.399,23.0801,-0.03125589,0.23964,1.01489
140.999,23.13571,-0.0324443,0.24006,1.01465
141.599,23.19146,-0.0312613,0.24249,1.01441
142.199,23.2471,-0.03107713,0.24384,1.01417
142.799,23.30269,-0.03124985,0.24308,1.01392
143.399,23.35824,-0.03125,0.24314,1.01367
143.999,23.41365,-0.03119657,0.24577,1.01343
144.599,23.46925,-0.02993998,0.24667,1.01318
145.199,23.52457,-0.03083832,0.24784,1.01293
145.799,23.58008,-0.02994,0.24956,1.01268
146.399,23.63539,-0.02995419,0.24897,1.01242
146.999,23.69075,-0.03047105,0.24769,1.01217
147.599,23.74576,-0.02993978,0.24983,1.01192
148.199,23.80095,-0.03042821,0.24999,1.01166
148.799,23.85621,-0.03125031,0.24986,1.0114
149.399,23.91151,-0.03111164,0.25165,1.01114
149.999,23.9673,-0.03125999,0.25232,1.01088
150.599,24.02242,-0.03124145,0.25348,1.01062
151.199,24.07749,-0.03022961,0.2529,1.01036
151.799,24.1325,-0.03157899,0.2539,1.0101
152.399,24.1875,-0.03160695,0.25468,1.00983
152.999,24.24259,-0.03164125,0.25464,1.00957
153.599,24.2968,-0.03079818,0.2557,1.0093
154.199,24.35153,-0.02994023,0.25762,1.00903
154.799,24.40633,-0.03113492,0.25803,1.00877
155.399,24.46112,-0.03134461,0.25691,1.0085
155.999,24.5167,-0.03170532,0.2582,1.00822
156.599,24.57145,-0.03255858,0.25882,1.00795
157.199,24.62624,-0.03125754,0.2599,1.00768
157.799,24.68119,-0.03256863,0.26068,1.0074
158.399,24.73619,-0.03150231,0.262,1.00713
158.999,24.79115,-0.03176885,0.26133,1.00685
159.599,24.84617,-0.03119169,0.26328,1.00657
160.199,24.90075,-0.03122106,0.26134,1.00629
160.799,24.95541,-0.0325704,0.26478,1.00601
161.399,25.01008,-0.0325706,0.26492,1.00573
161.999,25.06465,-0.03121393,0.26475,1.00545
162.599,25.11919,-0.03125982,0.26697,1.00516
163.199,25.17373,-0.03257358,0.26511,1.00488
163.799,25.22816,-0.03257344,0.26817,1.00459
164.399,25.28286,-0.03125261,0.26951,1.0043
164.999,25.3376,-0.03250972,0.26981,1.00402
165.599,25.39241,-0.0325746,0.26802,1.00373
166.199,25.447,-0.03241505,0.27054,1.00344
166.799,25.50155,-0.03257988,0.27013,1.00314
167.399,25.55603,-0.03258001,0.27057,1.00285
167.999,25.61048,-0.03258506,0.27057,1.00256
168.599,25.665,-0.03255287,0.27128,1.00226
169.199,25.71943,-0.0325694,0.27241,1.00197
169.799,25.7739,-0.03324328,0.27497,1.00167
170.399,25.82844,-0.03323,0.27326,1.00137
170.999,25.88285,-0.03323,0.27418,1.00107
171.599,25.93733,-0.03323,0.2743,1.00077
172.199,25.99169,-0.03322987,0.2752,1.00047
172.799,26.0461,-0.03362834,0.27435,1.00017
173.399,26.10051,-0.0353754,0.27648,0.99986
173.999,26.15479,-0.03400161,0.27603,0.99956
174.599,26.20906,-0.034,0.27875,0.99925
175.199,26.263,-0.034,0.27843,0.99894
175.799,26.3173,-0.034,0.27981,0.99864
176.399,26.37146,-0.03400146,0.27916,0.99833
176.999,26.4257,-0.0340296,0.28021,0.99802
177.599,26.4801,-0.03267683,0.27999,0.99771
178.199,26.5343,-0.03266386,0.28098,0.99739
178.799,26.5887,-0.03367275,0.28,0.99708
179.399,26.64305,-0.03235102,0.28078,0.99676
179.999,26.6972,-0.03235,0.28103,0.99645
180.599,26.75147,-0.03234884,0.28197,0.99613
181.199,26.8055,-0.03267282,0.28211,0.99581
181.799,26.85953,-0.03301707,0.28342,0.9955
182.399,26.91345,-0.03299834,0.28488,0.99518
182.999,26.9672,-0.03172209,0.28561,0.99486
183.599,27.02083,-0.03169151,0.28516,0.99453
184.199,27.07478,-0.03217766,0.28604,0.99421
184.799,27.1288,-0.0316999,0.28493,0.99389
185.399,27.1829,-0.03265247,0.28602,0.99356
185.999,27.23705,-0.03301011,0.28668,0.99324
186.599,27.2908,-0.03301,0.28837,0.99291
187.199,27.34471,-0.03300954,0.28992,0.99258
187.799,27.39852,-0.03433526,0.28832,0.99225
188.399,27.4524,-0.03333884,0.2894,0.99192
188.999,27.5061,-0.03337465,0.29258,0.99159
189.599,27.55988,-0.03300229,0.29147,0.99126
190.199,27.61344,-0.03400115,0.29169,0.99093
190.799,27.6671,-0.03400758,0.29242,0.99059
191.399,27.7209,-0.03431984,0.29323,0.99026
191.999,27.7745,-0.03539784,0.29621,0.98992
192.599,27.8282,-0.03439439,0.29589,0.98958
193.199,27.88167,-0.0343301,0.29506,0.98925
193.799,27.93517,-0.03442587,0.29698,0.98891
194.399,27.98883,-0.03433138,0.29541,0.98857
194.999,28.04246,-0.03499164,0.2983,0.98823
195.599,28.09623,-0.0356403,0.29817,0.98788
196.199,28.15,-0.03564,0.29959,0.98754
196.799,28.2035,-0.03564001,0.29853,0.9872
197.399,28.25692,-0.03563197,0.29876,0.98685
197.999,28.31042,-0.03495882,0.30097,0.98651
198.599,28.3641,-0.03634938,0.30093,0.98616
199.199,28.4177,-0.03629964,0.30241,0.98581
199.799,28.4714,-0.035618,0.30176,0.98546
200.399,28.525,-0.03573571,0.30278,0.98511
200.999,28.5786,-0.03432997,0.30326,0.98476
201.599,28.63215,-0.03446286,0.30501,0.98441
202.199,28.68566,-0.03434752,0.30408,0.98406
202.799,28.73907,-0.03432998,0.30422,0.9837
203.399,28.79257,-0.0350486,0.30776,0.98335
203.999,28.84628,-0.03495538,0.30869,0.98299
204.599,28.89994,-0.03365979,0.30887,0.98264
205.199,28.95372,-0.03365837,0.31061,0.98228
205.799,29.0074,-0.03432893,0.3117,0.98192
206.399,29.0608,-0.03432032,0.31093,0.98156
206.999,29.11443,-0.03539456,0.31237,0.9812
207.599,29.168,-0.03564005,0.3131,0.98084
208.199,29.22158,-0.03562769,0.31341,0.98048
208.799,29.2754,-0.03433095,0.31498,0.98012
209.399,29.32897,-0.03564305,0.3175,0.97975
209.999,29.3825,-0.03562266,0.31774,0.97939
210.599,29.436,-0.03422599,0.31787,0.97902
211.199,29.48947,-0.03563998,0.31973,0.97866
211.799,29.54305,-0.03564,0.32124,0.97829
212.399,29.59657,-0.03563995,0.32173,0.97792
212.999,29.6501,-0.03561415,0.32294,0.97755
213.599,29.7036,-0.03434179,0.32479,0.97718
214.199,29.75708,-0.03569267,0.32509,0.97681
214.799,29.81063,-0.03433067,0.32749,0.97644
215.399,29.86413,-0.03433,0.32761,0.97606
215.999,29.9177,-0.03433,0.3289,0.97569
216.599,29.97127,-0.03433086,0.33176,0.97532
217.199,30.0249,-0.03536167,0.33271,0.97494
217.799,30.0785,-0.03563459,0.3332,0.97456
218.399,30.1322,-0.03561125,0.33532,0.97419
218.999,30.1858,-0.03564003,0.33646,0.97381
219.599,30.23958,-0.03564,0.33818,0.97343
220.199,30.2933,-0.03564,0.33999,0.97305
220.799,30.34693,-0.03564,0.34142,0.97267
221.399,30.4005,-0.03564,0.3424,0.97229
221.999,30.45407,-0.03563409,0.34543,0.97191
222.599,30.5077,-0.0361137,0.34606,0.97152
223.199,30.5613,-0.03564918,0.34898,0.97114
223.799,30.6149,-0.03437738,0.34998,0.97075
224.399,30.66835,-0.03432999,0.35288,0.97037
224.999,30.7219,-0.03432993,0.35537,0.96998
225.599,30.7755,-0.03459529,0.35724,0.96959
226.199,30.8293,-0.03696001,0.36018,0.96921
226.799,30.88304,-0.03694921,0.36154,0.96882
227.399,30.9368,-0.0356465,0.36394,0.96843
227.999,30.9905,-0.03564373,0.36531,0.96804
228.599,31.04431,-0.03553746,0.36971,0.96764
229.199,31.09807,-0.03564003,0.37295,0.96725
229.799,31.1518,-0.03563903,0.37621,0.96686
230.399,31.2056,-0.03436454,0.38103,0.96646
230.999,31.25938,-0.03433001,0.38418,0.96607
231.599,31.313,-0.03425545,0.38785,0.96567
232.199,31.36676,-0.03572619,0.39218,0.96528
232.799,31.42043,-0.03432008,0.39898,0.96488
233.399,31.47423,-0.03432001,0.40218,0.96448
233.999,31.5282,-0.03431676,0.40834,0.96408
234.599,31.58209,-0.03563821,0.41232,0.96368
235.199,31.63598,-0.03564,0.41889,0.96328
235.799,31.6899,-0.03564,0.4244,0.96288
236.399,31.7435,-0.03564,0.43453,0.96248
236.999,31.7972,-0.03564291,0.44046,0.96208
237.599,31.85104,-0.03434056,0.44712,0.96167
238.199,31.9047,-0.03432898,0.45459,0.96127
238.799,31.9587,-0.03302564,0.4638,0.96086
239.399,32.01242,-0.03420354,0.47712,0.96046
239.999,32.06621,-0.03432953,0.48638,0.96005
240.599,32.12008,-0.03564079,0.49788,0.95964
241.199,32.17403,-0.03662603,0.51265,0.95924
241.799,32.22805,-0.03606257,0.52478,0.95883
242.399,32.28195,-0.03530832,0.54046,0.95842
242.999,32.33593,-0.03563386,0.55589,0.95801
243.599,32.38986,-0.03524936,0.57186,0.95759
244.199,32.4437,-0.03555959,0.58827,0.95718
244.799,32.49758,-0.03564036,0.60668,0.95677
245.399,32.55166,-0.03449233,0.62751,0.95636
245.999,32.60561,-0.03466729,0.6505,0.95594
246.599,32.65972,-0.03597065,0.67097,0.95553
247.199,32.71387,-0.03697586,0.694,0.95511
247.799,32.7678,-0.03574386,0.72107,0.95469
248.399,32.82206,-0.03565018,0.74571,0.95428
248.999,32.87608,-0.03548101,0.77338,0.95386
249.599,32.93038,-0.03463642,0.79634,0.95344
250.199,32.98455,-0.03563819,0.81978,0.95302
250.799,33.0387,-0.03564,0.84389,0.9526
251.399,33.09276,-0.03564013,0.86327,0.95218
251.999,33.14673,-0.03537933,0.87375,0.95176
252.599,33.2009,-0.03562439,0.8806,0.95134
253.199,33.2549,-0.0342247,0.87722,0.95091
253.799,33.30891,-0.03564001,0.85873,0.95049
254.399,33.36298,-0.03543316,0.82218,0.95007
254.999,33.41701,-0.03466014,0.77454,0.94964
255.599,33.47096,-0.03466,0.71883,0.94922
256.199,33.5248,-0.03466191,0.66033,0.94879
256.799,33.5784,-0.0359663,0.60734,0.94836
257.399,33.632,-0.03597009,0.56149,0.94793
257.999,33.68565,-0.03574784,0.52446,0.94751
258.599,33.73925,-0.03564,0.49214,0.94708
259.199,33.79316,-0.03564,0.46803,0.94665
259.799,33.8469,-0.03564001,0.44783,0.94622
260.399,33.90065,-0.03564813,0.43301,0.94578
260.999,33.95454,-0.03695831,0.42177,0.94535
261.599,34.00819,-0.0369609,0.40891,0.94492
262.199,34.06195,-0.03630682,0.39925,0.94449
262.799,34.1158,-0.03565256,0.39265,0.94405
263.399,34.16956,-0.03629698,0.38553,0.94362
263.999,34.22322,-0.03630003,0.38002,0.94318
264.599,34.27708,-0.0362883,0.37844,0.94275
265.199,34.33102,-0.03498703,0.37281,0.94231
265.799,34.3849,-0.03628548,0.36893,0.94187
266.399,34.43902,-0.03760882,0.36784,0.94144
266.999,34.49295,-0.03629638,0.3665,0.941
267.599,34.5469,-0.0363,0.36222,0.94056
268.199,34.60088,-0.03629939,0.36035,0.94012
268.799,34.6547,-0.03698247,0.36047,0.93968
269.399,34.70877,-0.03695999,0.3584,0.93924
269.999,34.7626,-0.03693552,0.35792,0.9388
270.599,34.81649,-0.03728964,0.35651,0.93835
271.199,34.87056,-0.03729,0.35533,0.93791
271.799,34.92443,-0.03729,0.35453,0.93747
272.399,34.97846,-0.03729002,0.35268,0.93702
272.999,35.03255,-0.03739179,0.35433,0.93658
273.599,35.08658,-0.03625736,0.35341,0.93613
274.199,35.1406,-0.03728981,0.35367,0.93569
274.799,35.1946,-0.03726543,0.35297,0.93524
275.399,35.248,-0.03595057,0.35372,0.93479
275.999,35.30194,-0.03630017,0.35187,0.93435
276.599,35.356,-0.03630003,0.35287,0.9339
277.199,35.41012,-0.03631664,0.35342,0.93345
277.799,35.46481,-0.03500323,0.35333,0.933
278.399,35.51897,-0.03629955,0.35263,0.93255
278.999,35.5732,-0.0363002,0.35243,0.9321
279.599,35.62727,-0.03580602,0.35269,0.93165
280.199,35.68155,-0.03500185,0.3534,0.9312
280.799,35.73571,-0.03629868,0.35185,0.93074
281.399,35.7898,-0.03629925,0.35296,0.93029
281.999,35.844,-0.03762658,0.35085,0.92984
282.599,35.89809,-0.03762,0.35023,0.92938
283.199,35.95219,-0.03762,0.35089,0.92893
283.799,36.00625,-0.03762357,0.35102,0.92847
284.399,36.0603,-0.03630784,0.34944,0.92802
284.999,36.11452,-0.03629998,0.34966,0.92756
285.599,36.16874,-0.03630009,0.34922,0.92711
286.199,36.2233,-0.03556392,0.35115,0.92665
286.799,36.2777,-0.03696196,0.34873,0.92619
287.399,36.33204,-0.03696,0.34946,0.92573
287.999,36.3864,-0.03695999,0.35105,0.92527
288.599,36.4406,-0.03695076,0.35157,0.92481
289.199,36.49496,-0.0372791,0.34884,0.92435
289.799,36.54935,-0.03794731,0.3515,0.92389
290.399,36.60368,-0.03779874,0.35131,0.92343
290.999,36.6582,-0.03761997,0.35127,0.92297
291.599,36.71257,-0.03762,0.35137,0.92251
292.199,36.76705,-0.03762,0.35145,0.92204
292.799,36.82144,-0.03762,0.35168,0.92158
293.399,36.8757,-0.03762099,0.35097,0.92112
293.999,36.93011,-0.0389644,0.35282,0.92065
294.599,36.98445,-0.03893994,0.35128,0.92019
295.199,37.0384,-0.03894011,0.3513,0.91972
295.799,37.0927,-0.03799177,0.35301,0.91926
296.399,37.14717,-0.03761995,0.35427,0.91879
296.999,37.20167,-0.03772079,0.35375,0.91832
297.599,37.25673,-0.03761624,0.35239,0.91786
298.199,37.31132,-0.03761001,0.3535,0.91739
298.799,37.36582,-0.03761,0.35464,0.91692
299.399,37.4203,-0.03761,0.35234,0.91645
299.999,37.47506,-0.03760949,0.35474,0.91598
300.599,37.52967,-0.03892304,0.35183,0.91551
301.199,37.58436,-0.03893004,0.35401,0.91504
301.799,37.63904,-0.03892942,0.35291,0.91457
302.399,37.6935,-0.03970926,0.35476,0.9141
302.999,37.74803,-0.03860058,0.35394,0.91363
303.599,37.80257,-0.03892047,0.35169,0.91316
304.199,37.85716,-0.03893,0.35331,0.91268
304.799,37.91174,-0.03893,0.35339,0.91221
305.399,37.9665,-0.03892999,0.35347,0.91174
305.999,38.0212,-0.03892361,0.35379,0.91126
306.599,38.07589,-0.03992289,0.35447,0.91079
307.199,38.1307,-0.03992,0.35603,0.91031
307.799,38.18543,-0.03992,0.35585,0.90984
308.399,38.2402,-0.03992,0.35665,0.90936
308.999,38.29484,-0.03992,0.35725,0.90889
309.599,38.3495,-0.03991986,0.35674,0.90841
310.199,38.40421,-0.04022805,0.35431,0.90793
310.799,38.45904,-0.0389424,0.35804,0.90746
311.399,38.51397,-0.03991807,0.3564,0.90698
311.999,38.5689,-0.0399201,0.35807,0.9065
312.599,38.62366,-0.0402409,0.3567,0.90602
313.199,38.6785,-0.04021618,0.35644,0.90554
313.799,38.7333,-0.04156987,0.35775,0.90506
314.399,38.78774,-0.04157036,0.35774,0.90458
314.999,38.84238,-0.04047517,0.35733,0.9041
315.599,38.89685,-0.04058007,0.35837,0.90362
316.199,38.95131,-0.04058022,0.35819,0.90314
316.799,39.00622,-0.03920192,0.35717,0.90266
317.399,39.061,-0.0392581,0.35746,0.90218
317.999,39.11611,-0.04014755,0.36016,0.90169
318.599,39.17116,-0.04024995,0.35828,0.90121
319.199,39.2264,-0.04024983,0.35823,0.90073
319.799,39.28163,-0.04061177,0.35744,0.90024
320.399,39.33659,-0.04057997,0.35705,0.89976
320.999,39.3917,-0.04057938,0.35794,0.89927
321.599,39.4467,-0.03965109,0.35724,0.89879
322.199,39.50164,-0.04064617,0.35826,0.8983
322.799,39.5563,-0.0409001,0.35833,0.89782
323.399,39.6111,-0.0409,0.3563,0.89733
323.999,39.66564,-0.04090018,0.35825,0.89685
324.599,39.72036,-0.04054965,0.35912,0.89636
325.199,39.77535,-0.03930037,0.35714,0.89587
325.799,39.82993,-0.0399122,0.35828,0.89538
326.399,39.88493,-0.04127236,0.35721,0.8949
326.999,39.9403,-0.04123001,0.35786,0.89441
327.599,39.99572,-0.04122974,0.35796,0.89392
328.199,40.05128,-0.04206547,0.35723,0.89343
328.799,40.10645,-0.0425485,0.35758,0.89294
329.399,40.16131,-0.04122411,0.35824,0.89245
329.999,40.21638,-0.04144515,0.3584,0.89196
330.599,40.2716,-0.04189011,0.35987,0.89147
331.199,40.32676,-0.04190227,0.35973,0.89098
331.799,40.3818,-0.04300565,0.35982,0.89049
332.399,40.43675,-0.04190007,0.36017,0.89
332.999,40.4917,-0.0419,0.36053,0.88951
333.599,40.5465,-0.0419,0.36018,0.88901
334.199,40.60165,-0.04189996,0.36173,0.88852
334.799,40.65674,-0.04209918,0.36051,0.88803
335.399,40.71175,-0.04288029,0.361,0.88754
335.999,40.7669,-0.04287845,0.36115,0.88704
336.599,40.82188,-0.04155352,0.36111,0.88655
337.199,40.87704,-0.04156001,0.36082,0.88606
337.799,40.9326,-0.04155995,0.36137,0.88556
338.399,40.9881,-0.04158729,0.35961,0.88507
338.999,41.04361,-0.04025096,0.36065,0.88457
339.599,41.09879,-0.04025,0.36066,0.88408
340.199,41.1541,-0.04025,0.36121,0.88358
340.799,41.20945,-0.04025033,0.36086,0.88309
341.399,41.26508,-0.03892499,0.36143,0.88259
341.999,41.32069,-0.03925245,0.36031,0.88209
342.599,41.37611,-0.04063026,0.36206,0.8816
343.199,41.4315,-0.04123883,0.36118,0.8811
343.799,41.48689,-0.04124003,0.36045,0.8806
344.399,41.54229,-0.04131107,0.36134,0.8801
344.999,41.5978,-0.04311449,0.36167,0.87961
345.599,41.65315,-0.04591635,0.36192,0.87911
346.199,41.70865,-0.04596,0.3623,0.87861
346.799,41.7644,-0.04590087,0.3634,0.87811
347.399,41.82013,-0.04559491,0.36235,0.87761
347.999,41.87572,-0.04562005,0.36342,0.87711
348.599,41.93116,-0.04562185,0.36314,0.87661
349.199,41.98656,-0.04510693,0.36356,0.87611
349.799,42.04211,-0.04386636,0.36315,0.87561
350.399,42.09765,-0.04387633,0.36558,0.87511
350.999,42.15315,-0.04412391,0.36752,0.87461
351.599,42.20861,-0.04679524,0.36788,0.87411
352.199,42.26404,-0.04823843,0.36783,0.87361
352.799,42.31961,-0.04946667,0.36871,0.87311
353.399,42.37523,-0.04947004,0.36809,0.87261
353.999,42.43088,-0.0494903,0.37019,0.87211
354.599,42.48666,-0.04847941,0.3695,0.87161
355.199,42.54222,-0.04848001,0.36896,0.8711
355.799,42.59785,-0.04847151,0.36839,0.8706
356.399,42.65355,-0.04913476,0.37044,0.8701
356.999,42.70898,-0.04782083,0.3721,0.8696
357.599,42.7648,-0.04781997,0.3743,0.86909
358.199,42.82049,-0.04778879,0.37365,0.86859
358.799,42.87607,-0.04782148,0.37363,0.86809
359.399,42.93192,-0.04782042,0.37425,0.86758
359.999,42.9875,-0.04815138,0.37491,0.86708
360.599,43.04322,-0.04814001,0.37564,0.86657
361.199,43.09891,-0.04814,0.37365,0.86607
361.799,43.1545,-0.04810583,0.37577,0.86557
362.399,43.21015,-0.04847008,0.37737,0.86506
362.999,43.2659,-0.04859627,0.37824,0.86456
363.599,43.32144,-0.05115554,0.37941,0.86405
364.199,43.37705,-0.05110997,0.37828,0.86354
364.799,43.43278,-0.05111038,0.37989,0.86304
365.399,43.48838,-0.0497769,0.38049,0.86253
365.999,43.544,-0.05115822,0.38068,0.86203
366.599,43.5993,-0.05241898,0.38323,0.86152
367.199,43.65482,-0.05400214,0.38444,0.86101
367.799,43.71047,-0.05506015,0.38652,0.86051
368.399,43.76655,-0.05505968,0.38547,0.86
368.999,43.82255,-0.05656456,0.38732,0.85949
369.599,43.8788,-0.05736003,0.38935,0.85899
370.199,43.93517,-0.05736,0.3905,0.85848
370.799,43.99142,-0.05736003,0.39177,0.85797
371.399,44.0475,-0.05732406,0.39321,0.85746
371.999,44.10334,-0.05866899,0.39587,0.85696
372.599,44.15903,-0.05867,0.39588,0.85645
373.199,44.2149,-0.05866748,0.39877,0.85594
373.799,44.27075,-0.05900162,0.3989,0.85543
374.399,44.32674,-0.05975216,0.40163,0.85492
374.999,44.3829,-0.06032002,0.40402,0.85442
375.599,44.43891,-0.06032203,0.40551,0.85391
376.199,44.495,-0.06162612,0.40926,0.8534
376.799,44.55101,-0.06294861,0.41075,0.85289
377.399,44.60711,-0.06294441,0.4131,0.85238
377.999,44.66304,-0.06426835,0.41731,0.85187
378.599,44.71895,-0.0642717,0.41909,0.85136
379.199,44.77493,-0.06568255,0.42214,0.85085
379.799,44.831,-0.06583959,0.42538,0.85034
380.399,44.8872,-0.06723053,0.42982,0.84983
380.999,44.9433,-0.06907467,0.43309,0.84932
381.599,44.99949,-0.07197714,0.43722,0.84881
382.199,45.05546,-0.07502619,0.44311,0.8483
382.799,45.11149,-0.07659217,0.44978,0.84779
383.399,45.16749,-0.07787173,0.45516,0.84728
383.999,45.22351,-0.07978532,0.46028,0.84677
384.599,45.27966,-0.0807526,0.46576,0.84626
385.199,45.3356,-0.08393458,0.47386,0.84575
385.799,45.39158,-0.08583117,0.47975,0.84524
386.399,45.44763,-0.08813731,0.49016,0.84473
386.999,45.5036,-0.09126276,0.49798,0.84422
387.599,45.55959,-0.09350027,0.50378,0.84371
388.199,45.6155,-0.0979381,0.51318,0.84319
388.799,45.67153,-0.10088,0.52166,0.84268
389.399,45.7275,-0.10347,0.52996,0.84217
389.999,45.78369,-0.1061,0.53841,0.84166
390.599,45.8399,-0.10988,0.54777,0.84115
391.199,45.8962,-0.11437,0.55452,0.84064
391.799,45.95251,-0.11803,0.56474,0.84012
392.399,46.00906,-0.1213,0.56031,0.83961
392.999,46.06589,-0.12431,0.54145,0.8391
393.599,46.12287,-0.12928,0.52876,0.83859
394.199,46.1798,-0.13351,0.52123,0.83808
394.799,46.23644,-0.13885,0.5194,0.83756
395.399,46.29306,-0.1457,0.51728,0.83705
395.999,46.34966,-0.15007,0.51855,0.83654
396.599,46.40633,-0.15527,0.52077,0.83603
397.199,46.46304,-0.16044,0.52802,0.83551
397.799,46.51964,-0.16721,0.53078,0.835
398.399,46.57618,-0.1741,0.53626,0.83449
398.999,46.63264,-0.18073,0.54263,0.83398
399.599,46.6892,-0.18701,0.54687,0.83346
400.199,46.74581,-0.1949,0.55285,0.83295
400.799,46.8024,-0.2001,0.55809,0.83244
401.399,46.85903,-0.20827,0.5625,0.83192
401.999,46.91577,-0.2152,0.56759,0.83141
402.599,46.9724,-0.22396,0.57311,0.8309
403.199,47.02875,-0.23268,0.57697,0.83039
403.799,47.0856,-0.24149,0.58165,0.82987
404.399,47.14213,-0.24918,0.58717,0.82936
404.999,47.19905,-0.25928,0.59274,0.82885
405.599,47.25584,-0.26916,0.60129,0.82833
406.199,47.3127,-0.2795,0.61295,0.82782
406.799,47.3695,-0.28916,0.62276,0.82731
407.399,47.42625,-0.3003,0.63308,0.82679
407.999,47.4829,-0.31096,0.64124,0.82628
408.599,47.5396,-0.32166,0.65197,0.82577
409.199,47.59641,-0.33356,0.65953,0.82525
409.799,47.6531,-0.34617,0.66222,0.82474
410.399,47.70984,-0.35902,0.66739,0.82423
410.999,47.76675,-0.37178,0.67365,0.82371
411.599,47.8236,-0.38485,0.68224,0.8232
412.199,47.8803,-0.39986,0.69533,0.82269
412.799,47.93708,-0.41498,0.71024,0.82217
413.399,47.99367,-0.42955,0.72442,0.82166
413.999,48.0505,-0.44594,0.74888,0.82115
414.599,48.1072,-0.46231,0.77838,0.82063
415.199,48.16384,-0.48104,0.79843,0.82012
415.799,48.22064,-0.49802,0.81888,0.81961
416.399,48.27751,-0.51773,0.82341,0.81909
416.999,48.33444,-0.53558,0.8425,0.81858
417.599,48.3917,-0.5577,0.86484,0.81807
418.199,48.44835,-0.57867,0.88809,0.81755
418.799,48.5053,-0.60058,0.89965,0.81704
419.399,48.56232,-0.6237,0.92249,0.81653
419.999,48.61935,-0.64601,0.94401,0.81601
420.599,48.6766,-0.67014,0.95509,0.8155
421.199,48.73349,-0.6961,0.97822,0.81499
421.799,48.79051,-0.72279,0.98936,0.81447
422.399,48.84748,-0.7495,0.99748,0.81396
422.999,48.90469,-0.77598,1.01291,0.81345
423.599,48.96184,-0.80428,1.02223,0.81293
424.199,49.01887,-0.83128,1.01085,0.81242
424.799,49.07602,-0.85981,1.03142,0.81191
425.399,49.133,-0.88815,1.03732,0.8114
425.999,49.19025,-0.91919,1.04782,0.81088
426.599,49.2472,-0.95108,1.07442,0.81037
427.199,49.3042,-0.98405,1.09273,0.80986
427.799,49.36122,-1.01819,1.11331,0.80934
428.399,49.4184,-1.05294,1.13586,0.80883
428.999,49.47566,-1.0908,1.13455,0.80832
429.599,49.53301,-1.12617,1.138,0.80781
430.199,49.5903,-1.16226,1.15442,0.80729
430.799,49.64755,-1.2013,1.19063,0.80678
431.399,49.7049,-1.24085,1.20623,0.80627
431.999,49.7622,-1.28446,1.21823,0.80576
432.599,49.81945,-1.32422,1.23116,0.80524
433.199,49.87678,-1.36942,1.24824,0.80473
433.799,49.93432,-1.41255,1.26977,0.80422
434.399,49.99183,-1.45913,1.26603,0.80371
434.999,50.04935,-1.50478,1.24917,0.8032
435.599,50.1068,-1.54859,1.24495,0.80268
436.199,50.1642,-1.59535,1.25256,0.80217
436.799,50.22181,-1.64179,1.25797,0.80166
437.399,50.27935,-1.69502,1.26039,0.80115
437.999,50.33698,-1.74226,1.26461,0.80064
438.599,50.39452,-1.79496,1.27165,0.80013
439.199,50.45219,-1.84613,1.27739,0.79961
439.799,50.50958,-1.89901,1.28251,0.7991
440.399,50.5669,-1.95183,1.2895,0.79859
440.999,50.62423,-2.0046,1.29439,0.79808
441.599,50.6815,-2.06275,1.29664,0.79757
442.199,50.73908,-2.11719,1.29756,0.79706
442.799,50.79675,-2.1741,1.29616,0.79655
443.399,50.8544,-2.2271,1.29562,0.79604
443.999,50.91233,-2.28533,1.29238,0.79553
444.599,50.97047,-2.34252,1.28702,0.79502
445.199,51.0285,-2.40114,1.27907,0.7945
445.799,51.08655,-2.46237,1.27081,0.79399
446.399,51.14414,-2.51963,1.26005,0.79348
446.999,51.20167,-2.57693,1.24524,0.79297
447.599,51.25928,-2.63114,1.23038,0.79246
448.199,51.31684,-2.68859,1.21338,0.79195
448.799,51.37448,-2.74106,1.19069,0.79144
449.399,51.4319,-2.79823,1.16562,0.79094
449.999,51.48944,-2.85039,1.13796,0.79043
450.599,51.5469,-2.89935,1.11014,0.78992
451.199,51.60431,-2.94942,1.0772,0.78941
451.799,51.66178,-2.99394,1.04087,0.7889
452.399,51.7191,-3.04188,1.00216,0.78839
452.999,51.77647,-3.08275,0.96323,0.78788
453.599,51.83385,-3.12188,0.91899,0.78737
454.199,51.8912,-3.15783,0.87314,0.78686
454.799,51.94853,-3.19296,0.82643,0.78635
455.399,52.00581,-3.22608,0.7788,0.78585
455.999,52.06323,-3.25525,0.73071,0.78534
456.599,52.12061,-3.28546,0.68429,0.78483
457.199,52.17811,-3.31128,0.63372,0.78432
457.799,52.2355,-3.33686,0.58907,0.78382
458.399,52.29272,-3.35758,0.54295,0.78331
458.999,52.34995,-3.3786,0.5014,0.7828
459.599,52.40699,-3.39866,0.46555,0.78229
460.199,52.464,-3.41707,0.43019,0.78179
460.799,52.5212,-3.43431,0.39628,0.78128
461.399,52.5785,-3.44901,0.3657,0.78077
461.999,52.63553,-3.46335,0.34298,0.78027
462.599,52.69299,-3.47545,0.31974,0.77976
463.199,52.7504,-3.48813,0.29913,0.77925
463.799,52.8078,-3.50104,0.28227,0.77875
464.399,52.86561,-3.51155,0.26092,0.77824
464.999,52.9224,-3.52144,0.24709,0.77774
465.599,52.9795,-3.53063,0.23196,0.77723
466.199,53.0368,-3.53937,0.21737,0.77672
466.799,53.0943,-3.54779,0.2035,0.77622
467.399,53.15197,-3.55562,0.18766,0.77571
467.999,53.2095,-3.56439,0.17615,0.77521
468.599,53.26695,-3.57092,0.16265,0.77471
469.199,53.32434,-3.57829,0.15144,0.7742
469.799,53.38176,-3.58708,0.14011,0.7737
470.399,53.43917,-3.59353,0.12866,0.77319
470.999,53.49675,-3.59772,0.11642,0.77269
471.599,53.5544,-3.60316,0.10783,0.77219
472.199,53.612,-3.60833,0.10175,0.77168
472.799,53.66966,-3.61388,0.09611349,0.77118
473.399,53.72715,-3.61974,0.09111312,0.77068
473.999,53.7847,-3.62487,0.08473961,0.77017
474.599,53.84235,-3.62919,0.08195072,0.76967
475.199,53.89991,-3.63416,0.0782399,0.76917
475.799,53.9574,-3.63746,0.07780826,0.76866
476.399,54.01466,-3.64264,0.08002559,0.76816
476.999,54.0719,-3.6451,0.08555608,0.76766
477.599,54.12922,-3.6498,0.0919588,0.76716
478.199,54.1867,-3.65313,0.09076107,0.76666
478.799,54.2444,-3.65632,0.09047132,0.76616
479.399,54.3017,-3.65985,0.0870024,0.76566
479.999,54.3593,-3.66286,0.08292951,0.76515
480.599,54.417,-3.66629,0.07998418,0.76465
481.199,54.4748,-3.66823,0.07002404,0.76415
481.799,54.53292,-3.6712,0.06384842,0.76365
482.399,54.59086,-3.67426,0.05530166,0.76315
482.999,54.6488,-3.677,0.04387412,0.76265
483.599,54.70681,-3.67851,0.02853801,0.76215
484.199,54.76465,-3.6826,0.01169549,0.76166
484.799,54.8223,-3.68504,-0.01144138,0.76116
485.399,54.87987,-3.68675,-0.04003693,0.76066
485.999,54.93688,-3.6895,-0.0888411,0.76016
486.599,54.99385,-3.6911,-0.09257158,0.75966
487.199,55.05131,-3.69362,-0.09934016,0.75916
487.799,55.10912,-3.69488,-0.1181,0.75867
488.399,55.1674,-3.69666,-0.14499,0.75817
488.999,55.22609,-3.69854,-0.17422,0.75767
489.599,55.28462,-3.70023,-0.20392,0.75717
490.199,55.3431,-3.70288,-0.22247,0.75668
490.799,55.4016,-3.70412,-0.23497,0.75618
491.399,55.45998,-3.70541,-0.24422,0.75568
491.999,55.5183,-3.70674,-0.24939,0.75519
492.599,55.57651,-3.7086,-0.24986,0.75469
493.199,55.63499,-3.71041,-0.25132,0.7542
493.799,55.6931,-3.71361,-0.25029,0.7537
494.399,55.75155,-3.71481,-0.24884,0.75321
494.999,55.81004,-3.71616,-0.2464,0.75271
495.599,55.86864,-3.71809,-0.24526,0.75222
496.199,55.9272,-3.72062,-0.24497,0.75172
496.799,55.98556,-3.72177,-0.24193,0.75123
497.399,56.04396,-3.72208,-0.23957,0.75073
497.999,56.10219,-3.72348,-0.23378,0.75024
498.599,56.16065,-3.72449,-0.23331,0.74975
499.199,56.2189,-3.72602,-0.23481,0.74925
499.799,56.2773,-3.72734,-0.22809,0.74876
500.399,56.3356,-3.72899,-0.21912,0.74827
500.999,56.3941,-3.73031,-0.2188,0.74778
501.599,56.4525,-3.73162,-0.22103,0.74729
502.199,56.51106,-3.73295,-0.22046,0.74679
502.799,56.56958,-3.73293,-0.21694,0.7463
503.399,56.6283,-3.73425,-0.21418,0.74581
503.999,56.68662,-3.73558,-0.21001,0.74532
504.599,56.7452,-3.73689,-0.20549,0.74483
505.199,56.8036,-3.73768,-0.20425,0.74434
505.799,56.8622,-3.73821,-0.20062,0.74385
506.399,56.9207,-3.74051,-0.19836,0.74336
506.999,56.97903,-3.74183,-0.19876,0.74287
507.599,57.0374,-3.74314,-0.19641,0.74238
508.199,57.09587,-3.74314,-0.19273,0.74189
508.799,57.1542,-3.74455,-0.19377,0.74141
509.399,57.2128,-3.74588,-0.19236,0.74092
509.999,57.2712,-3.74586,-0.19046,0.74043
510.599,57.32966,-3.74621,-0.1911,0.73994
511.199,57.3881,-3.74753,-0.18834,0.73946
511.799,57.44653,-3.74883,-0.18676,0.73897
512.399,57.50512,-3.74917,-0.18679,0.73848
512.999,57.56377,-3.75017,-0.18546,0.738
513.599,57.62256,-3.75147,-0.1837,0.73751
514.199,57.68102,-3.75198,-0.18107,0.73702
514.799,57.73955,-3.75279,-0.17904,0.73654
515.399,57.79812,-3.75304,-0.17847,0.73605
515.999,57.85685,-3.75411,-0.17658,0.73557
516.599,57.9157,-3.75406,-0.17662,0.73508
517.199,57.97441,-3.75649,-0.17634,0.7346
517.799,58.0332,-3.75727,-0.17543,0.73412
518.399,58.0918,-3.75872,-0.1726,0.73363
518.999,58.1505,-3.75881,-0.17203,0.73315
519.599,58.2091,-3.76003,-0.17191,0.73267
520.199,58.2676,-3.76135,-0.16929,0.73218
520.799,58.32611,-3.76135,-0.16827,0.7317
521.399,58.3847,-3.76202,-0.16846,0.73122
521.999,58.4431,-3.76334,-0.16679,0.73074
522.599,58.50172,-3.76464,-0.16694,0.73026
523.199,58.5603,-3.76462,-0.16715,0.72978
523.799,58.61895,-3.76596,-0.16639,0.7293
524.399,58.67775,-3.76716,-0.16473,0.72882
524.999,58.7365,-3.76923,-0.16592,0.72834
525.599,58.79529,-3.76925,-0.16393,0.72786
526.199,58.85403,-3.76925,-0.16328,0.72738
526.799,58.91291,-3.76925,-0.16266,0.7269
527.399,58.9716,-3.76925,-0.16177,0.72642
527.999,59.03049,-3.77001,-0.15987,0.72594
528.599,59.0893,-3.77056,-0.15481,0.72546
529.199,59.1481,-3.77321,-0.15501,0.72499
529.799,59.207,-3.77296,-0.15713,0.72451
530.399,59.26574,-3.77266,-0.15727,0.72403
530.999,59.32461,-3.77385,-0.15693,0.72355
531.599,59.38361,-3.77425,-0.15852,0.72308
532.199,59.44262,-3.77517,-0.15715,0.7226
532.799,59.5015,-3.77512,-0.15674,0.72213
533.399,59.5603,-3.77649,-0.15797,0.72165
533.999,59.61903,-3.77649,-0.15684,0.72118
534.599,59.67787,-3.77781,-0.15707,0.7207
535.199,59.73661,-3.7778,-0.15603,0.72023
535.799,59.79554,-3.7778,-0.15607,0.71976
536.399,59.85428,-3.77913,-0.15385,0.71928
536.999,59.913,-3.78074,-0.15438,0.71881
537.599,59.9717,-3.78404,-0.15166,0.71834
538.199,60.0305,-3.78515,-0.15113,0.71786
538.799,60.0893,-3.78614,-0.15082,0.71739
539.399,60.14805,-3.78647,-0.14924,0.71692
539.999,60.20677,-3.78646,-0.14876,0.71645
540.599,60.26505,-3.78778,-0.14872,0.71598
541.199,60.3238,-3.7882,-0.14926,0.71551
541.799,60.3824,-3.7891,-0.14611,0.71504
542.399,60.4414,-3.7891,-0.14714,0.71457
542.999,60.50023,-3.7891,-0.14608,0.7141
543.599,60.55911,-3.79042,-0.14793,0.71363
544.199,60.61804,-3.79175,-0.14707,0.71316
544.799,60.6771,-3.79174,-0.14817,0.71269
545.399,60.736,-3.79187,-0.14787,0.71223
545.999,60.795,-3.79272,-0.14868,0.71176
546.599,60.8541,-3.79173,-0.14948,0.71129
547.199,60.9131,-3.79173,-0.14692,0.71082
547.799,60.97206,-3.79314,-0.1486,0.71036
548.399,61.03102,-3.79175,-0.14673,0.70989
548.999,61.08973,-3.79173,-0.14785,0.70943
549.599,61.1489,-3.79437,-0.1473,0.70896
550.199,61.20794,-3.79437,-0.14815,0.7085
550.799,61.26706,-3.7957,-0.14703,0.70803
551.399,61.3265,-3.79568,-0.1488,0.70757
551.999,61.38559,-3.79683,-0.14784,0.7071
552.599,61.44481,-3.79664,-0.14667,0.70664
553.199,61.50404,-3.79667,-0.14589,0.70618
553.799,61.5632,-3.79789,-0.14444,0.70571
554.399,61.62237,-3.79798,-0.14374,0.70525
554.999,61.68166,-3.79798,-0.14365,0.70479
555.599,61.74095,-3.79879,-0.14366,0.70433
556.199,61.8002,-3.79963,-0.14345,0.70387
556.799,61.85938,-3.79963,-0.14376,0.70341
557.399,61.9185,-3.79963,-0.14218,0.70295
557.999,61.9774,-3.79959,-0.14182,0.70249
558.599,62.0365,-3.80095,-0.14243,0.70203
559.199,62.0955,-3.8016,-0.14347,0.70157
559.799,62.1547,-3.80225,-0.14244,0.70111
560.399,62.21395,-3.80225,-0.1435,0.70065
560.999,62.27305,-3.80358,-0.14403,0.7002
561.599,62.3324,-3.80358,-0.14167,0.69974
562.199,62.39141,-3.80489,-0.1442,0.69928
562.799,62.45061,-3.80489,-0.14346,0.69882
563.399,62.50979,-3.80719,-0.14242,0.69837
563.999,62.56895,-3.8072,-0.14254,0.69791
564.599,62.62809,-3.80777,-0.14347,0.69746
565.199,62.68721,-3.80853,-0.14514,0.697
565.799,62.74612,-3.80812,-0.14442,0.69655
566.399,62.80517,-3.80859,-0.14505,0.69609
566.999,62.86433,-3.80884,-0.14387,0.69564
567.599,62.9236,-3.80876,-0.14549,0.69519
568.199,62.98294,-3.81016,-0.1444,0.69473
568.799,63.0422,-3.8103,-0.14228,0.69428
569.399,63.10161,-3.81288,-0.14212,0.69383
569.999,63.16101,-3.81148,-0.14458,0.69338
570.599,63.2205,-3.81148,-0.145,0.69293
571.199,63.2798,-3.81279,-0.14365,0.69248
571.799,63.3393,-3.81279,-0.14351,0.69203
572.399,63.39865,-3.81411,-0.14357,0.69158
572.999,63.458,-3.81411,-0.14592,0.69113
573.599,63.5172,-3.8151,-0.14311,0.69068
574.199,63.57659,-3.81642,-0.14358,0.69023
574.799,63.636,-3.81642,-0.14281,0.68978
575.399,63.6955,-3.81639,-0.14314,0.68933
575.999,63.75492,-3.81641,-0.14421,0.68889
576.599,63.81425,-3.81641,-0.14422,0.68844
577.199,63.87373,-3.81724,-0.14483,0.68799
577.799,63.9332,-3.81773,-0.14614,0.68755
578.399,63.99272,-3.81773,-0.14423,0.6871
578.999,64.0522,-3.81903,-0.14642,0.68666
579.599,64.11174,-3.81904,-0.14689,0.68621
580.199,64.1712,-3.82034,-0.14745,0.68577
580.799,64.2302,-3.82036,-0.14356,0.68532
581.399,64.2893,-3.82168,-0.14646,0.68488
581.999,64.34813,-3.82168,-0.14727,0.68444
582.599,64.40725,-3.82168,-0.14467,0.68399
583.199,64.4666,-3.82279,-0.14672,0.68355
583.799,64.5261,-3.82299,-0.14872,0.68311
584.399,64.58569,-3.82294,-0.15004,0.68267
584.999,64.64491,-3.82431,-0.15036,0.68223
585.599,64.7044,-3.82431,-0.15229,0.68179
586.199,64.7637,-3.82431,-0.15173,0.68135
586.799,64.8229,-3.82431,-0.14979,0.68091
587.399,64.88258,-3.82525,-0.15145,0.68047
587.999,64.94189,-3.82559,-0.15137,0.68003
588.599,65.0014,-3.82759,-0.1541,0.67959
589.199,65.0608,-3.8276,-0.15546,0.67915
589.799,65.12021,-3.82892,-0.15556,0.67872
590.399,65.17971,-3.82892,-0.15469,0.67828
590.999,65.2388,-3.82796,-0.15739,0.67784
591.599,65.2984,-3.82891,-0.15683,0.67741
592.199,65.35817,-3.82955,-0.15515,0.67697
592.799,65.4179,-3.83089,-0.15574,0.67654
593.399,65.47765,-3.83142,-0.15659,0.6761
593.999,65.5374,-3.83221,-0.15658,0.67567
594.599,65.59705,-3.83221,-0.15705,0.67523
595.199,65.65701,-3.83217,-0.15552,0.6748
595.799,65.71669,-3.83353,-0.15499,0.67437
596.399,65.77628,-3.83418,-0.15511,0.67393
596.999,65.8358,-3.83547,-0.1544,0.6735
597.599,65.89538,-3.8355,-0.15574,0.67307
598.199,65.955,-3.8355,-0.15626,0.67264
598.799,66.0146,-3.8368,-0.15816,0.67221
599.399,66.07418,-3.83818,-0.15463,0.67178
599.999,66.13387,-3.83822,-0.15581,0.67135
600.599,66.1936,-3.83681,-0.15649,0.67092
601.199,66.25332,-3.83683,-0.15708,0.67049
601.799,66.31286,-3.83747,-0.15832,0.67006
602.399,66.37244,-3.83878,-0.16064,0.66964
602.999,66.43196,-3.84011,-0.16028,0.66921
603.599,66.49168,-3.84007,-0.16149,0.66878
604.199,66.55158,-3.84109,-0.15978,0.66836
604.799,66.61153,-3.84239,-0.16058,0.66793
605.399,66.67144,-3.84254,-0.15805,0.6675
605.999,66.7312,-3.84307,-0.15732,0.66708
606.599,66.79103,-3.84307,-0.15588,0.66665
607.199,66.85089,-3.84307,-0.15833,0.66623
607.799,66.91062,-3.84317,-0.15826,0.66581
608.399,66.97032,-3.84438,-0.15974,0.66538
608.999,67.0299,-3.84574,-0.1615,0.66496
609.599,67.08952,-3.8457,-0.16383,0.66454
610.199,67.1493,-3.84637,-0.16367,0.66412
610.799,67.2091,-3.84636,-0.16351,0.6637
611.399,67.26898,-3.84636,-0.16437,0.66327
611.999,67.32871,-3.84697,-0.16613,0.66285
612.599,67.38845,-3.84767,-0.16881,0.66243
613.199,67.4482,-3.84767,-0.16831,0.66201
613.799,67.50806,-3.84767,-0.16702,0.6616
614.399,67.56786,-3.84899,-0.16476,0.66118
614.999,67.62772,-3.849,-0.16312,0.66076
615.599,67.68718,-3.8503,-0.16395,0.66034
616.199,67.7469,-3.8503,-0.16511,0.65992
616.799,67.80659,-3.85029,-0.16093,0.65951
617.399,67.86663,-3.85162,-0.16159,0.65909
617.999,67.92668,-3.85097,-0.16415,0.65868
618.599,67.9865,-3.85096,-0.16564,0.65826
619.199,68.04619,-3.85138,-0.16515,0.65785
619.799,68.10582,-3.85357,-0.16505,0.65743
620.399,68.16566,-3.85284,-0.16441,0.65702
620.999,68.2255,-3.85359,-0.16802,0.65661
621.599,68.28543,-3.85359,-0.16797,0.65619
622.199,68.3455,-3.85491,-0.16924,0.65578
622.799,68.40556,-3.85612,-0.17037,0.65537
623.399,68.4657,-3.85623,-0.17045,0.65496
623.999,68.52556,-3.85585,-0.17183,0.65455
624.599,68.58553,-3.8559,-0.1709,0.65414
625.199,68.64548,-3.85585,-0.16722,0.65373
625.799,68.70526,-3.85755,-0.16777,0.65332
626.399,68.76528,-3.85754,-0.16841,0.65291
626.999,68.82486,-3.85754,-0.16681,0.6525
627.599,68.8849,-3.85881,-0.16604,0.65209
628.199,68.94505,-3.85886,-0.1658,0.65168
628.799,69.00529,-3.85889,-0.16264,0.65128
629.399,69.06546,-3.86017,-0.16298,0.65087
629.999,69.1256,-3.85882,-0.16149,0.65046
630.599,69.1857,-3.85924,-0.15892,0.65006
631.199,69.24589,-3.86147,-0.15787,0.64965
631.799,69.30615,-3.86149,-0.15485,0.64925
632.399,69.36626,-3.8628,-0.1554,0.64884
632.999,69.42649,-3.86281,-0.15713,0.64844
633.599,69.48658,-3.86281,-0.15619,0.64804
634.199,69.5466,-3.86183,-0.15398,0.64764
634.799,69.60669,-3.86314,-0.15105,0.64723
635.399,69.66667,-3.86315,-0.14973,0.64683
635.999,69.72654,-3.86437,-0.15036,0.64643
636.599,69.78641,-3.86577,-0.14774,0.64603
637.199,69.84622,-3.86591,-0.14618,0.64563
637.799,69.90612,-3.8671,-0.14546,0.64523
638.399,69.96598,-3.86578,-0.14507,0.64483
638.699,69.99636,-3.86578,-0.14327,0.64463