File: 01_Data/LW_GypBoard_Gypsum_Core/STA/N2/3K_min/Lw_Gypsum_Core_STA_N2_3KData_222802_R1.csv
##Temp./Â°C,Time/min,Mass loss(subtr.2)/mg,DSC(subtr.2)/(mW/mg),Sensit./(uV/mW)
50.099,10.01667,-0.03917,0.01303856,1.04802
50.899,11.20423,-0.04368549,0.0401011,1.04767
51.699,11.63079,-0.04522239,0.05345974,1.04731
52.499,11.98524,-0.04662012,0.06104898,1.04696
53.299,12.3096,-0.04847253,0.06524004,1.04661
54.099,12.62107,-0.04790261,0.06880844,1.04625
54.899,12.92431,-0.0494657,0.07268927,1.0459
55.699,13.22149,-0.05073035,0.07220556,1.04555
56.499,13.51661,-0.05091236,0.07372372,1.0452
57.299,13.8087,-0.05189033,0.07325425,1.04484
58.099,14.0974,-0.05419083,0.07541042,1.04449
58.899,14.3833,-0.05551017,0.07797522,1.04414
59.699,14.6661,-0.05672772,0.08075779,1.04379
60.499,14.9454,-0.05672048,0.0825162,1.04344
61.299,15.22161,-0.05802465,0.08759351,1.04309
62.099,15.496,-0.0577003,0.08994964,1.04274
62.899,15.76936,-0.06011609,0.09302937,1.04239
63.699,16.04202,-0.06106208,0.09484944,1.04205
64.499,16.3132,-0.06133196,0.09466689,1.0417
65.299,16.58494,-0.06297024,0.10089,1.04135
66.099,16.8557,-0.0642656,0.0994143,1.041
66.899,17.1267,-0.06526782,0.1025,1.04065
67.699,17.39909,-0.06659055,0.10506,1.04031
68.499,17.66996,-0.06837373,0.10878,1.03996
69.299,17.93954,-0.06845584,0.11253,1.03961
70.099,18.20715,-0.07120007,0.1132,1.03927
70.899,18.47436,-0.07322811,0.12131,1.03892
71.699,18.7427,-0.07482004,0.1265,1.03858
72.499,19.01141,-0.0771103,0.13028,1.03823
73.299,19.28102,-0.07833271,0.13508,1.03788
74.099,19.54993,-0.07843,0.13993,1.03754
74.899,19.81927,-0.0800803,0.14728,1.0372
75.699,20.09062,-0.08270999,0.15371,1.03685
76.499,20.36122,-0.08534999,0.16241,1.03651
77.299,20.63198,-0.08660073,0.17004,1.03616
78.099,20.90071,-0.08799639,0.18303,1.03582
78.899,21.16988,-0.09193007,0.19005,1.03548
79.699,21.43759,-0.09455758,0.20174,1.03514
80.499,21.7046,-0.0975196,0.21727,1.03479
81.299,21.97257,-0.10254,0.22949,1.03445
82.099,22.24236,-0.1041,0.24227,1.03411
82.899,22.51108,-0.10772,0.25451,1.03377
83.699,22.77966,-0.11302,0.27508,1.03343
84.499,23.04725,-0.11697,0.29468,1.03309
85.299,23.31352,-0.12083,0.31606,1.03275
86.099,23.58115,-0.12868,0.33351,1.03241
86.899,23.85047,-0.13206,0.35634,1.03207
87.699,24.1199,-0.13868,0.38238,1.03173
88.499,24.3902,-0.14541,0.40555,1.03139
89.299,24.66064,-0.15298,0.43387,1.03105
90.099,24.93042,-0.16112,0.46414,1.03071
90.899,25.19898,-0.17034,0.4902,1.03037
91.699,25.46871,-0.17854,0.52631,1.03003
92.499,25.73837,-0.18799,0.55759,1.02969
93.299,26.00855,-0.19906,0.59103,1.02936
94.099,26.2771,-0.20907,0.6235,1.02902
94.899,26.5459,-0.2191,0.65906,1.02868
95.699,26.81451,-0.2333,0.6907,1.02834
96.499,27.084,-0.24619,0.72453,1.02801
97.299,27.3538,-0.25968,0.75874,1.02767
98.099,27.62149,-0.27356,0.79317,1.02733
98.899,27.8876,-0.28871,0.82684,1.027
99.699,28.15265,-0.30435,0.8667,1.02666
100.499,28.41947,-0.3232,0.90447,1.02633
101.299,28.68638,-0.33883,0.94169,1.02599
102.099,28.9542,-0.3569,0.98626,1.02566
102.899,29.22205,-0.37674,1.03318,1.02532
103.699,29.4905,-0.39716,1.08137,1.02499
104.499,29.7591,-0.41827,1.13291,1.02465
105.299,30.02852,-0.44134,1.17991,1.02432
106.099,30.2988,-0.46591,1.21676,1.02399
106.899,30.5695,-0.48712,1.24081,1.02365
107.699,30.8384,-0.51144,1.25367,1.02332
108.499,31.1053,-0.53551,1.27086,1.02299
109.299,31.37205,-0.5589,1.29133,1.02265
110.099,31.6384,-0.58191,1.31834,1.02232
110.899,31.90457,-0.60535,1.34725,1.02199
111.699,32.17078,-0.62841,1.37006,1.02165
112.499,32.4376,-0.65185,1.38746,1.02132
113.299,32.70393,-0.67595,1.38276,1.02099
114.099,32.96985,-0.70143,1.34078,1.02066
114.899,33.2331,-0.72041,1.20301,1.02033
115.699,33.4921,-0.73661,0.91669,1.02
116.499,33.74588,-0.74738,0.59509,1.01967
117.299,33.9959,-0.75407,0.40728,1.01933
118.099,34.2455,-0.75815,0.29753,1.019
118.899,34.4965,-0.76088,0.23715,1.01867
119.699,34.74992,-0.76353,0.19495,1.01834
120.499,35.00526,-0.76486,0.16713,1.01801
121.299,35.26222,-0.76748,0.14977,1.01768
122.099,35.51958,-0.7688,0.13404,1.01735
122.899,35.77752,-0.76979,0.12565,1.01702
123.699,36.0341,-0.77111,0.11766,1.01669
124.499,36.29197,-0.77245,0.11131,1.01637
125.299,36.5519,-0.77274,0.10601,1.01604
126.099,36.8125,-0.77406,0.10058,1.01571
126.899,37.07345,-0.77538,0.09651614,1.01538
127.699,37.33442,-0.77538,0.09200196,1.01505
128.499,37.59616,-0.77736,0.09034589,1.01472
129.299,37.85862,-0.77736,0.0897708,1.01439
130.099,38.12229,-0.77961,0.08773215,1.01407
130.899,38.3857,-0.77996,0.08586243,1.01374
131.699,38.6491,-0.77962,0.0813967,1.01341
132.499,38.91283,-0.78074,0.07936065,1.01308
133.299,39.17624,-0.78278,0.07905442,1.01276
134.099,39.43869,-0.7815,0.07930875,1.01243
134.899,39.70087,-0.78294,0.07674103,1.0121
135.699,39.96322,-0.78432,0.07864558,1.01177
136.499,40.22524,-0.78486,0.0791148,1.01145
137.299,40.48643,-0.7844,0.0762227,1.01112
138.099,40.74825,-0.78492,0.07844348,1.01079
138.899,41.01108,-0.78536,0.07745626,1.01047
139.699,41.27418,-0.78668,0.07662053,1.01014
140.499,41.53667,-0.787,0.07676597,1.00982
141.299,41.79844,-0.787,0.07719277,1.00949
142.099,42.05963,-0.7878,0.07609425,1.00916
142.899,42.32121,-0.78832,0.07610851,1.00884
143.699,42.5822,-0.78832,0.07593817,1.00851
144.499,42.84352,-0.78818,0.07470709,1.00819
145.299,43.10485,-0.78832,0.07561199,1.00786
146.099,43.36619,-0.78832,0.07252348,1.00754
146.899,43.6278,-0.79064,0.07350147,1.00721
147.699,43.88973,-0.79157,0.0758783,1.00689
148.499,44.15152,-0.79095,0.07336994,1.00656
149.299,44.4139,-0.79095,0.07243202,1.00624
150.099,44.67605,-0.79231,0.07251524,1.00591
150.899,44.9392,-0.79227,0.0730966,1.00559
151.699,45.20128,-0.79392,0.07215851,1.00526
152.499,45.46184,-0.79491,0.07391759,1.00494
153.299,45.72218,-0.79261,0.07404453,1.00462
154.099,45.98324,-0.79458,0.07407545,1.00429
154.899,46.2442,-0.79556,0.07654532,1.00397
155.699,46.50606,-0.79591,0.07358737,1.00364
156.499,46.76832,-0.79487,0.07540438,1.00332
157.299,47.03037,-0.79575,0.07361389,1.003
158.099,47.29152,-0.79572,0.07243217,1.00267
158.899,47.55279,-0.79556,0.07677297,1.00235
159.699,47.8139,-0.79426,0.07501528,1.00203
160.499,48.07464,-0.79556,0.07484171,1.0017
161.299,48.33435,-0.79655,0.07641222,1.00138
162.099,48.5946,-0.79556,0.07677382,1.00105
162.899,48.85544,-0.79683,0.07673119,1.00073
163.699,49.11691,-0.79786,0.07644158,1.00041
164.499,49.37944,-0.79754,0.07515504,1.00009
165.299,49.6422,-0.79787,0.07497303,0.99976
166.099,49.90461,-0.7982,0.07635387,0.99944
166.899,50.16644,-0.7982,0.07349555,0.99912
167.699,50.42734,-0.79688,0.07704599,0.99879
168.499,50.68652,-0.79817,0.07633912,0.99847
169.299,50.94582,-0.79756,0.07820849,0.99815
170.099,51.20627,-0.7988,0.07794224,0.99782
170.899,51.46606,-0.80076,0.07403623,0.9975
171.699,51.72691,-0.79986,0.07778482,0.99718
172.499,51.9878,-0.80018,0.07689705,0.99686
173.299,52.24937,-0.79885,0.07731462,0.99653
174.099,52.50974,-0.8005,0.07761837,0.99621
174.899,52.76945,-0.79984,0.07697873,0.99589
175.699,53.0291,-0.80113,0.07728434,0.99557
176.499,53.2891,-0.80147,0.0791086,0.99524
177.299,53.54889,-0.80182,0.08230036,0.99492
178.099,53.8098,-0.80182,0.07884048,0.9946
178.899,54.0719,-0.80247,0.07850488,0.99428
179.699,54.3346,-0.80082,0.07720483,0.99395
180.499,54.59638,-0.80358,0.07694841,0.99363
181.299,54.85709,-0.8011,0.07492617,0.99331
182.099,55.1185,-0.8028,0.0768866,0.99299
182.899,55.38058,-0.80116,0.0765316,0.99266
183.699,55.6419,-0.80247,0.0757543,0.99234
184.499,55.90165,-0.80247,0.0792791,0.99202
185.299,56.1607,-0.80318,0.07685962,0.9917
186.099,56.41975,-0.80379,0.07462539,0.99137
186.899,56.67931,-0.80351,0.07517832,0.99105
187.699,56.93911,-0.80245,0.07511461,0.99073
188.499,57.1989,-0.80313,0.07207109,0.99041
189.299,57.45851,-0.8029,0.07449396,0.99008
190.099,57.71859,-0.80412,0.07325507,0.98976
190.899,57.97934,-0.80249,0.07539785,0.98944
191.699,58.24244,-0.80379,0.07414065,0.98912
192.499,58.50581,-0.80149,0.07234433,0.98879
193.299,58.76862,-0.80247,0.07183474,0.98847
194.099,59.03075,-0.80109,0.06956232,0.98815
194.899,59.29322,-0.80247,0.07001141,0.98782
195.699,59.5551,-0.80412,0.07058265,0.9875
196.499,59.8168,-0.80412,0.06844845,0.98718
197.299,60.0778,-0.80543,0.07003527,0.98686
198.099,60.33896,-0.80416,0.06881701,0.98653
198.899,60.5999,-0.80412,0.06775631,0.98621
199.699,60.85969,-0.80379,0.0689909,0.98589
200.499,61.1182,-0.80343,0.06933198,0.98556
201.299,61.3762,-0.80467,0.06851911,0.98524
202.099,61.6335,-0.80411,0.06705866,0.98492
202.899,61.89102,-0.80676,0.06960106,0.98459
203.699,62.1502,-0.80444,0.06842794,0.98427
204.499,62.4101,-0.80477,0.06908062,0.98395
205.299,62.67031,-0.80412,0.0685672,0.98362
206.099,62.9297,-0.80535,0.06931289,0.9833
206.899,63.1893,-0.80544,0.06740583,0.98298
207.699,63.44925,-0.80576,0.06509298,0.98265
208.499,63.70933,-0.80452,0.06641917,0.98233
209.299,63.9693,-0.80707,0.06566687,0.982
210.099,64.229,-0.80704,0.06942228,0.98168
210.899,64.489,-0.80706,0.06867142,0.98136
211.699,64.74937,-0.8061,0.06904826,0.98103
212.499,65.00969,-0.80737,0.06562298,0.98071
213.299,65.26872,-0.80711,0.06778657,0.98038
214.099,65.5277,-0.80886,0.06735023,0.98006
214.899,65.787,-0.80758,0.06899568,0.97973
215.699,66.04642,-0.8081,0.06492232,0.97941
216.499,66.30537,-0.80806,0.06592604,0.97908
217.299,66.56368,-0.80903,0.06512149,0.97876
218.099,66.82381,-0.80843,0.06683279,0.97843
218.899,67.08414,-0.8107,0.06478191,0.97811
219.699,67.34569,-0.80938,0.06441337,0.97778
220.499,67.6066,-0.81037,0.06256063,0.97746
221.299,67.8664,-0.80938,0.06450671,0.97713
222.099,68.12621,-0.81013,0.06401238,0.97681
222.899,68.3853,-0.81003,0.06629066,0.97648
223.699,68.64421,-0.81037,0.06615281,0.97615
224.499,68.90341,-0.80971,0.06476304,0.97583
225.299,69.1617,-0.81004,0.06249922,0.9755
226.099,69.4204,-0.81103,0.06468521,0.97518
226.899,69.6796,-0.81243,0.06181192,0.97485
227.699,69.93944,-0.81026,0.06201073,0.97452
228.499,70.19861,-0.81091,0.05983074,0.9742
229.299,70.4571,-0.80996,0.06075939,0.97387
230.099,70.7156,-0.81224,0.06163813,0.97354
230.899,70.9756,-0.81191,0.05981689,0.97321
231.699,71.23569,-0.81257,0.06135819,0.97289
232.499,71.49686,-0.81257,0.05850265,0.97256
233.299,71.7571,-0.81416,0.05984445,0.97223
234.099,72.01791,-0.81253,0.06111958,0.9719
234.899,72.2789,-0.81361,0.05798736,0.97157
235.699,72.53968,-0.81409,0.06141714,0.97125
236.499,72.80041,-0.81343,0.05841871,0.97092
237.299,73.06155,-0.81347,0.05880265,0.97059
238.099,73.3233,-0.81304,0.05699991,0.97026
238.899,73.5841,-0.81575,0.05692618,0.96993
239.699,73.8442,-0.8138,0.05760448,0.9696
240.499,74.10417,-0.8151,0.0582251,0.96927
241.299,74.3623,-0.81519,0.05556358,0.96894
242.099,74.6203,-0.81541,0.05950269,0.96861
242.899,74.8796,-0.81673,0.05751448,0.96828
243.699,75.13875,-0.81608,0.05916779,0.96795
244.499,75.39777,-0.81603,0.05899159,0.96762
245.299,75.65625,-0.81813,0.05769598,0.96729
246.099,75.91334,-0.81634,0.05689663,0.96696
246.899,76.17125,-0.81708,0.05844732,0.96663
247.699,76.429,-0.81578,0.05341467,0.9663
248.499,76.68864,-0.81741,0.05722725,0.96597
249.299,76.94889,-0.81605,0.05508951,0.96563
250.099,77.21099,-0.81751,0.05427889,0.9653
250.899,77.47285,-0.81707,0.05413044,0.96497
251.699,77.7351,-0.81869,0.05483145,0.96464
252.499,77.9966,-0.81808,0.05341459,0.9643
253.299,78.2577,-0.81903,0.05375668,0.96397
254.099,78.51904,-0.81837,0.05471911,0.96364
254.899,78.7795,-0.81839,0.05237214,0.96331
255.699,79.03998,-0.81838,0.05002836,0.96297
256.499,79.30091,-0.82002,0.05167793,0.96264
257.299,79.5619,-0.82068,0.05350786,0.9623
258.099,79.823,-0.82068,0.05291943,0.96197
258.899,80.083,-0.81935,0.05171668,0.96163
259.699,80.34188,-0.82007,0.0531045,0.9613
260.499,80.60056,-0.81903,0.05230732,0.96096
261.299,80.85921,-0.82002,0.05200391,0.96063
262.099,81.11835,-0.81805,0.05173241,0.96029
262.899,81.37719,-0.82057,0.05159261,0.95996
263.699,81.63577,-0.81937,0.05191251,0.95962
264.499,81.89503,-0.82039,0.05017816,0.95928
265.299,82.15534,-0.81904,0.0486945,0.95895
266.099,82.41538,-0.82003,0.05050603,0.95861
266.899,82.6743,-0.82132,0.05176378,0.95827
267.699,82.93336,-0.82232,0.04814663,0.95793
268.499,83.19255,-0.82152,0.04706989,0.9576
269.299,83.45185,-0.82232,0.04958453,0.95726
270.099,83.71214,-0.82235,0.04881617,0.95692
270.899,83.97255,-0.82232,0.04768122,0.95658
271.699,84.2327,-0.82132,0.04659171,0.95624
272.499,84.4936,-0.82115,0.04753251,0.9559
273.299,84.755,-0.822,0.0473471,0.95556
274.099,85.01654,-0.822,0.04331756,0.95522
274.899,85.27804,-0.82169,0.04556891,0.95488
275.699,85.5393,-0.82167,0.04155863,0.95454
276.499,85.80128,-0.82068,0.04113326,0.9542
277.299,86.0634,-0.82289,0.04010876,0.95386
278.099,86.32512,-0.82332,0.03992052,0.95352
278.899,86.58586,-0.82332,0.04072415,0.95317
279.699,86.84519,-0.82306,0.04395362,0.95283
280.499,87.1036,-0.82299,0.04480516,0.95249
281.299,87.36229,-0.82331,0.04305999,0.95215
282.099,87.62075,-0.82394,0.04055649,0.9518
282.899,87.8798,-0.82343,0.04090345,0.95146
283.699,88.13757,-0.82333,0.04212215,0.95112
284.499,88.3963,-0.82418,0.03989221,0.95077
285.299,88.65629,-0.82528,0.03760071,0.95043
286.099,88.9177,-0.82364,0.03700188,0.95008
286.899,89.17953,-0.8246,0.03837191,0.94974
287.699,89.44148,-0.82496,0.03643494,0.94939
288.499,89.703,-0.82397,0.03575175,0.94904
289.299,89.9644,-0.82391,0.03735855,0.9487
290.099,90.22573,-0.82601,0.0365139,0.94835
290.899,90.48669,-0.82627,0.03591511,0.948
291.699,90.7473,-0.82544,0.03400233,0.94766
292.499,91.00659,-0.82668,0.03302126,0.94731
293.299,91.2664,-0.82627,0.0337097,0.94696
294.099,91.5258,-0.82759,0.03276707,0.94661
294.899,91.7846,-0.82693,0.03399127,0.94626
295.699,92.04233,-0.82627,0.03259945,0.94591
296.499,92.30171,-0.82759,0.03009723,0.94556
297.299,92.5634,-0.82756,0.03243313,0.94521
298.099,92.8249,-0.82726,0.02855168,0.94486
298.899,93.08544,-0.82857,0.02816784,0.94451
299.699,93.346,-0.8292,0.02836286,0.94416
300.499,93.60721,-0.82792,0.02746563,0.94381
301.299,93.86846,-0.82792,0.02769106,0.94346
302.099,94.12943,-0.83026,0.02696585,0.9431
302.899,94.39018,-0.83005,0.02662999,0.94275
303.699,94.65024,-0.82923,0.02637369,0.9424
304.499,94.9113,-0.83052,0.02282614,0.94204
305.299,95.17334,-0.83055,0.02745303,0.94169
306.099,95.4353,-0.83055,0.02538656,0.94133
306.899,95.69574,-0.83024,0.02499883,0.94098
307.699,95.95567,-0.83023,0.02376552,0.94062
308.499,96.21521,-0.83089,0.02245151,0.94027
309.299,96.47544,-0.83154,0.02387415,0.93991
310.099,96.73578,-0.83154,0.02538907,0.93955
310.899,96.996,-0.8322,0.02425709,0.9392
311.699,97.25753,-0.83286,0.02313712,0.93884
312.499,97.51943,-0.83286,0.02645188,0.93848
313.299,97.78139,-0.83286,0.02875109,0.93812
314.099,98.04058,-0.83427,0.02517228,0.93776
314.899,98.2992,-0.83579,0.02833374,0.9374
315.699,98.5573,-0.83374,0.02864584,0.93704
316.499,98.81555,-0.83467,0.03017444,0.93668
317.299,99.07434,-0.8331,0.03108509,0.93632
318.099,99.33411,-0.83461,0.02856961,0.93596
318.899,99.5946,-0.83461,0.02800585,0.9356
319.699,99.85653,-0.83461,0.02549429,0.93524
320.499,100.118,-0.83472,0.02814583,0.93488
321.299,100.379,-0.83571,0.02328726,0.93451
322.099,100.6401,-0.83459,0.02683589,0.93415
322.899,100.902,-0.83571,0.02663643,0.93379
323.699,101.165,-0.83596,0.02465457,0.93342
324.499,101.4298,-0.83636,0.02583948,0.93306
325.299,101.693,-0.83536,0.02541203,0.93269
326.099,101.956,-0.83458,0.02668229,0.93233
326.899,102.219,-0.8368,0.02469134,0.93196
327.699,102.48,-0.83735,0.02571355,0.93159
328.499,102.74,-0.83604,0.0255192,0.93123
329.299,103.001,-0.83834,0.02377676,0.93086
330.099,103.262,-0.83669,0.02287596,0.93049
330.899,103.524,-0.83669,0.02052763,0.93012
331.699,103.785,-0.83726,0.02366091,0.92975
332.499,104.045,-0.83797,0.02262665,0.92938
333.299,104.307,-0.83661,0.02399204,0.92901
334.099,104.5688,-0.8387,0.02265721,0.92864
334.899,104.831,-0.83735,0.019928,0.92827
335.699,105.093,-0.83867,0.01893654,0.9279
336.499,105.355,-0.83902,0.01812631,0.92753
337.299,105.6154,-0.84003,0.02074763,0.92715
338.099,105.876,-0.83932,0.022919,0.92678
338.899,106.1363,-0.83932,0.0205056,0.92641
339.699,106.396,-0.83866,0.01830099,0.92603
340.499,106.657,-0.83868,0.02117156,0.92566
341.299,106.918,-0.83958,0.0215906,0.92528
342.099,107.181,-0.84043,0.0177159,0.92491
342.899,107.445,-0.84137,0.01715534,0.92453
343.699,107.709,-0.84004,0.01624589,0.92415
344.499,107.972,-0.84097,0.01992046,0.92377
345.299,108.235,-0.84097,0.02184178,0.9234
346.099,108.497,-0.84227,0.02108744,0.92302
346.899,108.76,-0.84033,0.02520126,0.92264
347.699,109.023,-0.84064,0.02466178,0.92226
348.499,109.283,-0.84196,0.02593342,0.92188
349.299,109.545,-0.84131,0.02642075,0.9215
350.099,109.807,-0.84052,0.02545236,0.92112
350.899,110.069,-0.84198,0.02589992,0.92074
351.699,110.33,-0.84262,0.02658277,0.92035
352.499,110.591,-0.84431,0.02667865,0.91997
353.299,110.851,-0.84163,0.02820156,0.91959
354.099,111.11,-0.84319,0.02661133,0.9192
354.899,111.3713,-0.8424,0.0287236,0.91882
355.699,111.633,-0.84207,0.02895836,0.91843
356.499,111.896,-0.84354,0.02639374,0.91805
357.299,112.159,-0.84311,0.02846029,0.91766
358.099,112.422,-0.84393,0.02690808,0.91727
358.899,112.6841,-0.84466,0.02835575,0.91689
359.699,112.945,-0.84438,0.02530866,0.9165
360.499,113.207,-0.8447,0.02827443,0.91611
361.299,113.47,-0.84471,0.02699854,0.91572
362.099,113.734,-0.84404,0.02668463,0.91533
362.899,113.998,-0.84503,0.0236233,0.91494
363.699,114.262,-0.84465,0.02321128,0.91455
364.499,114.525,-0.84503,0.02384533,0.91416
365.299,114.7884,-0.84536,0.02224687,0.91377
366.099,115.052,-0.84536,0.02046723,0.91337
366.899,115.315,-0.84602,0.02079305,0.91298
367.699,115.579,-0.84469,0.02054345,0.91259
368.499,115.843,-0.84566,0.01938434,0.91219
369.299,116.105,-0.84516,0.02087779,0.9118
370.099,116.367,-0.84602,0.02166388,0.9114
370.899,116.628,-0.84681,0.0198969,0.911
371.699,116.89,-0.84535,0.01759759,0.91061
372.499,117.152,-0.84601,0.0213749,0.91021
373.299,117.413,-0.84737,0.01715242,0.90981
374.099,117.675,-0.84601,0.01640897,0.90941
374.899,117.937,-0.84607,0.01233718,0.90901
375.699,118.199,-0.84664,0.01313197,0.90861
376.499,118.462,-0.84591,0.01044898,0.90821
377.299,118.725,-0.84723,0.01004871,0.90781
378.099,118.989,-0.84782,0.00624355,0.90741
378.899,119.255,-0.84745,0.005087103,0.90701
379.699,119.521,-0.84777,0.001864339,0.9066
380.499,119.786,-0.84843,0.0004868282,0.9062
381.299,120.05,-0.84613,-0.001467371,0.9058
382.099,120.313,-0.84712,0.0006126328,0.90539
382.899,120.576,-0.84744,-0.002413758,0.90498
383.699,120.838,-0.84839,-0.003718325,0.90458
384.499,121.0983,-0.8471,-0.00639992,0.90417
385.299,121.359,-0.84869,-0.00660349,0.90376
386.099,121.62,-0.84843,-0.01013933,0.90336
386.899,121.882,-0.84843,-0.009513031,0.90295
387.699,122.145,-0.8481,-0.01185373,0.90254
388.499,122.408,-0.84942,-0.01390576,0.90213
389.299,122.671,-0.84843,-0.01326595,0.90172
390.099,122.935,-0.84851,-0.01755954,0.9013
390.899,123.198,-0.84863,-0.01681,0.90089
391.699,123.46,-0.84978,-0.01863009,0.90048
392.499,123.723,-0.84878,-0.01960466,0.90007
393.299,123.986,-0.84942,-0.02239601,0.89965
394.099,124.25,-0.85007,-0.02194057,0.89924
394.899,124.514,-0.84974,-0.02425565,0.89882
395.699,124.777,-0.84974,-0.02725465,0.89841
396.499,125.038,-0.84974,-0.02443132,0.89799
397.299,125.301,-0.84909,-0.02557192,0.89757
398.099,125.566,-0.85007,-0.02588553,0.89715
398.899,125.829,-0.84975,-0.02537779,0.89673
399.699,126.093,-0.84916,-0.02531359,0.89631
400.499,126.357,-0.85042,-0.0277714,0.89589
401.299,126.623,-0.84805,-0.0291932,0.89547
402.099,126.888,-0.84942,-0.0323144,0.89505
402.899,127.154,-0.85174,-0.03109269,0.89463
403.699,127.419,-0.84909,-0.03158003,0.89421
404.499,127.6825,-0.85008,-0.03209943,0.89378
405.299,127.944,-0.85073,-0.02845759,0.89336
406.099,128.206,-0.85139,-0.02661066,0.89293
406.899,128.468,-0.85007,-0.02680086,0.89251
407.699,128.73,-0.85106,-0.02674645,0.89208
408.499,128.993,-0.84911,-0.02706277,0.89165
409.299,129.255,-0.8504,-0.0262316,0.89123
410.099,129.5176,-0.8504,-0.02306729,0.8908
410.899,129.781,-0.85073,-0.02089739,0.89037
411.699,130.045,-0.8517,-0.02359897,0.88994
412.499,130.309,-0.85046,-0.02015748,0.88951
413.299,130.575,-0.85238,-0.02207032,0.88908
414.099,130.84,-0.85094,-0.02126191,0.88864
414.899,131.106,-0.85107,-0.01596411,0.88821
415.699,131.37,-0.85352,-0.01678318,0.88778
416.499,131.633,-0.85107,-0.01477316,0.88734
417.299,131.8955,-0.85226,-0.01263195,0.88691
418.099,132.158,-0.85295,-0.0130517,0.88647
418.899,132.421,-0.85202,-0.008241004,0.88604
419.699,132.685,-0.8514,-0.004358977,0.8856
420.499,132.949,-0.85271,-0.00724203,0.88516
421.299,133.214,-0.85271,-0.005056447,0.88472
422.099,133.478,-0.85268,-0.004041535,0.88428
422.899,133.743,-0.85464,-0.00345703,0.88384
423.699,134.006,-0.8534,-0.00122545,0.8834
424.499,134.2691,-0.85246,0.001033805,0.88296
425.299,134.5319,-0.85335,0.0002719361,0.88252
426.099,134.795,-0.85337,0.005290549,0.88208
426.899,135.058,-0.85337,0.002258787,0.88163
427.699,135.321,-0.85323,0.004630875,0.88119
428.499,135.585,-0.85205,0.00290249,0.88074
429.299,135.85,-0.85336,0.00539255,0.8803
430.099,136.115,-0.85333,0.003750259,0.87985
430.899,136.381,-0.85468,0.003148158,0.8794
431.699,136.647,-0.85335,0.003826962,0.87895
432.499,136.912,-0.85338,0.006613375,0.8785
433.299,137.178,-0.85436,0.00636149,0.87806
434.099,137.4427,-0.85337,0.008427159,0.8776
434.899,137.706,-0.85339,0.00916794,0.87715
435.699,137.97,-0.85339,0.009650458,0.8767
436.499,138.234,-0.85435,0.01213323,0.87625
437.299,138.498,-0.85412,0.008649629,0.8758
438.099,138.762,-0.85304,0.008876976,0.87534
438.899,139.025,-0.85305,0.009155596,0.87489
439.699,139.29,-0.85251,0.00968079,0.87443
440.499,139.554,-0.85337,0.007652044,0.87397
441.299,139.819,-0.85337,0.007271756,0.87352
442.099,140.084,-0.85369,0.01149451,0.87306
442.899,140.349,-0.85369,0.01115238,0.8726
443.699,140.614,-0.85379,0.01084568,0.87214
444.499,140.879,-0.85248,0.0104149,0.87168
445.299,141.1447,-0.85507,0.01023366,0.87122
446.099,141.411,-0.85369,0.01249705,0.87076
446.899,141.678,-0.85362,0.01106915,0.87029
447.699,141.944,-0.85563,0.01166129,0.86983
448.499,142.209,-0.85436,0.009622196,0.86937
449.299,142.475,-0.85533,0.009776553,0.8689
450.099,142.741,-0.85403,0.01078012,0.86844
450.899,143.006,-0.85467,0.01282078,0.86797
451.699,143.271,-0.85405,0.01289188,0.8675
452.499,143.534,-0.85534,0.01111244,0.86703
453.299,143.797,-0.8548,0.01466403,0.86656
454.099,144.061,-0.85633,0.01275911,0.86609
454.899,144.326,-0.85407,0.01238817,0.86562
455.699,144.592,-0.85535,0.01104643,0.86515
456.499,144.858,-0.85489,0.01374871,0.86468
457.299,145.122,-0.85633,0.00913417,0.86421
458.099,145.387,-0.85699,0.01253379,0.86373
458.899,145.651,-0.85698,0.01168417,0.86326
459.699,145.915,-0.85832,0.01184015,0.86278
460.499,146.179,-0.85613,0.01205175,0.86231
461.299,146.444,-0.85699,0.01201193,0.86183
462.099,146.712,-0.85831,0.01000904,0.86135
462.899,146.98,-0.85699,0.0117336,0.86088
463.699,147.248,-0.85905,0.01023094,0.8604
464.499,147.5149,-0.85863,0.01061809,0.85992
465.299,147.782,-0.85862,0.01263906,0.85944
466.099,148.047,-0.8573,0.01318823,0.85895
466.899,148.312,-0.85863,0.01287837,0.85847
467.699,148.575,-0.85963,0.009545326,0.85799
468.499,148.8401,-0.85863,0.009900181,0.8575
469.299,149.105,-0.85996,0.009384386,0.85702
470.099,149.369,-0.85962,0.01025178,0.85653
470.899,149.6331,-0.85896,0.01041519,0.85605
471.699,149.897,-0.8592,0.00988687,0.85556
472.499,150.161,-0.86021,0.009421052,0.85507
473.299,150.4264,-0.85929,0.009722361,0.85458
474.099,150.693,-0.85929,0.01041317,0.85409
474.899,150.96,-0.85929,0.009503685,0.8536
475.699,151.227,-0.86084,0.00842717,0.85311
476.499,151.494,-0.85984,0.01156398,0.85262
477.299,151.76,-0.86082,0.01043365,0.85213
478.099,152.026,-0.86017,0.01027384,0.85163
478.899,152.292,-0.86135,0.01210478,0.85114
479.699,152.558,-0.86082,0.008756181,0.85064
480.499,152.823,-0.86313,0.0108155,0.85014
481.299,153.088,-0.86181,0.00992799,0.84965
482.099,153.352,-0.86181,0.009695353,0.84915
482.899,153.615,-0.85983,0.01312884,0.84865
483.699,153.878,-0.86102,0.01273121,0.84815
484.499,154.143,-0.86246,0.007702953,0.84765
485.299,154.41,-0.86214,0.008828478,0.84715
486.099,154.676,-0.862,0.008069886,0.84665
486.899,154.943,-0.86213,0.009490316,0.84614
487.699,155.21,-0.86358,0.008022807,0.84564
488.499,155.475,-0.86278,0.007979459,0.84514
489.299,155.741,-0.8628,0.008660292,0.84463
490.099,156.006,-0.86346,0.006425645,0.84412
490.899,156.272,-0.86309,0.0053517,0.84362
491.699,156.538,-0.86416,0.00906444,0.84311
492.499,156.806,-0.86149,0.01060917,0.8426
493.299,157.074,-0.86373,0.0074795,0.84209
494.099,157.34,-0.8628,0.009157263,0.84158
494.899,157.607,-0.8628,0.01022547,0.84107
495.699,157.871,-0.8628,0.007583754,0.84056
496.499,158.136,-0.86247,0.0110708,0.84004
497.299,158.4006,-0.86245,0.00933849,0.83953
498.099,158.666,-0.86379,0.008848845,0.83902
498.899,158.931,-0.86387,0.008378478,0.8385
499.699,159.198,-0.86383,0.008946434,0.83798
500.499,159.4652,-0.86444,0.01013156,0.83747
501.299,159.732,-0.86374,0.008992597,0.83695
502.099,159.999,-0.86525,0.007228196,0.83643
502.899,160.265,-0.86521,0.008869841,0.83591
503.699,160.531,-0.86448,0.008951456,0.83539
504.499,160.798,-0.8651,0.01054364,0.83487
505.299,161.065,-0.86557,0.01238122,0.83434
506.099,161.333,-0.8642,0.008025245,0.83382
506.899,161.6007,-0.86521,0.009041399,0.8333
507.699,161.867,-0.86389,0.00660482,0.83277
508.499,162.133,-0.86489,0.006763262,0.83225
509.299,162.397,-0.8639,0.009302389,0.83172
510.099,162.661,-0.86618,0.00612764,0.83119
510.899,162.924,-0.86478,0.007936599,0.83066
511.699,163.19,-0.86511,0.00733737,0.83014
512.499,163.456,-0.86445,0.005705364,0.82961
513.299,163.722,-0.86447,0.005110187,0.82908
514.099,163.989,-0.86642,0.00461179,0.82854
514.899,164.257,-0.86446,0.005496396,0.82801
515.699,164.5247,-0.86635,0.0038202,0.82748
516.499,164.792,-0.86543,0.001230112,0.82694
517.299,165.059,-0.86643,0.00281443,0.82641
518.099,165.325,-0.86609,0.002179389,0.82587
518.899,165.591,-0.86675,-0.001295341,0.82534
519.699,165.856,-0.86547,-0.0002152282,0.8248
520.499,166.121,-0.86675,0.0009305064,0.82426
521.299,166.386,-0.86676,0.0005418088,0.82372
522.099,166.653,-0.86577,0.003201955,0.82318
522.899,166.921,-0.86642,-0.00030024,0.82264
523.699,167.19,-0.86642,-0.001577268,0.8221
524.499,167.458,-0.86609,-7.740996e-05,0.82155
525.299,167.726,-0.86738,-0.0004271746,0.82101
526.099,167.993,-0.86609,0.0009707142,0.82047
526.899,168.259,-0.86675,-0.001571247,0.81992
527.699,168.525,-0.86838,-0.0005449672,0.81937
528.499,168.7898,-0.86536,0.0005992062,0.81883
529.299,169.055,-0.86544,0.0006441105,0.81828
530.099,169.32,-0.86675,0.0002888974,0.81773
530.899,169.585,-0.86674,-9.720305e-05,0.81718
531.699,169.851,-0.86807,-1.388115e-05,0.81663
532.499,170.119,-0.86807,-0.0003097412,0.81608
533.299,170.3868,-0.86772,-0.0006436619,0.81553
534.099,170.656,-0.86802,-0.00152398,0.81497
534.899,170.925,-0.86784,-0.0009443525,0.81442
535.699,171.194,-0.86949,-0.0009698549,0.81386
536.499,171.462,-0.86849,0.001706993,0.81331
537.299,171.73,-0.86883,-0.0009128622,0.81275
538.099,171.9973,-0.87046,0.0005110161,0.81219
538.899,172.2632,-0.8698,-0.0008548089,0.81164
539.699,172.529,-0.871,0.00288386,0.81108
540.499,172.795,-0.87021,0.002388632,0.81052
541.299,173.061,-0.86949,0.000542717,0.80996
542.099,173.328,-0.87048,0.003435058,0.80939
542.899,173.596,-0.87117,0.002527569,0.80883
543.699,173.865,-0.87114,-0.001579736,0.80827
544.499,174.133,-0.87147,0.003480045,0.8077
545.299,174.401,-0.87243,0.00349603,0.80714
546.099,174.669,-0.87179,0.00373664,0.80657
546.899,174.939,-0.87245,0.005040275,0.806
547.699,175.208,-0.87305,0.005014846,0.80544
548.499,175.477,-0.87282,0.004155952,0.80487
549.299,175.744,-0.87278,0.00602259,0.8043
550.099,176.0113,-0.87397,0.00350429,0.80373
550.899,176.278,-0.87509,-0.0006045243,0.80316
551.699,176.542,-0.87569,0.004080994,0.80258
552.499,176.807,-0.87507,0.002491358,0.80201
553.299,177.073,-0.87508,-0.0008208817,0.80144
554.099,177.341,-0.87508,-0.001038082,0.80086
554.899,177.608,-0.87534,-0.001227185,0.80029
555.699,177.876,-0.8764,-0.00137155,0.79971
556.499,178.144,-0.8764,-0.0002985698,0.79913
557.299,178.412,-0.87639,0.000269377,0.79855
558.099,178.681,-0.87772,0.00207858,0.79798
558.899,178.951,-0.87871,0.003077098,0.7974
559.699,179.22,-0.87804,0.001805961,0.79681
560.499,179.488,-0.87804,0.00280907,0.79623
561.299,179.755,-0.87831,0.002985,0.79565
562.099,180.021,-0.87851,-9.60057e-05,0.79507
562.899,180.288,-0.88035,0.0012776,0.79448
563.699,180.556,-0.88035,0.00081067,0.7939
564.499,180.823,-0.88135,-6.348089e-05,0.79331
565.299,181.09,-0.88134,0.003348382,0.79272
566.099,181.357,-0.88164,0.002422773,0.79214
566.899,181.625,-0.88172,0.003932156,0.79155
567.699,181.892,-0.88265,0.003067357,0.79096
568.499,182.159,-0.88264,0.00561942,0.79037
569.299,182.4257,-0.88267,0.004446171,0.78978
570.099,182.693,-0.88397,0.00538535,0.78918
570.899,182.962,-0.88438,0.006061295,0.78859
571.699,183.23,-0.8833,0.008520856,0.788
572.499,183.498,-0.88429,0.005990464,0.7874
573.299,183.765,-0.88693,0.009466541,0.78681
574.099,184.034,-0.88693,0.006128132,0.78621
574.899,184.303,-0.88693,0.007520132,0.78561
575.699,184.573,-0.88627,0.01111088,0.78502
576.499,184.842,-0.88759,0.009258737,0.78442
577.299,185.113,-0.88857,0.01190237,0.78382
578.099,185.3828,-0.88727,0.01121115,0.78322
578.899,185.651,-0.88989,0.0156004,0.78261
579.699,185.919,-0.88869,0.0175111,0.78201
580.499,186.185,-0.89055,0.01720464,0.78141
581.299,186.453,-0.88921,0.01943757,0.7808
582.099,186.72,-0.89184,0.018591,0.7802
582.899,186.988,-0.89187,0.01963536,0.77959
583.699,187.256,-0.89329,0.02034384,0.77899
584.499,187.5238,-0.89327,0.02281088,0.77838
585.299,187.793,-0.89623,0.02710636,0.77777
586.099,188.062,-0.89505,0.02476729,0.77716
586.899,188.331,-0.89724,0.03083019,0.77655
587.699,188.599,-0.8967,0.02719951,0.77594
588.499,188.867,-0.89833,0.03168973,0.77533
589.299,189.135,-0.89834,0.02922076,0.77472
590.099,189.403,-0.90073,0.03033429,0.7741
590.899,189.672,-0.89988,0.03542282,0.77349
591.699,189.94,-0.9021,0.03364712,0.77287
592.499,190.21,-0.90409,0.03613609,0.77226
593.299,190.48,-0.90361,0.03698253,0.77164
594.099,190.75,-0.90492,0.03565856,0.77102
594.899,191.018,-0.90625,0.03791437,0.7704
595.699,191.286,-0.90755,0.03982144,0.76978
596.499,191.553,-0.90887,0.03974076,0.76916
597.299,191.82,-0.90821,0.04178623,0.76854
598.099,192.0884,-0.90953,0.03867069,0.76792
598.899,192.358,-0.91084,0.03759397,0.7673
599.699,192.627,-0.91426,0.03958996,0.76667
600.499,192.894,-0.91405,0.03540002,0.76605
601.299,193.162,-0.9138,0.03651468,0.76542
602.099,193.431,-0.91545,0.03923632,0.7648
602.899,193.7003,-0.91579,0.04195216,0.76417
603.699,193.97,-0.91695,0.04177056,0.76354
604.499,194.239,-0.9194,0.03905029,0.76291
605.299,194.508,-0.9208,0.04038427,0.76228
606.099,194.777,-0.92137,0.03646756,0.76165
606.899,195.046,-0.92202,0.03903205,0.76102
607.699,195.314,-0.9236,0.03745881,0.76039
608.499,195.582,-0.92433,0.04001483,0.75976
609.299,195.851,-0.92499,0.03671461,0.75912
610.099,196.119,-0.92644,0.03550663,0.75849
610.899,196.387,-0.92764,0.03653797,0.75785
611.699,196.654,-0.92865,0.03722968,0.75721
612.499,196.921,-0.92924,0.03474363,0.75658
613.299,197.189,-0.93059,0.03617919,0.75594
614.099,197.457,-0.93062,0.03651841,0.7553
614.899,197.725,-0.93059,0.0354422,0.75466
615.699,197.994,-0.93322,0.03437688,0.75402
616.499,198.264,-0.93322,0.03221887,0.75338
617.299,198.5335,-0.93584,0.03324645,0.75274
618.099,198.804,-0.93588,0.03355322,0.75209
618.899,199.075,-0.93518,0.03525932,0.75145
619.699,199.344,-0.93716,0.03017702,0.7508
620.499,199.613,-0.93731,0.02971915,0.75016
621.299,199.88,-0.93848,0.0321796,0.74951
622.099,200.147,-0.9398,0.03379089,0.74887
622.899,200.416,-0.94013,0.02994083,0.74822
623.699,200.686,-0.94112,0.03327838,0.74757
624.499,200.955,-0.94116,0.02988442,0.74692
625.299,201.224,-0.94408,0.02994892,0.74627
626.099,201.492,-0.94283,0.03123598,0.74562
626.899,201.76,-0.94294,0.02725066,0.74497
627.699,202.029,-0.94263,0.02897351,0.74431
628.499,202.3,-0.9444,0.02858148,0.74366
629.299,202.5709,-0.94441,0.02683268,0.743
630.099,202.84,-0.94441,0.02823807,0.74235
630.899,203.108,-0.94702,0.02562337,0.74169
631.699,203.374,-0.94682,0.02767372,0.74104
632.499,203.641,-0.94705,0.0222409,0.74038
633.299,203.909,-0.94837,0.02738224,0.73972
634.099,204.18,-0.94838,0.02204302,0.73906
634.899,204.451,-0.95033,0.02346011,0.7384
635.699,204.722,-0.94964,0.02299275,0.73774
636.499,204.994,-0.95011,0.01724422,0.73708
637.299,205.264,-0.95164,0.01529492,0.73641
638.099,205.534,-0.95099,0.01387527,0.73575
638.899,205.803,-0.95056,0.01872531,0.73509
639.699,206.072,-0.95199,0.01174299,0.73442
640.499,206.341,-0.95149,0.00745605,0.73375
641.299,206.61,-0.9533,0.007313081,0.73309
642.099,206.88,-0.95414,0.001302633,0.73242
642.899,207.149,-0.95197,-6.382219e-06,0.73175
643.699,207.4208,-0.95263,0.0001568473,0.73108
644.499,207.693,-0.95263,-0.004593011,0.73041
645.299,207.964,-0.95296,-0.007826426,0.72974
646.099,208.234,-0.95427,-0.005448644,0.72907
646.899,208.502,-0.95319,-0.004944344,0.7284
647.699,208.769,-0.95264,-0.005095589,0.72773
648.499,209.036,-0.95278,-0.004291201,0.72705
649.299,209.304,-0.95347,-0.00794482,0.72638
650.099,209.573,-0.95395,-0.01005267,0.7257
650.899,209.842,-0.95265,-0.00721533,0.72503
651.699,210.11,-0.95166,-0.009460956,0.72435
652.499,210.38,-0.95377,-0.01052494,0.72367
653.299,210.649,-0.95397,-0.00663396,0.72299
654.099,210.919,-0.9509,-0.007896465,0.72231
654.899,211.19,-0.95362,-0.0078959,0.72163
655.699,211.46,-0.95231,-0.0060437,0.72095
656.499,211.729,-0.95231,-0.01113918,0.72027
657.299,212,-0.95263,-0.00762718,0.71959
658.099,212.271,-0.95263,-0.009562171,0.7189
658.899,212.542,-0.95296,-0.01111883,0.71822
659.699,212.812,-0.95245,-0.01165712,0.71754
660.499,213.082,-0.95362,-0.008187863,0.71685
661.299,213.351,-0.95362,-0.00816472,0.71616
662.099,213.621,-0.95363,-0.006168535,0.71548
662.899,213.889,-0.95263,-0.005879517,0.71479
663.699,214.159,-0.95263,-0.007108644,0.7141
664.499,214.43,-0.95231,-0.007255256,0.71341
665.299,214.702,-0.95135,-0.00561264,0.71272
666.099,214.973,-0.95198,-0.009285164,0.71203
666.899,215.243,-0.95165,-0.0101498,0.71134
667.699,215.513,-0.95166,-0.01224608,0.71065
668.499,215.7819,-0.951,-0.0071361,0.70995
669.299,216.052,-0.9523,-0.009505504,0.70926
670.099,216.3213,-0.95033,-0.009806874,0.70856
670.899,216.591,-0.94967,-0.01037373,0.70787
671.699,216.86,-0.95165,-0.008037938,0.70717
672.499,217.127,-0.95265,-0.00929062,0.70648
673.299,217.393,-0.94999,-0.004179701,0.70578
674.099,217.661,-0.94992,-0.008749163,0.70508
674.899,217.931,-0.95001,-0.005817315,0.70438
675.699,218.202,-0.95,-0.005277383,0.70368
676.499,218.474,-0.95073,-0.007675594,0.70298
677.299,218.748,-0.95066,-0.008543617,0.70228
678.099,219.021,-0.95066,-0.006261621,0.70158
678.899,219.294,-0.95012,-0.00871677,0.70087
679.699,219.5645,-0.95003,-0.01231149,0.70017
680.499,219.833,-0.94967,-0.007580464,0.69947
681.299,220.101,-0.94967,-0.00772704,0.69876
682.099,220.369,-0.94868,-0.01121423,0.69806
682.899,220.637,-0.95,-0.01067422,0.69735
683.699,220.907,-0.94724,-0.00959668,0.69664
684.499,221.177,-0.94835,-0.00635006,0.69593
685.299,221.448,-0.95,-0.00727152,0.69523
686.099,221.72,-0.94935,-0.009701354,0.69452
686.899,221.991,-0.94902,-0.01168076,0.69381
687.699,222.261,-0.94858,-0.01215663,0.6931
688.499,222.529,-0.95098,-0.01436777,0.69238
689.299,222.798,-0.94868,-0.01545772,0.69167
690.099,223.067,-0.94868,-0.0151099,0.69096
690.899,223.337,-0.94917,-0.0150596,0.69025
691.699,223.607,-0.94967,-0.01008883,0.68953
692.499,223.88,-0.94869,-0.01208845,0.68882
693.299,224.1508,-0.94866,-0.01508099,0.6881
694.099,224.421,-0.94869,-0.01447171,0.68738
694.899,224.692,-0.94885,-0.01610842,0.68667
695.699,224.964,-0.94737,-0.01536067,0.68595
696.499,225.234,-0.9477,-0.01567055,0.68523
697.299,225.504,-0.94737,-0.0158328,0.68451
698.099,225.774,-0.9477,-0.01318967,0.68379
698.899,226.043,-0.94737,-0.01479748,0.68307
699.699,226.311,-0.94901,-0.01704064,0.68235
700.499,226.58,-0.94835,-0.01642177,0.68163
701.299,226.851,-0.94835,-0.0166214,0.68091
702.099,227.122,-0.94871,-0.0178032,0.68018
702.899,227.3912,-0.94868,-0.01947069,0.67946
703.699,227.66,-0.94828,-0.01912422,0.67873
704.499,227.93,-0.94737,-0.01579593,0.67801
705.299,228.1999,-0.94802,-0.0162554,0.67728
706.099,228.4696,-0.94805,-0.02036378,0.67656
706.899,228.74,-0.94766,-0.02126818,0.67583
707.699,229.012,-0.94769,-0.01858167,0.6751
708.499,229.284,-0.94671,-0.02160876,0.67437
709.299,229.5545,-0.94621,-0.02242805,0.67364
710.099,229.824,-0.94676,-0.02414982,0.67291
710.899,230.095,-0.94802,-0.02610368,0.67218
711.699,230.367,-0.9467,-0.02424659,0.67145
712.499,230.64,-0.94802,-0.02281416,0.67072
713.299,230.911,-0.94671,-0.0257121,0.66998
714.099,231.181,-0.9467,-0.0257883,0.66925
714.899,231.448,-0.9477,-0.02556092,0.66852
715.699,231.716,-0.9477,-0.02145292,0.66778
716.499,231.984,-0.94737,-0.02325876,0.66705
717.299,232.256,-0.94671,-0.02497752,0.66631
718.099,232.528,-0.94539,-0.0264211,0.66557
718.899,232.8,-0.94803,-0.02457713,0.66484
719.699,233.073,-0.94671,-0.02461655,0.6641
720.499,233.347,-0.94802,-0.02497949,0.66336
721.299,233.619,-0.94676,-0.02510375,0.66262
722.099,233.89,-0.94704,-0.0265897,0.66188
722.899,234.159,-0.94736,-0.02541465,0.66114
723.699,234.428,-0.94608,-0.02738735,0.6604
724.499,234.699,-0.94704,-0.02879891,0.65966
725.299,234.97,-0.94638,-0.03015238,0.65892
726.099,235.24,-0.94638,-0.02669567,0.65817
726.899,235.5094,-0.94641,-0.02539734,0.65743
727.699,235.777,-0.94703,-0.02670235,0.65669
728.499,236.046,-0.9477,-0.02393127,0.65594
729.299,236.315,-0.94704,-0.02536879,0.6552
730.099,236.585,-0.9477,-0.02392203,0.65445
730.899,236.856,-0.94704,-0.0198629,0.6537
731.699,237.129,-0.94704,-0.02259187,0.65296
732.499,237.403,-0.94766,-0.02114217,0.65221
733.299,237.675,-0.94812,-0.02349091,0.65146
734.099,237.947,-0.94704,-0.02482162,0.65071
734.899,238.216,-0.94704,-0.02273874,0.64996
735.699,238.486,-0.94574,-0.02589056,0.64921
736.499,238.755,-0.94638,-0.02203711,0.64846
737.299,239.025,-0.94676,-0.02261802,0.64771
738.099,239.294,-0.94638,-0.01974399,0.64696
738.899,239.565,-0.9455,-0.02478734,0.6462
739.699,239.837,-0.94641,-0.02000535,0.64545
740.499,240.1107,-0.94638,-0.02263353,0.6447
741.299,240.383,-0.94506,-0.02357979,0.64394
742.099,240.656,-0.94506,-0.02471238,0.64319
742.899,240.928,-0.94696,-0.02173224,0.64243
743.699,241.2,-0.94506,-0.02129438,0.64168
744.499,241.47,-0.94511,-0.02101873,0.64092
745.299,241.737,-0.9453,-0.01919415,0.64016
746.099,242.003,-0.94506,-0.01726497,0.6394
746.899,242.27,-0.94375,-0.01993292,0.63865
747.699,242.539,-0.94427,-0.01650674,0.63789
748.499,242.808,-0.94308,-0.01704608,0.63713
749.299,243.078,-0.94409,-0.01895286,0.63637
750.099,243.348,-0.94375,-0.01697378,0.63561
750.899,243.621,-0.94363,-0.01636729,0.63484
751.699,243.894,-0.94507,-0.01515914,0.63408
752.499,244.167,-0.94375,-0.01772024,0.63332
753.299,244.4399,-0.94441,-0.01350707,0.63256
754.099,244.712,-0.94505,-0.01756091,0.63179
754.899,244.983,-0.94374,-0.01801656,0.63103
755.699,245.255,-0.94438,-0.01857892,0.63027
756.499,245.526,-0.9444,-0.0172322,0.6295
757.299,245.797,-0.94309,-0.01269348,0.62874
758.099,246.067,-0.94441,-0.01211704,0.62797
758.899,246.336,-0.94441,-0.01166758,0.6272
759.699,246.607,-0.94336,-0.01440766,0.62644
760.499,246.877,-0.94243,-0.009909973,0.62567
761.299,247.148,-0.94342,-0.01331641,0.6249
762.099,247.419,-0.94309,-0.01282973,0.62413
762.899,247.688,-0.94309,-0.01247686,0.62336
763.699,247.958,-0.94309,-0.01535903,0.62259
764.499,248.229,-0.94309,-0.01405904,0.62182
765.299,248.4999,-0.94441,-0.0140529,0.62105
766.099,248.769,-0.94342,-0.01360239,0.62028
766.899,249.039,-0.94309,-0.01154765,0.61951
767.699,249.31,-0.94343,-0.01288349,0.61873
768.499,249.58,-0.94342,-0.01442193,0.61796
769.299,249.8513,-0.94243,-0.01329968,0.61719
770.099,250.122,-0.94375,-0.0125042,0.61641
770.899,250.394,-0.94375,-0.01265465,0.61564
771.699,250.667,-0.94506,-0.01083065,0.61487
772.499,250.94,-0.94355,-0.01139686,0.61409
773.299,251.2104,-0.9432,-0.010544,0.61331
774.099,251.481,-0.94353,-0.004881682,0.61254
774.899,251.752,-0.94484,-0.00351126,0.61176
775.699,252.0238,-0.94386,-0.00624084,0.61098
776.499,252.296,-0.94386,-0.005946599,0.61021
777.299,252.566,-0.94386,-0.0009543266,0.60943
778.099,252.835,-0.94254,-0.004789658,0.60865
778.899,253.103,-0.9432,-0.005556714,0.60787
779.699,253.373,-0.94287,-0.00558351,0.60709
780.499,253.643,-0.94391,-0.00863162,0.60631
781.299,253.914,-0.94287,-0.003731869,0.60553
782.099,254.185,-0.94418,-0.00379286,0.60475
782.899,254.457,-0.94353,-0.002851833,0.60397
783.699,254.729,-0.94352,-0.008013906,0.60319
784.499,255.0009,-0.94256,-0.01008738,0.6024
785.299,255.272,-0.94291,-0.008754652,0.60162
786.099,255.543,-0.94352,-0.006197323,0.60084
786.899,255.814,-0.94287,-0.008284298,0.60005
787.699,256.083,-0.94386,-0.002226745,0.59927
788.499,256.353,-0.9432,-0.00814116,0.59848
789.299,256.623,-0.94415,-0.01091594,0.5977
790.099,256.895,-0.94217,-0.01217114,0.59691
790.899,257.166,-0.94353,-0.01148687,0.59613
791.699,257.437,-0.943,-0.009995479,0.59534
792.499,257.708,-0.94289,-0.0111604,0.59456
793.299,257.978,-0.94389,-0.01177476,0.59377
794.099,258.25,-0.94418,-0.004799925,0.59298
794.899,258.521,-0.94499,-0.01031125,0.59219
795.699,258.792,-0.94557,-0.01102041,0.5914
796.499,259.063,-0.94419,-0.00680507,0.59062
797.299,259.335,-0.94419,-0.01141858,0.58983
798.099,259.606,-0.94453,-0.009395042,0.58904
798.899,259.877,-0.94354,-0.007103499,0.58825
799.699,260.147,-0.94484,-0.01051599,0.58746
800.499,260.4174,-0.94386,-0.009568936,0.58666
801.299,260.688,-0.94259,-0.006636234,0.58587
802.099,260.958,-0.94254,-0.009435222,0.58508
802.899,261.229,-0.94371,-0.00579431,0.58429
803.699,261.501,-0.94287,-0.006093134,0.5835
804.499,261.775,-0.94385,-0.00726273,0.5827
805.299,262.047,-0.94385,-0.004052562,0.58191
806.099,262.319,-0.94256,-0.00304298,0.58112
806.899,262.591,-0.94396,-0.002187545,0.58032
807.699,262.862,-0.94336,-0.001351934,0.57953
808.499,263.132,-0.94353,-0.0006756234,0.57873
809.299,263.402,-0.94351,0.001157181,0.57794
810.099,263.673,-0.94401,-8.21682e-06,0.57714
810.899,263.943,-0.94353,-0.000892908,0.57635
811.699,264.214,-0.94221,-0.005137259,0.57555
812.499,264.486,-0.94419,-0.007257375,0.57476
813.299,264.7571,-0.94427,-0.0009992752,0.57396
814.099,265.0274,-0.9455,-0.005767441,0.57316
814.899,265.298,-0.94437,-0.00220087,0.57236
815.699,265.569,-0.94291,-0.004942758,0.57157
816.499,265.842,-0.94418,-0.003063029,0.57077
817.299,266.1158,-0.9432,-0.00421677,0.56997
818.099,266.389,-0.94592,-0.00423907,0.56917
818.899,266.66,-0.9458,-0.001606209,0.56837
819.699,266.931,-0.94485,-0.004002462,0.56757
820.499,267.204,-0.94452,-0.00536455,0.56677
821.299,267.476,-0.94419,-0.003778517,0.56597
822.099,267.7464,-0.94353,-0.003390722,0.56517
822.899,268.0164,-0.94221,0.003039985,0.56437
823.699,268.287,-0.94353,-0.0016315,0.56357
824.499,268.5564,-0.94274,-0.000848626,0.56277
825.299,268.826,-0.944,-0.00152293,0.56196
826.099,269.095,-0.94451,-0.005285688,0.56116
826.899,269.366,-0.9432,-0.002221398,0.56036
827.699,269.638,-0.94419,-0.004597658,0.55956
828.499,269.911,-0.94483,-0.001096564,0.55875
829.299,270.183,-0.94584,-0.00543099,0.55795
830.099,270.454,-0.94484,-0.003335322,0.55714
830.899,270.725,-0.94518,-0.006984521,0.55634
831.699,270.994,-0.94518,-0.00522562,0.55554
832.499,271.265,-0.94518,0.00464921,0.55473
833.299,271.535,-0.94454,0.00152736,0.55393
834.099,271.807,-0.94449,0.006110485,0.55312
834.899,272.08,-0.94487,0.0006226179,0.55232
835.699,272.354,-0.9438,0.001606558,0.55151
836.499,272.6256,-0.94274,0.0002296702,0.5507
837.299,272.896,-0.94484,0.000414735,0.5499
838.099,273.168,-0.94352,0.003006651,0.54909
838.899,273.4408,-0.94351,-0.002519044,0.54828
839.699,273.714,-0.94485,0.003216164,0.54748
840.499,273.987,-0.94484,0.0007067009,0.54667
841.299,274.261,-0.94253,0.002842789,0.54586
842.099,274.534,-0.94386,0.000373462,0.54505
842.899,274.807,-0.94353,-0.0004782211,0.54425
843.699,275.078,-0.94352,0.0009877084,0.54344
844.499,275.348,-0.9439,0.004410965,0.54263
845.299,275.616,-0.94419,-0.0001603254,0.54182
846.099,275.885,-0.94553,0.003901318,0.54101
846.899,276.1556,-0.94484,0.0002835194,0.5402
847.699,276.429,-0.94494,-0.00304932,0.53939
848.499,276.701,-0.94484,-0.005857664,0.53858
849.299,276.975,-0.94453,-0.00677385,0.53777
850.099,277.249,-0.94451,-0.008628649,0.53696
850.899,277.523,-0.94351,-0.00349798,0.53615
851.699,277.7968,-0.94336,-0.00609652,0.53534
852.499,278.069,-0.94388,-0.007421228,0.53453
853.299,278.34,-0.9423,-0.00768081,0.53372
854.099,278.611,-0.9432,-0.002816767,0.53291
854.899,278.882,-0.94353,-0.003243208,0.53209
855.699,279.155,-0.94255,-0.00691417,0.53128
856.499,279.4264,-0.94221,-0.007135656,0.53047
857.299,279.697,-0.94488,-0.00630782,0.52966
858.099,279.967,-0.94385,-0.006139814,0.52885
858.899,280.238,-0.94353,-0.001681076,0.52803
859.699,280.509,-0.94354,-0.00291388,0.52722
860.499,280.779,-0.94322,-0.006024422,0.52641
861.299,281.049,-0.94254,-0.00405758,0.52559
862.099,281.319,-0.94244,-0.00203239,0.52478
862.899,281.59,-0.94419,-8.525858e-05,0.52397
863.699,281.862,-0.94414,-0.006025894,0.52315
864.499,282.134,-0.94419,-0.0009140562,0.52234
865.299,282.408,-0.94286,-0.000198879,0.52152
866.099,282.682,-0.94419,-0.0019085,0.52071
866.899,282.955,-0.943,-0.002532224,0.5199
867.699,283.229,-0.94408,-0.00556076,0.51908
868.499,283.502,-0.94432,0.000697899,0.51827
869.299,283.773,-0.9441,0.0005288346,0.51745
870.099,284.04,-0.94407,-0.00239397,0.51664
870.899,284.308,-0.94552,-0.001775088,0.51582
871.699,284.577,-0.94419,-0.002074007,0.51501
872.499,284.848,-0.94344,-0.005126276,0.51419
873.299,285.12,-0.94353,0.000190895,0.51337
874.099,285.394,-0.94353,-0.002966112,0.51256
874.899,285.667,-0.94418,-0.01120255,0.51174
875.699,285.941,-0.94419,-0.00275465,0.51093
876.499,286.214,-0.94353,-0.00362702,0.51011
877.299,286.4865,-0.94517,-0.008052064,0.50929
878.099,286.759,-0.94386,-0.002540861,0.50848
878.899,287.03,-0.94384,-0.003184643,0.50766
879.699,287.302,-0.94412,-0.00174381,0.50684
880.499,287.573,-0.94455,-0.0007988553,0.50603
881.299,287.845,-0.94418,-0.001204446,0.50521
882.099,288.118,-0.94357,0.002048811,0.50439
882.899,288.388,-0.94419,-0.00143009,0.50358
883.699,288.658,-0.94283,0.005303925,0.50276
884.499,288.927,-0.94353,0.008269444,0.50194
885.299,289.198,-0.94353,0.01134795,0.50112
886.099,289.469,-0.9432,0.006308411,0.50031
886.899,289.741,-0.94323,0.0093269,0.49949
887.699,290.015,-0.94259,0.00548639,0.49867
888.499,290.29,-0.94519,0.008032931,0.49785
889.299,290.566,-0.94331,0.00971405,0.49703
890.099,290.8397,-0.93609,0.008531008,0.49622
890.899,291.112,-0.94108,0.01105944,0.4954
891.699,291.383,-0.94857,0.007688793,0.49458
892.499,291.654,-0.94447,0.01278822,0.49376
893.299,291.925,-0.94064,0.007628925,0.49294
894.099,292.196,-0.9449,0.01344136,0.49212
894.899,292.466,-0.95425,0.01000287,0.49131
895.699,292.737,-0.94871,0.01420192,0.49049
896.499,293.009,-0.94644,0.01100485,0.48967
897.299,293.282,-0.94485,0.005506628,0.48885
897.399,293.316,-0.94485,0.007125473,0.48875