File: 01_Data/PUF_82C/MCC/PUF_82C_MCC_30K_min_220308_R2.txt
Sample ID:	C:\MCC\MCC Cal\Test\PUF_82C_MCC_30K_min_220308_R2.txt
Sample Weight (mg):	4.28
Heating Rate (C/s):	0.5
Combustor Temp (C):	900
N2 Flow Rate (cc/min):	80
O2 Flow Rate (cc/min):	20
Calibration File:	C:\MCC\MCC Cal\Coeff1 JN10440_30_210304.txt.txt
T Correction Coefficients:	0	1.024463	0
Time Shift (s):	14
*
Time (s)	Temperature (C)	N2 flow rate (cc/min)	O2 flow rate (cc/min)	Flow Rate (cc/min)	Oxygen (%)	HRR (W/g)	Heating rate (C/s)
0.000	107.370	80.004	19.995	103.669	19.869	0.121	0.031
1.500	107.312	80.006	19.994	103.674	19.873	-0.148	-0.038
3.000	107.330	80.006	19.994	103.675	19.869	0.162	0.046
4.500	107.344	80.005	19.994	103.678	19.866	0.368	0.049
6.000	107.334	80.005	19.994	103.685	19.860	0.816	-0.007
7.500	107.306	80.006	19.995	103.703	19.860	0.793	-0.002
9.000	107.335	80.007	19.993	103.712	19.860	0.808	0.003
10.500	107.391	80.007	19.993	103.713	19.856	1.125	0.023
12.000	107.375	80.007	19.994	103.719	19.854	1.253	-0.014
13.501	107.403	80.007	19.993	103.735	19.853	1.327	0.015
15.001	107.464	80.006	19.994	103.764	19.850	1.621	0.044
16.500	107.494	80.006	19.994	103.778	19.845	1.950	0.044
18.000	107.588	80.008	19.994	103.777	19.842	2.224	0.052
19.500	107.650	80.006	19.993	103.826	19.837	2.541	0.051
21.000	107.759	80.006	19.994	103.852	19.835	2.749	0.066
22.500	107.873	80.007	19.995	103.860	19.833	2.907	0.094
24.000	108.002	80.007	19.993	103.870	19.832	2.971	0.093
25.500	108.183	80.007	19.994	103.870	19.832	2.978	0.101
27.000	108.381	80.006	19.994	103.867	19.831	3.013	0.126
28.500	108.593	80.006	19.994	103.867	19.827	3.354	0.145
30.000	108.800	80.009	19.993	103.866	19.831	3.033	0.124
31.500	109.038	80.007	19.994	103.867	19.827	3.295	0.130
33.000	109.228	80.007	19.994	103.867	19.828	3.248	0.143
34.500	109.512	80.008	19.993	103.880	19.824	3.589	0.178
36.000	109.782	80.007	19.994	103.900	19.823	3.608	0.184
37.500	110.072	80.007	19.994	103.901	19.825	3.476	0.188
39.000	110.379	80.009	19.993	103.882	19.820	3.862	0.192
40.501	110.713	80.009	19.994	103.881	19.820	3.888	0.230
42.000	111.047	80.008	19.995	103.898	19.823	3.635	0.214
43.500	111.384	80.007	19.995	103.903	19.820	3.889	0.228
45.000	111.748	80.005	19.994	103.904	19.818	3.997	0.240
46.500	112.081	80.007	19.994	103.905	19.816	4.177	0.254
48.000	112.510	80.008	19.993	103.911	19.819	3.964	0.278
49.500	112.903	80.007	19.995	103.924	19.817	4.051	0.238
51.000	113.352	80.007	19.993	103.924	19.818	3.993	0.308
52.500	113.749	80.007	19.993	103.932	19.816	4.183	0.263
54.000	114.190	80.006	19.993	103.935	19.815	4.247	0.264
55.500	114.593	80.006	19.993	103.924	19.813	4.371	0.296
57.000	115.090	80.007	19.993	103.924	19.815	4.255	0.329
58.500	115.588	80.006	19.993	103.925	19.820	3.887	0.317
60.001	116.050	80.006	19.993	103.922	19.812	4.490	0.305
61.500	116.556	80.008	19.993	103.922	19.812	4.468	0.327
63.000	117.066	80.007	19.994	103.933	19.814	4.289	0.347
64.500	117.561	80.006	19.993	103.940	19.814	4.311	0.338
66.000	118.094	80.007	19.993	103.944	19.814	4.299	0.358
67.501	118.624	80.006	19.993	103.934	19.815	4.241	0.368
69.000	119.125	80.004	19.993	103.928	19.809	4.692	0.325
70.500	119.683	80.005	19.994	103.941	19.810	4.647	0.363
72.001	120.227	80.006	19.993	103.946	19.811	4.552	0.363
73.501	120.829	80.005	19.993	103.947	19.811	4.532	0.398
75.000	121.389	80.004	19.992	103.947	19.811	4.503	0.355
76.500	121.989	80.005	19.994	103.948	19.812	4.435	0.396
78.000	122.574	80.006	19.993	103.943	19.810	4.603	0.417
79.501	123.229	80.004	19.993	103.939	19.809	4.725	0.421
81.000	123.812	80.006	19.994	103.948	19.812	4.478	0.385
82.501	124.380	80.004	19.994	103.948	19.814	4.334	0.398
84.000	125.014	80.005	19.993	103.949	19.812	4.451	0.436
85.500	125.673	80.007	19.993	103.948	19.815	4.237	0.452
87.000	126.311	80.006	19.993	103.943	19.813	4.420	0.425
88.501	126.940	80.007	19.993	103.942	19.811	4.572	0.430
90.000	127.578	80.007	19.993	103.944	19.814	4.299	0.427
91.501	128.238	80.007	19.993	103.946	19.808	4.737	0.442
93.001	128.901	80.007	19.993	103.945	19.812	4.496	0.465
94.501	129.596	80.006	19.994	103.944	19.814	4.311	0.468
96.000	130.299	80.007	19.994	103.944	19.813	4.377	0.467
97.500	130.917	80.007	19.994	103.941	19.811	4.505	0.403
99.000	131.634	80.007	19.995	103.937	19.810	4.608	0.477
100.500	132.323	80.006	19.994	103.940	19.814	4.295	0.435
102.000	133.045	80.007	19.995	103.944	19.814	4.311	0.486
103.501	133.744	80.006	19.994	103.942	19.811	4.571	0.512
105.000	134.369	80.006	19.994	103.942	19.808	4.760	0.399
106.501	135.110	80.007	19.993	103.940	19.812	4.486	0.466
108.000	135.803	80.006	19.993	103.940	19.807	4.852	0.466
109.500	136.519	80.007	19.994	103.943	19.816	4.136	0.476
111.000	137.213	80.006	19.994	103.943	19.814	4.292	0.465
112.500	137.985	80.007	19.994	103.943	19.810	4.620	0.513
114.000	138.712	80.009	19.993	103.944	19.815	4.204	0.511
115.500	139.417	80.009	19.993	103.944	19.814	4.290	0.462
117.001	140.149	80.010	19.994	103.944	19.813	4.406	0.482
118.501	140.926	80.008	19.993	103.942	19.813	4.369	0.519
120.000	141.685	80.008	19.993	103.937	19.810	4.638	0.514
121.501	142.371	80.009	19.993	103.935	19.815	4.210	0.483
123.001	143.132	80.007	19.993	103.933	19.813	4.382	0.513
124.500	143.928	80.007	19.993	103.934	19.814	4.329	0.503
126.000	144.645	80.004	19.993	103.929	19.811	4.514	0.476
127.500	145.428	80.005	19.994	103.936	19.814	4.293	0.500
129.000	146.149	80.005	19.994	103.940	19.812	4.466	0.502
130.500	146.871	80.005	19.994	103.931	19.815	4.267	0.488
132.000	147.615	80.005	19.994	103.929	19.812	4.442	0.490
133.500	148.416	80.006	19.995	103.927	19.814	4.306	0.524
135.000	149.209	80.006	19.995	103.926	19.815	4.219	0.541
136.501	149.934	80.007	19.994	103.924	19.815	4.246	0.479
138.000	150.709	80.007	19.994	103.915	19.818	4.044	0.536
139.500	151.431	80.006	19.993	103.912	19.817	4.112	0.471
141.000	152.272	80.007	19.992	103.916	19.818	3.991	0.557
142.500	153.001	80.007	19.994	103.927	19.818	4.017	0.487
144.000	153.711	80.008	19.993	103.931	19.814	4.316	0.478
145.500	154.512	80.005	19.992	103.922	19.819	3.925	0.483
147.000	155.338	80.007	19.993	103.911	19.821	3.809	0.547
148.500	156.057	80.007	19.993	103.913	19.818	4.007	0.488
150.000	156.794	80.008	19.993	103.912	19.819	3.904	0.520
151.500	157.529	80.007	19.993	103.911	19.817	4.077	0.482
153.000	158.306	80.006	19.993	103.910	19.820	3.865	0.495
154.500	159.075	80.008	19.993	103.906	19.820	3.826	0.536
156.000	159.808	80.006	19.993	103.906	19.823	3.657	0.498
157.500	160.574	80.007	19.993	103.906	19.822	3.704	0.503
159.000	161.315	80.005	19.993	103.905	19.819	3.939	0.512
160.500	162.096	80.007	19.993	103.906	19.820	3.881	0.518
162.000	162.869	80.005	19.993	103.907	19.817	4.097	0.519
163.500	163.595	80.007	19.992	103.906	19.818	3.996	0.479
165.000	164.396	80.006	19.994	103.906	19.823	3.657	0.492
166.500	165.189	80.005	19.992	103.906	19.818	3.978	0.529
168.000	165.925	80.006	19.993	103.903	19.819	3.937	0.494
169.500	166.711	80.008	19.993	103.899	19.820	3.867	0.515
171.000	167.467	80.008	19.993	103.895	19.820	3.846	0.470
172.500	168.214	80.009	19.993	103.892	19.823	3.616	0.487
174.000	168.931	80.009	19.992	103.890	19.822	3.716	0.481
175.500	169.676	80.009	19.993	103.899	19.819	3.955	0.501
177.000	170.428	80.008	19.994	103.894	19.820	3.823	0.502
178.500	171.189	80.008	19.993	103.890	19.820	3.887	0.528
180.000	171.988	80.007	19.992	103.893	19.823	3.632	0.500
181.500	172.617	80.007	19.993	103.900	19.822	3.708	0.433
183.000	173.369	80.007	19.993	103.895	19.820	3.860	0.509
184.501	174.187	80.006	19.993	103.887	19.820	3.832	0.539
186.000	174.876	80.007	19.993	103.898	19.820	3.893	0.475
187.500	175.725	80.008	19.993	103.898	19.824	3.558	0.562
189.000	176.423	80.007	19.992	103.890	19.818	4.022	0.456
190.500	177.125	80.007	19.993	103.892	19.817	4.053	0.512
192.000	177.887	80.006	19.994	103.887	19.818	3.992	0.490
193.500	178.577	80.007	19.993	103.889	19.819	3.898	0.457
195.000	179.380	80.008	19.993	103.901	19.817	4.047	0.535
196.500	180.033	80.008	19.992	103.886	19.822	3.683	0.383
198.000	180.845	80.010	19.994	103.881	19.822	3.722	0.548
199.500	181.557	80.009	19.993	103.877	19.822	3.689	0.468
201.000	182.258	80.009	19.993	103.875	19.821	3.770	0.475
202.500	183.034	80.008	19.994	103.878	19.819	3.969	0.456
204.000	183.767	80.007	19.993	103.896	19.827	3.314	0.505
205.500	184.479	80.009	19.994	103.891	19.818	3.977	0.478
207.001	185.233	80.008	19.994	103.880	19.820	3.841	0.491
208.500	186.011	80.006	19.993	103.878	19.817	4.100	0.500
210.000	186.794	80.007	19.993	103.878	19.816	4.133	0.525
211.500	187.514	80.005	19.994	103.887	19.816	4.160	0.467
213.000	188.226	80.006	19.994	103.879	19.813	4.349	0.479
214.500	189.028	80.006	19.994	103.872	19.812	4.462	0.534
216.000	189.719	80.007	19.994	103.871	19.816	4.121	0.488
217.500	190.469	80.007	19.993	103.872	19.816	4.135	0.482
219.000	191.221	80.006	19.993	103.872	19.819	3.967	0.494
220.500	191.917	80.005	19.994	103.869	19.815	4.236	0.452
222.000	192.630	80.005	19.994	103.869	19.816	4.144	0.477
223.500	193.357	80.005	19.994	103.872	19.816	4.172	0.483
225.000	194.087	80.007	19.994	103.870	19.816	4.131	0.452
226.500	194.824	80.005	19.994	103.869	19.815	4.271	0.494
228.000	195.524	80.006	19.994	103.869	19.814	4.343	0.468
229.500	196.293	80.007	19.994	103.869	19.815	4.265	0.518
231.000	197.018	80.007	19.993	103.867	19.814	4.347	0.492
232.500	197.770	80.006	19.994	103.871	19.817	4.096	0.513
234.000	198.528	80.006	19.994	103.870	19.816	4.176	0.516
235.500	199.270	80.007	19.994	103.872	19.818	3.983	0.492
237.000	199.990	80.005	19.993	103.867	19.817	4.047	0.457
238.500	200.725	80.007	19.995	103.869	19.816	4.172	0.488
240.000	201.485	80.006	19.992	103.871	19.818	4.043	0.506
241.500	202.200	80.005	19.993	103.871	19.816	4.158	0.485
243.000	202.975	80.005	19.992	103.870	19.817	4.072	0.497
244.500	203.760	80.005	19.993	103.871	19.814	4.341	0.537
246.000	204.491	80.005	19.993	103.869	19.817	4.055	0.506
247.500	205.213	80.006	19.992	103.871	19.823	3.596	0.497
249.000	205.988	80.006	19.994	103.870	19.818	3.995	0.527
250.500	206.739	80.004	19.993	103.868	19.815	4.201	0.527
252.000	207.477	80.006	19.993	103.871	19.821	3.810	0.486
253.500	208.218	80.006	19.993	103.871	19.825	3.452	0.493
255.000	208.987	80.006	19.993	103.870	19.826	3.364	0.481
256.500	209.723	80.007	19.993	103.870	19.823	3.619	0.488
258.000	210.503	80.006	19.993	103.869	19.824	3.572	0.517
259.500	211.215	80.006	19.994	103.868	19.822	3.734	0.477
261.000	211.962	80.007	19.993	103.869	19.818	3.987	0.487
262.500	212.738	80.006	19.993	103.870	19.819	3.952	0.510
264.000	213.540	80.007	19.994	103.869	19.821	3.798	0.520
265.500	214.230	80.007	19.993	103.869	19.822	3.738	0.474
267.000	215.065	80.007	19.993	103.869	19.820	3.870	0.524
268.500	215.797	80.006	19.993	103.868	19.822	3.730	0.496
270.000	216.513	80.007	19.993	103.870	19.819	3.919	0.431
271.500	217.300	80.007	19.993	103.871	19.819	3.937	0.508
273.000	217.954	80.007	19.993	103.869	19.820	3.842	0.463
274.500	218.743	80.007	19.993	103.867	19.818	4.043	0.517
276.000	219.450	80.007	19.992	103.868	19.819	3.897	0.480
277.500	220.238	80.008	19.992	103.871	19.817	4.048	0.529
279.000	220.981	80.009	19.993	103.866	19.820	3.822	0.522
280.500	221.740	80.007	19.992	103.863	19.819	3.958	0.511
282.000	222.496	80.009	19.993	103.863	19.819	3.950	0.505
283.500	223.186	80.009	19.994	103.850	19.819	3.927	0.443
285.000	223.964	80.009	19.992	103.859	19.818	4.009	0.508
286.500	224.727	80.009	19.992	103.872	19.817	4.075	0.513
288.000	225.456	80.007	19.993	103.856	19.819	3.910	0.494
289.500	226.205	80.007	19.993	103.854	19.817	4.094	0.481
291.000	226.987	80.006	19.993	103.859	19.817	4.082	0.515
292.500	227.765	80.005	19.993	103.861	19.819	3.933	0.534
294.000	228.511	80.006	19.993	103.863	19.817	4.047	0.492
295.500	229.320	80.006	19.994	103.861	19.818	3.991	0.528
297.000	230.035	80.005	19.994	103.857	19.816	4.155	0.504
298.500	230.788	80.006	19.994	103.856	19.817	4.057	0.507
300.000	231.593	80.007	19.994	103.858	19.816	4.135	0.534
301.500	232.311	80.005	19.993	103.867	19.819	3.957	0.458
303.000	233.049	80.006	19.993	103.863	19.821	3.780	0.509
304.500	233.838	80.005	19.994	103.861	19.822	3.733	0.524
306.000	234.582	80.006	19.993	103.860	19.820	3.846	0.476
307.500	235.334	80.007	19.994	103.859	19.818	3.990	0.484
309.000	236.107	80.007	19.993	103.861	19.819	3.962	0.518
310.500	236.837	80.007	19.995	103.854	19.820	3.848	0.480
312.000	237.632	80.006	19.994	103.848	19.821	3.791	0.521
313.500	238.418	80.007	19.994	103.842	19.821	3.764	0.517
315.000	239.163	80.007	19.994	103.849	19.823	3.600	0.502
316.500	239.907	80.005	19.995	103.841	19.821	3.746	0.482
318.000	240.672	80.006	19.994	103.844	19.821	3.766	0.477
319.500	241.415	80.005	19.994	103.857	19.817	4.048	0.504
321.000	242.168	80.005	19.994	103.844	19.820	3.869	0.499
322.500	242.909	80.005	19.994	103.838	19.817	4.066	0.507
324.000	243.679	80.004	19.995	103.850	19.823	3.614	0.537
325.500	244.412	80.004	19.994	103.850	19.822	3.729	0.496
327.000	245.185	80.005	19.994	103.849	19.821	3.786	0.508
328.500	245.936	80.006	19.994	103.846	19.822	3.702	0.513
330.000	246.650	80.005	19.995	103.841	19.819	3.949	0.469
331.500	247.399	80.005	19.993	103.841	19.821	3.786	0.483
333.000	248.123	80.007	19.994	103.837	19.821	3.743	0.476
334.500	248.846	80.007	19.991	103.838	19.823	3.646	0.494
336.000	249.624	80.005	19.994	103.834	19.823	3.609	0.507
337.500	250.395	80.007	19.993	103.835	19.821	3.757	0.501
339.000	251.120	80.006	19.993	103.838	19.820	3.834	0.470
340.500	251.851	80.006	19.993	103.839	19.823	3.636	0.491
342.000	252.586	80.007	19.992	103.834	19.823	3.655	0.466
343.500	253.336	80.008	19.993	103.832	19.821	3.741	0.510
345.000	254.092	80.007	19.994	103.832	19.823	3.657	0.490
346.500	254.853	80.007	19.993	103.832	19.823	3.609	0.496
348.000	255.575	80.006	19.994	103.830	19.823	3.652	0.480
349.500	256.278	80.008	19.993	103.831	19.825	3.513	0.453
351.000	256.976	80.007	19.993	103.840	19.824	3.574	0.470
352.500	257.735	80.007	19.994	103.838	19.825	3.508	0.500
354.000	258.493	80.007	19.994	103.836	19.826	3.432	0.515
355.500	259.229	80.008	19.993	103.840	19.821	3.757	0.489
357.000	259.954	80.007	19.994	103.831	19.824	3.548	0.482
358.500	260.700	80.008	19.993	103.830	19.826	3.383	0.497
360.000	261.446	80.009	19.992	103.831	19.822	3.704	0.491
361.500	262.204	80.008	19.992	103.833	19.821	3.809	0.518
363.000	262.906	80.009	19.992	103.831	19.820	3.858	0.486
364.500	263.654	80.010	19.992	103.829	19.823	3.603	0.473
366.000	264.396	80.010	19.993	103.833	19.822	3.710	0.508
367.500	265.124	80.009	19.992	103.833	19.823	3.624	0.480
369.000	265.821	80.008	19.992	103.837	19.822	3.673	0.474
370.500	266.631	80.009	19.995	103.836	19.823	3.624	0.533
372.000	267.346	80.007	19.992	103.838	19.824	3.571	0.491
373.500	268.077	80.007	19.992	103.835	19.823	3.641	0.484
375.000	268.796	80.006	19.992	103.835	19.822	3.703	0.500
376.500	269.546	80.007	19.994	103.835	19.822	3.674	0.497
378.000	270.291	80.005	19.993	103.846	19.820	3.881	0.495
379.500	271.045	80.007	19.992	103.845	19.823	3.618	0.505
381.000	271.807	80.004	19.994	103.831	19.825	3.502	0.508
382.500	272.599	80.005	19.994	103.835	19.824	3.552	0.539
384.000	273.350	80.005	19.995	103.851	19.824	3.552	0.505
385.500	274.098	80.005	19.994	103.861	19.824	3.541	0.494
387.000	274.815	80.006	19.994	103.853	19.822	3.708	0.494
388.501	275.570	80.007	19.993	103.836	19.824	3.568	0.476
390.000	276.358	80.005	19.994	103.832	19.825	3.490	0.516
391.500	277.100	80.005	19.995	103.832	19.826	3.404	0.485
393.000	277.827	80.005	19.994	103.829	19.825	3.488	0.495
394.501	278.624	80.005	19.993	103.830	19.825	3.490	0.545
396.000	279.379	80.006	19.994	103.831	19.823	3.605	0.510
397.500	280.145	80.006	19.994	103.834	19.825	3.502	0.481
399.000	280.894	80.007	19.994	103.833	19.827	3.325	0.514
400.501	281.624	80.005	19.994	103.830	19.823	3.638	0.488
402.000	282.398	80.005	19.994	103.831	19.824	3.556	0.512
403.500	283.145	80.005	19.994	103.831	19.824	3.564	0.500
405.000	283.910	80.005	19.994	103.833	19.821	3.811	0.497
406.500	284.665	80.005	19.993	103.831	19.823	3.601	0.497
408.000	285.401	80.004	19.993	103.831	19.822	3.667	0.489
409.501	286.164	80.004	19.995	103.830	19.822	3.714	0.481
411.000	286.936	80.005	19.994	103.830	19.825	3.498	0.505
412.500	287.709	80.005	19.995	103.829	19.824	3.564	0.503
414.000	288.418	80.006	19.996	103.829	19.824	3.566	0.483
415.500	289.205	80.006	19.995	103.827	19.823	3.632	0.522
417.000	289.965	80.006	19.996	103.826	19.821	3.763	0.498
418.500	290.728	80.007	19.994	103.827	19.822	3.698	0.492
420.000	291.435	80.005	19.994	103.827	19.823	3.619	0.466
421.500	292.226	80.007	19.994	103.827	19.824	3.543	0.531
423.000	292.996	80.006	19.994	103.827	19.825	3.443	0.532
424.500	293.729	80.006	19.993	103.826	19.823	3.595	0.501
426.000	294.488	80.006	19.992	103.826	19.827	3.329	0.512
427.500	295.297	80.008	19.993	103.825	19.828	3.212	0.537
429.000	296.028	80.006	19.993	103.825	19.825	3.486	0.503
430.500	296.798	80.007	19.992	103.826	19.827	3.350	0.505
432.000	297.528	80.007	19.993	103.827	19.824	3.589	0.496
433.500	298.319	80.007	19.994	103.828	19.826	3.416	0.550
435.000	299.066	80.007	19.993	103.828	19.828	3.284	0.502
436.500	299.847	80.007	19.993	103.827	19.824	3.543	0.517
438.000	300.614	80.007	19.993	103.826	19.826	3.362	0.502
439.500	301.372	80.007	19.993	103.826	19.826	3.364	0.493
441.001	302.127	80.008	19.993	103.827	19.826	3.420	0.514
442.500	302.882	80.008	19.993	103.827	19.826	3.373	0.515
444.001	303.646	80.009	19.994	103.826	19.831	3.029	0.500
445.500	304.387	80.009	19.994	103.828	19.829	3.165	0.494
447.000	305.155	80.009	19.993	103.827	19.831	3.039	0.529
448.500	305.932	80.008	19.992	103.827	19.829	3.188	0.511
450.000	306.664	80.009	19.992	103.828	19.827	3.342	0.508
451.500	307.426	80.009	19.992	103.827	19.829	3.181	0.551
453.000	308.220	80.008	19.994	103.826	19.827	3.336	0.517
454.500	308.943	80.007	19.993	103.827	19.827	3.344	0.498
456.000	309.671	80.007	19.993	103.824	19.828	3.247	0.507
457.500	310.484	80.006	19.993	103.823	19.830	3.124	0.563
459.000	311.256	80.006	19.994	103.829	19.829	3.155	0.540
460.500	312.000	80.006	19.993	103.831	19.831	3.019	0.509
462.000	312.793	80.006	19.993	103.826	19.831	3.005	0.504
463.500	313.493	80.005	19.994	103.823	19.827	3.335	0.461
465.000	314.282	80.006	19.993	103.829	19.828	3.218	0.519
466.500	315.049	80.006	19.993	103.825	19.829	3.177	0.501
468.000	315.787	80.006	19.993	103.822	19.826	3.372	0.495
469.501	316.544	80.005	19.992	103.823	19.826	3.401	0.521
471.000	317.340	80.006	19.992	103.829	19.828	3.220	0.536
472.500	318.100	80.007	19.994	103.829	19.828	3.216	0.528
474.000	318.822	80.007	19.993	103.823	19.831	3.031	0.472
475.500	319.572	80.007	19.994	103.826	19.829	3.171	0.513
477.000	320.353	80.007	19.994	103.828	19.826	3.377	0.503
478.500	321.067	80.006	19.993	103.822	19.828	3.241	0.497
480.000	321.818	80.006	19.994	103.816	19.828	3.222	0.498
481.500	322.580	80.006	19.995	103.816	19.827	3.360	0.496
483.000	323.295	80.007	19.994	103.815	19.829	3.189	0.476
484.500	324.068	80.006	19.994	103.822	19.825	3.451	0.500
486.001	324.842	80.006	19.994	103.825	19.824	3.587	0.494
487.500	325.571	80.007	19.994	103.825	19.824	3.525	0.475
489.000	326.328	80.005	19.994	103.824	19.827	3.311	0.513
490.500	327.064	80.006	19.994	103.816	19.826	3.381	0.477
492.000	327.823	80.005	19.995	103.819	19.825	3.457	0.529
493.500	328.575	80.005	19.995	103.825	19.827	3.352	0.500
495.000	329.344	80.006	19.995	103.818	19.828	3.271	0.502
496.501	330.082	80.006	19.994	103.823	19.824	3.530	0.482
498.001	330.848	80.006	19.994	103.826	19.828	3.241	0.500
499.500	331.574	80.008	19.995	103.824	19.825	3.504	0.475
501.000	332.322	80.008	19.994	103.827	19.827	3.319	0.510
502.500	333.111	80.007	19.995	103.816	19.828	3.265	0.533
504.000	333.872	80.007	19.995	103.814	19.826	3.370	0.479
505.500	334.642	80.007	19.995	103.815	19.826	3.399	0.510
507.000	335.424	80.008	19.996	103.806	19.824	3.580	0.495
508.500	336.153	80.008	19.995	103.816	19.824	3.560	0.474
510.000	336.893	80.007	19.997	103.815	19.829	3.148	0.487
511.500	337.648	80.006	19.995	103.808	19.830	3.072	0.493
513.000	338.393	80.005	19.994	103.807	19.820	3.826	0.491
514.500	339.103	80.006	19.994	103.808	19.823	3.617	0.475
516.000	339.871	80.005	19.994	103.812	19.822	3.687	0.496
517.500	340.620	80.006	19.994	103.815	19.826	3.420	0.476
519.000	341.350	80.006	19.994	103.816	19.825	3.469	0.467
520.500	342.150	80.006	19.993	103.821	19.826	3.395	0.495
522.000	342.853	80.008	19.994	103.802	19.825	3.444	0.481
523.500	343.570	80.008	19.993	103.801	19.823	3.642	0.499
525.000	344.388	80.007	19.993	103.810	19.827	3.303	0.531
526.500	345.141	80.009	19.994	103.811	19.823	3.603	0.488
528.000	345.824	80.007	19.993	103.821	19.824	3.572	0.478
529.500	346.598	80.007	19.993	103.816	19.823	3.591	0.516
531.000	347.322	80.008	19.992	103.818	19.824	3.543	0.495
532.500	348.123	80.009	19.992	103.819	19.825	3.442	0.526
534.000	348.861	80.008	19.992	103.816	19.823	3.626	0.499
535.500	349.630	80.007	19.994	103.821	19.824	3.539	0.529
537.000	350.401	80.007	19.993	103.822	19.822	3.675	0.533
538.500	351.135	80.005	19.993	103.825	19.825	3.504	0.487
540.000	351.946	80.007	19.993	103.826	19.824	3.539	0.540
541.500	352.716	80.006	19.993	103.827	19.825	3.504	0.506
543.000	353.487	80.007	19.993	103.818	19.822	3.699	0.523
544.500	354.267	80.006	19.993	103.822	19.822	3.730	0.510
546.000	355.021	80.006	19.993	103.827	19.820	3.864	0.523
547.500	355.821	80.006	19.994	103.817	19.820	3.882	0.558
549.000	356.564	80.007	19.993	103.822	19.820	3.848	0.501
550.500	357.325	80.005	19.993	103.824	19.824	3.582	0.513
552.000	358.119	80.007	19.993	103.819	19.818	3.971	0.560
553.500	358.790	80.006	19.992	103.809	19.819	3.905	0.480
555.000	359.597	80.007	19.993	103.813	19.818	4.008	0.539
556.500	360.326	80.007	19.993	103.822	19.817	4.080	0.495
558.000	361.096	80.006	19.993	103.814	19.816	4.138	0.500
559.500	361.872	80.006	19.993	103.818	19.819	3.928	0.520
561.000	362.615	80.007	19.994	103.815	19.817	4.082	0.505
562.500	363.389	80.006	19.992	103.818	19.819	3.926	0.527
564.000	364.111	80.007	19.994	103.822	19.813	4.385	0.494
565.500	364.872	80.008	19.991	103.816	19.813	4.380	0.500
567.000	365.635	80.006	19.993	103.821	19.810	4.604	0.519
568.500	366.431	80.006	19.993	103.824	19.809	4.721	0.522
570.000	367.180	80.005	19.994	103.826	19.810	4.621	0.509
571.500	367.947	80.006	19.993	103.823	19.808	4.742	0.516
573.000	368.738	80.005	19.994	103.822	19.805	5.012	0.527
574.500	369.542	80.006	19.994	103.830	19.801	5.277	0.567
576.000	370.284	80.005	19.994	103.829	19.799	5.423	0.511
577.500	371.033	80.005	19.994	103.821	19.797	5.610	0.514
579.000	371.836	80.006	19.994	103.819	19.794	5.843	0.511
580.500	372.542	80.007	19.994	103.823	19.790	6.102	0.494
582.000	373.365	80.007	19.993	103.827	19.785	6.513	0.525
583.500	374.131	80.008	19.994	103.830	19.786	6.429	0.506
585.000	374.931	80.008	19.993	103.827	19.780	6.898	0.552
586.500	375.649	80.009	19.995	103.828	19.777	7.118	0.467
588.001	376.401	80.007	19.994	103.829	19.772	7.507	0.498
589.500	377.173	80.009	19.993	103.830	19.771	7.572	0.506
591.000	377.964	80.008	19.994	103.829	19.765	8.041	0.506
592.500	378.688	80.008	19.993	103.829	19.761	8.319	0.491
594.000	379.447	80.007	19.995	103.830	19.757	8.612	0.502
595.500	380.200	80.006	19.993	103.832	19.751	9.065	0.502
597.000	381.010	80.008	19.994	103.832	19.752	8.996	0.523
598.500	381.716	80.006	19.993	103.832	19.745	9.497	0.462
600.000	382.491	80.005	19.994	103.831	19.744	9.607	0.507
601.500	383.275	80.006	19.994	103.831	19.736	10.192	0.517
603.000	384.031	80.006	19.994	103.830	19.729	10.752	0.500
604.500	384.794	80.007	19.995	103.839	19.724	11.116	0.512
606.000	385.557	80.009	19.995	103.847	19.717	11.621	0.516
607.500	386.313	80.007	19.996	103.838	19.713	11.928	0.523
609.000	387.042	80.007	19.994	103.830	19.708	12.356	0.481
610.500	387.894	80.009	19.994	103.831	19.702	12.819	0.583
612.000	388.606	80.008	19.993	103.841	19.695	13.301	0.460
613.500	389.433	80.010	19.994	103.848	19.690	13.703	0.552
615.000	390.115	80.009	19.994	103.846	19.678	14.639	0.478
616.500	390.898	80.008	19.995	103.856	19.674	14.917	0.522
618.000	391.634	80.009	19.993	103.864	19.666	15.506	0.487
619.500	392.396	80.008	19.994	103.865	19.657	16.226	0.517
621.000	393.189	80.008	19.993	103.865	19.648	16.911	0.508
622.500	393.985	80.007	19.995	103.868	19.638	17.629	0.537
624.000	394.738	80.008	19.994	103.878	19.628	18.421	0.478
625.500	395.598	80.007	19.994	103.889	19.617	19.233	0.543
627.000	396.327	80.007	19.993	103.894	19.610	19.798	0.527
628.500	397.118	80.007	19.993	103.895	19.598	20.665	0.470
630.000	397.911	80.008	19.993	103.886	19.586	21.593	0.492
631.500	398.640	80.008	19.993	103.889	19.572	22.642	0.471
633.000	399.407	80.008	19.992	103.903	19.559	23.621	0.522
634.500	400.188	80.006	19.993	103.903	19.554	24.026	0.502
636.000	400.984	80.006	19.994	103.899	19.539	25.149	0.514
637.500	401.760	80.007	19.992	103.899	19.526	26.156	0.526
639.000	402.614	80.007	19.995	103.906	19.513	27.113	0.544
640.500	403.366	80.007	19.993	103.910	19.503	27.894	0.510
642.000	404.113	80.007	19.993	103.922	19.493	28.660	0.508
643.500	404.888	80.008	19.992	103.915	19.482	29.485	0.518
645.000	405.642	80.006	19.995	103.910	19.470	30.393	0.517
646.500	406.416	80.006	19.994	103.927	19.454	31.626	0.523
648.000	407.213	80.007	19.993	103.953	19.437	32.930	0.543
649.500	407.981	80.007	19.993	103.965	19.421	34.074	0.508
651.000	408.734	80.005	19.992	103.977	19.401	35.640	0.498
652.500	409.462	80.006	19.994	103.984	19.376	37.544	0.499
654.000	410.212	80.007	19.992	103.987	19.346	39.804	0.488
655.500	411.001	80.006	19.993	103.994	19.314	42.276	0.525
657.000	411.766	80.007	19.992	104.000	19.287	44.309	0.495
658.500	412.555	80.006	19.992	103.993	19.265	46.015	0.518
660.000	413.311	80.006	19.992	103.973	19.245	47.522	0.512
661.500	414.024	80.006	19.991	103.961	19.224	49.060	0.486
663.000	414.819	80.008	19.992	103.983	19.201	50.802	0.516
664.500	415.561	80.008	19.993	104.013	19.178	52.596	0.499
666.000	416.287	80.007	19.994	104.065	19.152	54.571	0.468
667.500	417.049	80.007	19.993	104.098	19.121	56.882	0.506
669.000	417.805	80.008	19.993	104.103	19.089	59.383	0.509
670.500	418.566	80.007	19.994	104.095	19.048	62.504	0.508
672.000	419.351	80.007	19.994	104.093	19.013	65.133	0.536
673.500	420.054	80.007	19.994	104.107	18.980	67.712	0.469
675.000	420.860	80.006	19.993	104.100	18.948	70.113	0.549
676.500	421.618	80.006	19.995	104.090	18.915	72.697	0.529
678.000	422.331	80.005	19.992	104.094	18.886	74.890	0.491
679.500	423.091	80.006	19.993	104.131	18.853	77.494	0.507
681.000	423.852	80.007	19.995	104.158	18.821	79.891	0.491
682.500	424.574	80.006	19.996	104.194	18.787	82.396	0.499
684.000	425.330	80.006	19.994	104.220	18.747	85.370	0.507
685.500	426.011	80.007	19.994	104.242	18.699	89.030	0.443
687.000	426.751	80.009	19.993	104.268	18.621	95.061	0.509
688.500	427.533	80.008	19.993	104.315	18.512	103.482	0.508
690.000	428.301	80.007	19.994	104.407	18.429	109.895	0.497
691.500	429.063	80.008	19.994	104.387	18.370	114.260	0.502
693.000	429.793	80.009	19.994	104.282	18.332	117.104	0.489
694.500	430.558	80.009	19.994	104.213	18.283	120.956	0.512
696.000	431.315	80.009	19.993	104.168	18.218	126.293	0.507
697.500	432.105	80.008	19.993	104.247	18.163	130.588	0.530
699.000	432.835	80.008	19.994	104.427	18.120	133.744	0.505
700.500	433.624	80.006	19.993	104.524	18.097	135.283	0.513
702.000	434.397	80.006	19.995	104.477	18.070	137.025	0.496
703.500	435.101	80.005	19.994	104.418	18.007	141.592	0.470
705.000	435.891	80.005	19.996	104.452	17.873	152.027	0.521
706.500	436.660	80.005	19.994	104.675	17.698	165.777	0.510
708.000	437.422	80.006	19.995	104.891	17.554	176.956	0.491
709.500	438.166	80.006	19.994	104.844	17.456	184.483	0.489
711.000	438.944	80.005	19.994	104.683	17.387	189.733	0.525
712.500	439.680	80.005	19.993	104.428	17.347	192.757	0.490
714.000	440.453	80.005	19.993	104.239	17.321	194.691	0.535
715.500	441.228	80.007	19.992	104.272	17.307	195.766	0.517
717.000	441.965	80.006	19.993	104.585	17.307	195.793	0.484
718.500	442.736	80.007	19.994	104.769	17.307	195.743	0.512
720.000	443.506	80.006	19.993	104.784	17.315	195.127	0.518
721.500	444.282	80.006	19.994	104.765	17.324	194.398	0.520
723.000	445.097	80.006	19.995	104.754	17.336	193.414	0.536
724.500	445.815	80.005	19.993	104.744	17.341	192.986	0.494
726.000	446.597	80.006	19.992	104.748	17.352	192.117	0.505
727.500	447.401	80.007	19.992	104.744	17.363	191.285	0.538
729.000	448.176	80.007	19.994	104.734	17.378	190.132	0.526
730.500	448.983	80.007	19.992	104.718	17.394	188.848	0.528
732.000	449.778	80.006	19.993	104.695	17.418	186.971	0.527
733.500	450.553	80.005	19.993	104.682	17.445	184.913	0.530
735.000	451.307	80.005	19.994	104.657	17.482	182.063	0.506
736.500	452.090	80.006	19.992	104.648	17.524	178.843	0.521
738.000	452.861	80.005	19.993	104.641	17.564	175.750	0.510
739.500	453.634	80.008	19.994	104.623	17.612	172.012	0.514
741.000	454.399	80.006	19.994	104.609	17.668	167.739	0.503
742.500	455.182	80.006	19.994	104.590	17.726	163.281	0.514
744.000	455.944	80.006	19.993	104.573	17.785	158.721	0.525
745.500	456.751	80.005	19.993	104.555	17.852	153.572	0.540
747.000	457.500	80.007	19.994	104.527	17.924	148.053	0.486
748.500	458.271	80.007	19.993	104.504	17.997	142.472	0.514
750.000	459.052	80.008	19.993	104.476	18.067	137.162	0.485
751.500	459.843	80.008	19.994	104.450	18.148	130.943	0.522
753.000	460.597	80.008	19.993	104.425	18.221	125.374	0.508
754.500	461.320	80.008	19.992	104.401	18.297	119.588	0.498
756.000	462.174	80.009	19.992	104.374	18.375	113.601	0.571
757.500	462.916	80.008	19.994	104.348	18.455	107.520	0.513
759.000	463.677	80.008	19.994	104.314	18.543	100.856	0.516
760.500	464.449	80.007	19.994	104.288	18.624	94.642	0.509
762.000	465.199	80.008	19.994	104.260	18.707	88.335	0.479
763.500	465.967	80.007	19.994	104.229	18.789	82.085	0.521
765.000	466.720	80.006	19.995	104.205	18.869	76.002	0.510
766.500	467.507	80.007	19.993	104.186	18.947	70.050	0.506
768.000	468.261	80.007	19.994	104.177	19.017	64.780	0.485
769.500	469.036	80.009	19.994	104.159	19.083	59.731	0.536
771.000	469.827	80.008	19.995	104.135	19.143	55.194	0.543
772.500	470.595	80.009	19.993	104.112	19.199	50.913	0.515
774.000	471.345	80.008	19.994	104.086	19.248	47.233	0.526
775.500	472.090	80.009	19.993	104.063	19.299	43.304	0.487
777.000	472.917	80.009	19.994	104.041	19.335	40.600	0.524
778.500	473.707	80.008	19.994	104.027	19.374	37.638	0.550
780.000	474.471	80.007	19.993	104.009	19.408	35.088	0.496
781.500	475.290	80.009	19.993	103.988	19.442	32.495	0.557
783.000	476.023	80.007	19.993	103.982	19.468	30.524	0.497
784.500	476.809	80.004	19.993	103.963	19.496	28.433	0.532
786.000	477.572	80.006	19.994	103.947	19.519	26.619	0.509
787.500	478.340	80.006	19.994	103.945	19.544	24.742	0.499
789.000	479.136	80.006	19.994	103.939	19.564	23.236	0.542
790.500	479.890	80.004	19.995	103.924	19.587	21.532	0.490
792.000	480.677	80.006	19.993	103.914	19.601	20.421	0.510
793.500	481.462	80.005	19.994	103.912	19.612	19.582	0.514
795.000	482.229	80.006	19.994	103.910	19.631	18.147	0.530
796.500	482.959	80.006	19.993	103.908	19.644	17.180	0.491
798.000	483.745	80.005	19.994	103.901	19.656	16.275	0.526
799.500	484.538	80.007	19.993	103.887	19.669	15.323	0.546
801.000	485.335	80.006	19.994	103.877	19.679	14.547	0.532
802.500	486.099	80.005	19.995	103.885	19.687	13.951	0.507
804.000	486.881	80.007	19.994	103.886	19.696	13.230	0.532
805.500	487.662	80.008	19.994	103.869	19.706	12.456	0.524
807.000	488.437	80.007	19.993	103.865	19.713	11.981	0.513
808.500	489.173	80.008	19.993	103.864	19.722	11.245	0.501
810.000	489.992	80.007	19.993	103.859	19.725	11.021	0.537
811.500	490.757	80.006	19.993	103.842	19.735	10.311	0.520
813.000	491.533	80.006	19.994	103.835	19.740	9.941	0.527
814.500	492.343	80.006	19.994	103.834	19.743	9.667	0.528
816.000	493.120	80.006	19.994	103.828	19.749	9.192	0.521
817.500	493.898	80.005	19.993	103.828	19.752	9.018	0.511
819.000	494.688	80.005	19.994	103.827	19.756	8.666	0.533
820.500	495.466	80.005	19.994	103.828	19.760	8.358	0.519
822.000	496.304	80.006	19.995	103.828	19.769	7.724	0.549
823.500	497.088	80.007	19.995	103.827	19.770	7.620	0.506
825.001	497.862	80.005	19.993	103.822	19.776	7.191	0.531
826.500	498.654	80.007	19.994	103.820	19.777	7.115	0.513
828.000	499.396	80.008	19.993	103.817	19.779	6.965	0.497
829.500	500.183	80.007	19.993	103.809	19.781	6.815	0.541
831.000	500.987	80.006	19.995	103.807	19.782	6.712	0.518
832.500	501.764	80.009	19.993	103.803	19.783	6.669	0.536
834.000	502.526	80.008	19.992	103.807	19.787	6.326	0.502
835.500	503.328	80.007	19.992	103.800	19.789	6.190	0.515
837.000	504.110	80.007	19.993	103.791	19.789	6.221	0.527
838.500	504.879	80.006	19.992	103.793	19.792	5.982	0.522
840.000	505.631	80.008	19.992	103.798	19.792	5.982	0.498
841.500	506.431	80.007	19.994	103.795	19.794	5.824	0.514
843.000	507.189	80.008	19.992	103.793	19.796	5.694	0.473
844.500	507.960	80.007	19.993	103.794	19.793	5.865	0.509
846.000	508.716	80.007	19.993	103.793	19.796	5.692	0.481
847.500	509.473	80.007	19.992	103.793	19.800	5.341	0.503
849.000	510.227	80.007	19.991	103.793	19.798	5.528	0.502
850.500	511.009	80.006	19.992	103.791	19.801	5.294	0.498
852.000	511.768	80.007	19.993	103.791	19.801	5.279	0.520
853.500	512.479	80.008	19.993	103.790	19.804	5.086	0.494
855.000	513.262	80.006	19.994	103.789	19.803	5.117	0.510
856.500	514.052	80.009	19.993	103.790	19.803	5.168	0.536
858.000	514.832	80.007	19.994	103.790	19.802	5.231	0.487
859.500	515.570	80.007	19.993	103.787	19.801	5.316	0.502
861.000	516.401	80.009	19.992	103.789	19.800	5.347	0.547
862.500	517.152	80.007	19.993	103.789	19.802	5.244	0.496
864.000	517.872	80.007	19.995	103.789	19.805	5.018	0.467
865.500	518.659	80.007	19.993	103.788	19.801	5.306	0.499
867.000	519.416	80.005	19.994	103.786	19.804	5.071	0.513
868.500	520.095	80.007	19.994	103.782	19.807	4.872	0.496
870.001	520.914	80.007	19.993	103.782	19.801	5.279	0.531
871.500	521.613	80.007	19.994	103.780	19.806	4.886	0.437
873.000	522.354	80.007	19.993	103.783	19.805	4.958	0.446
874.500	523.131	80.006	19.993	103.787	19.805	4.979	0.496
876.000	523.924	80.006	19.994	103.788	19.805	5.016	0.489
877.500	524.584	80.007	19.994	103.788	19.809	4.703	0.468
879.000	525.387	80.007	19.993	103.786	19.811	4.510	0.505
880.500	526.115	80.007	19.994	103.778	19.804	5.040	0.537
882.000	526.860	80.007	19.995	103.783	19.804	5.069	0.494
883.500	527.621	80.006	19.993	103.785	19.805	4.991	0.534
885.001	528.376	80.005	19.994	103.785	19.803	5.116	0.549
886.500	529.124	80.005	19.995	103.779	19.805	4.991	0.491
888.000	529.842	80.007	19.994	103.782	19.806	4.936	0.488
889.500	530.674	80.006	19.993	103.785	19.806	4.890	0.511
891.000	531.359	80.008	19.996	103.780	19.804	5.057	0.444
892.500	532.667	80.007	19.995	103.783	19.802	5.213	0.657
894.000	532.492	80.006	19.994	103.783	19.803	5.106	-0.116
895.500	533.648	80.005	19.994	103.778	19.807	4.816	0.395
897.000	534.281	80.007	19.994	103.776	19.803	5.119	0.191
898.500	535.054	80.006	19.994	103.783	19.807	4.845	0.387
900.000	535.879	80.006	19.995	103.779	19.805	5.003	0.504
901.500	536.386	80.005	19.993	103.779	19.805	4.989	0.330
903.000	537.131	80.005	19.993	103.777	19.808	4.744	0.530
904.500	538.088	80.006	19.994	103.772	19.807	4.869	0.505
906.000	538.682	80.006	19.994	103.771	19.806	4.876	0.313
907.500	539.347	80.006	19.993	103.778	19.806	4.876	0.499
909.000	540.118	80.008	19.994	103.779	19.810	4.619	0.452
910.500	540.913	80.008	19.994	103.775	19.808	4.769	0.456
912.000	541.668	80.007	19.993	103.784	19.804	5.030	0.507
913.500	542.370	80.008	19.994	103.783	19.804	5.046	0.442
915.000	543.116	80.009	19.993	103.773	19.804	5.065	0.459
916.500	543.806	80.008	19.993	103.777	19.805	5.012	0.514
918.000	544.532	80.008	19.993	103.786	19.806	4.940	0.465
919.500	545.300	80.008	19.993	103.789	19.805	4.981	0.522
921.000	546.036	80.009	19.992	103.779	19.801	5.274	0.487
922.500	546.805	80.008	19.992	103.776	19.802	5.233	0.535
924.000	547.529	80.007	19.994	103.774	19.800	5.375	0.478
925.500	548.227	80.007	19.994	103.780	19.804	5.042	0.509
927.000	548.999	80.007	19.992	103.785	19.806	4.878	0.482
928.500	549.764	80.007	19.993	103.790	19.804	5.054	0.502
930.000	550.472	80.008	19.993	103.783	19.803	5.102	0.461
931.500	551.234	80.007	19.993	103.774	19.804	5.057	0.519
933.000	551.994	80.009	19.993	103.778	19.805	4.966	0.508
934.500	552.747	80.009	19.992	103.771	19.807	4.868	0.499
936.000	553.474	80.008	19.992	103.770	19.803	5.143	0.486
937.500	554.224	80.010	19.993	103.784	19.806	4.903	0.500
939.000	555.019	80.010	19.992	103.778	19.804	5.059	0.538
940.500	555.831	80.011	19.992	103.776	19.802	5.211	0.537
942.000	556.572	80.009	19.995	103.787	19.804	5.092	0.504
943.500	557.319	80.010	19.994	103.783	19.807	4.845	0.488
945.000	558.025	80.009	19.992	103.781	19.807	4.800	0.496
946.500	558.835	80.009	19.994	103.783	19.807	4.859	0.532
948.000	559.599	80.008	19.994	103.784	19.806	4.876	0.495
949.500	560.376	80.007	19.992	103.786	19.805	5.014	0.528
951.000	561.126	80.007	19.993	103.783	19.804	5.063	0.502
952.500	561.908	80.008	19.993	103.782	19.805	4.991	0.524
954.000	562.649	80.007	19.995	103.783	19.801	5.305	0.494
955.500	563.450	80.006	19.993	103.783	19.800	5.398	0.514
957.000	564.264	80.008	19.994	103.782	19.803	5.149	0.533
958.500	564.952	80.007	19.995	103.783	19.800	5.350	0.486
960.000	565.768	80.007	19.994	103.784	19.799	5.456	0.544
961.500	566.586	80.008	19.994	103.785	19.798	5.515	0.534
963.000	567.379	80.007	19.994	103.782	19.801	5.326	0.519
964.500	568.151	80.008	19.994	103.768	19.802	5.210	0.517
966.000	568.939	80.008	19.994	103.777	19.803	5.159	0.539
967.500	569.753	80.007	19.994	103.784	19.799	5.410	0.552
969.000	570.517	80.008	19.993	103.769	19.800	5.353	0.479
970.500	571.315	80.008	19.994	103.777	19.805	5.022	0.561
972.000	572.105	80.007	19.993	103.782	19.803	5.101	0.564
973.500	572.930	80.007	19.994	103.778	19.805	4.962	0.572
975.000	573.761	80.008	19.993	103.770	19.804	5.040	0.534
976.500	574.572	80.007	19.993	103.769	19.802	5.219	0.566
978.000	575.415	80.006	19.994	103.775	19.801	5.273	0.560
979.500	576.224	80.006	19.994	103.780	19.800	5.328	0.568
981.000	577.027	80.007	19.994	103.779	19.806	4.931	0.531
982.500	577.835	80.006	19.996	103.768	19.803	5.139	0.516
984.000	578.678	80.005	19.994	103.775	19.803	5.130	0.563
985.500	579.460	80.006	19.993	103.785	19.806	4.947	0.515
987.000	580.288	80.005	19.995	103.780	19.799	5.416	0.550
988.500	581.092	80.006	19.994	103.779	19.801	5.289	0.537
990.001	581.906	80.008	19.993	103.782	19.804	5.083	0.547
991.500	582.698	80.006	19.994	103.778	19.803	5.142	0.525
993.000	583.510	80.007	19.995	103.776	19.802	5.224	0.552
994.500	584.305	80.007	19.993	103.769	19.804	5.047	0.523
996.000	585.093	80.008	19.992	103.775	19.800	5.370	0.522
997.500	585.934	80.008	19.994	103.772	19.801	5.316	0.556
999.000	586.709	80.010	19.993	103.777	19.801	5.253	0.538
1000.500	587.483	80.009	19.993	103.772	19.799	5.426	0.526
1002.000	588.265	80.009	19.992	103.762	19.796	5.648	0.517
1003.500	589.031	80.008	19.993	103.759	19.800	5.383	0.505
1005.000	589.840	80.009	19.993	103.756	19.799	5.421	0.552
1006.500	590.591	80.009	19.993	103.759	19.797	5.566	0.500
1008.000	591.381	80.008	19.993	103.753	19.798	5.484	0.523
1009.500	592.150	80.009	19.993	103.758	19.797	5.587	0.495
1011.000	592.898	80.009	19.992	103.766	19.798	5.490	0.516
1012.500	593.681	80.007	19.993	103.769	19.798	5.547	0.531
1014.000	594.486	80.008	19.993	103.769	19.799	5.426	0.525
1015.500	595.198	80.008	19.993	103.780	19.799	5.451	0.467
1017.000	595.967	80.008	19.993	103.778	19.796	5.704	0.509
1018.500	596.715	80.008	19.993	103.770	19.796	5.660	0.494
1020.000	597.515	80.009	19.993	103.772	19.798	5.545	0.515
1021.500	598.269	80.011	19.993	103.777	19.798	5.531	0.478
1023.000	599.038	80.010	19.994	103.771	19.796	5.684	0.529
1024.500	599.767	80.010	19.993	103.764	19.796	5.673	0.477
1026.001	600.575	80.010	19.993	103.764	19.796	5.655	0.537
1027.500	601.296	80.009	19.993	103.779	19.799	5.469	0.485
1029.000	602.063	80.009	19.992	103.775	19.798	5.506	0.516
1030.501	602.853	80.008	19.993	103.761	19.795	5.757	0.520
1032.001	603.590	80.008	19.992	103.768	19.798	5.526	0.501
1033.500	604.382	80.006	19.994	103.778	19.795	5.748	0.519
1035.000	605.133	80.008	19.993	103.781	19.794	5.839	0.507
1036.500	605.903	80.007	19.993	103.777	19.799	5.443	0.506
1038.001	606.664	80.007	19.993	103.775	19.795	5.734	0.520
1039.501	607.399	80.007	19.993	103.774	19.799	5.473	0.502
1041.000	608.171	80.007	19.993	103.773	19.796	5.633	0.532
1042.500	608.941	80.006	19.994	103.761	19.794	5.818	0.507
1044.000	609.696	80.007	19.994	103.760	19.798	5.532	0.488
1045.500	610.442	80.006	19.994	103.768	19.800	5.386	0.479
1047.000	611.189	80.006	19.993	103.771	19.798	5.525	0.511
1048.500	611.950	80.006	19.993	103.761	19.798	5.515	0.499
1050.000	612.705	80.007	19.994	103.752	19.801	5.268	0.516
1051.500	613.414	80.007	19.994	103.753	19.798	5.518	0.487
1053.000	614.159	80.006	19.994	103.754	19.797	5.590	0.496
1054.500	614.927	80.006	19.994	103.755	19.800	5.339	0.493
1056.001	615.613	80.006	19.994	103.754	19.800	5.385	0.462
1057.500	616.431	80.005	19.993	103.758	19.798	5.488	0.539
1059.000	617.203	80.007	19.993	103.773	19.798	5.508	0.509
1060.500	617.913	80.006	19.993	103.771	19.797	5.594	0.475
1062.000	618.648	80.006	19.993	103.763	19.795	5.707	0.480
1063.500	619.448	80.007	19.994	103.753	19.795	5.768	0.556
1065.000	620.181	80.006	19.993	103.758	19.795	5.706	0.479
1066.500	620.935	80.006	19.995	103.767	19.796	5.672	0.500
1068.001	621.724	80.005	19.993	103.768	19.794	5.783	0.523
1069.501	622.500	80.007	19.993	103.771	19.793	5.866	0.520
1071.000	623.240	80.006	19.995	103.762	19.796	5.633	0.470
1072.500	624.032	80.006	19.994	103.755	19.795	5.742	0.534
1074.000	624.818	80.006	19.994	103.767	19.796	5.645	0.510
1075.500	625.577	80.007	19.995	103.775	19.796	5.649	0.495
1077.000	626.335	80.006	19.994	103.760	19.799	5.440	0.517
1078.500	627.116	80.008	19.995	103.755	19.799	5.442	0.526
1080.000	627.930	80.009	19.994	103.763	19.797	5.567	0.519
1081.500	628.700	80.007	19.995	103.759	19.800	5.385	0.510
1083.000	629.461	80.007	19.995	103.753	19.799	5.473	0.500
1084.500	630.285	80.008	19.995	103.752	19.798	5.524	0.551
1086.000	631.063	80.007	19.995	103.750	19.798	5.493	0.533
1087.500	631.853	80.007	19.994	103.751	19.801	5.298	0.531
1089.000	632.662	80.007	19.994	103.753	19.799	5.460	0.533
1090.500	633.504	80.007	19.994	103.759	19.798	5.530	0.557
1092.000	634.306	80.007	19.995	103.757	19.799	5.459	0.524
1093.501	635.089	80.008	19.994	103.757	19.799	5.422	0.534
1095.000	635.889	80.008	19.994	103.754	19.802	5.226	0.535
1096.500	636.706	80.008	19.993	103.757	19.800	5.396	0.536
1098.000	637.475	80.009	19.993	103.757	19.803	5.121	0.496
1099.500	638.252	80.008	19.994	103.753	19.802	5.189	0.515
1101.000	639.076	80.009	19.994	103.753	19.805	4.959	0.558
1102.500	639.851	80.009	19.994	103.757	19.804	5.062	0.539
1104.000	640.589	80.009	19.995	103.762	19.805	4.996	0.504
1105.500	641.359	80.009	19.994	103.755	19.800	5.327	0.487
1107.001	642.179	80.010	19.992	103.752	19.805	4.990	0.549
1108.501	642.963	80.008	19.993	103.752	19.805	4.949	0.533
1110.001	643.749	80.007	19.993	103.756	19.805	4.965	0.526
1111.500	644.492	80.008	19.994	103.763	19.807	4.862	0.496
1113.001	645.276	80.006	19.993	103.756	19.806	4.928	0.509
1114.500	646.018	80.006	19.993	103.763	19.803	5.115	0.502
1116.000	646.810	80.007	19.993	103.765	19.805	5.012	0.537
1117.501	647.588	80.005	19.994	103.755	19.804	5.058	0.514
1119.000	648.340	80.006	19.994	103.754	19.804	5.027	0.494
1120.501	649.109	80.005	19.993	103.754	19.805	4.992	0.526
1122.000	649.898	80.005	19.994	103.754	19.806	4.913	0.540
1123.500	650.659	80.005	19.993	103.754	19.804	5.078	0.518
1125.000	651.428	80.005	19.994	103.756	19.803	5.105	0.523
1126.501	652.150	80.007	19.994	103.757	19.803	5.111	0.475
1128.001	652.975	80.007	19.993	103.758	19.809	4.685	0.563
1129.500	653.713	80.007	19.992	103.755	19.807	4.870	0.490
1131.000	654.509	80.007	19.993	103.750	19.806	4.883	0.543
1132.500	655.250	80.009	19.993	103.751	19.808	4.728	0.490
1134.000	656.003	80.007	19.993	103.752	19.807	4.864	0.487
1135.500	656.778	80.008	19.993	103.751	19.807	4.809	0.519
1137.000	657.507	80.007	19.993	103.751	19.809	4.714	0.502
1138.501	658.293	80.008	19.993	103.751	19.807	4.798	0.531
1140.000	659.012	80.006	19.993	103.751	19.806	4.899	0.495
1141.500	659.785	80.007	19.993	103.748	19.807	4.811	0.500
1143.001	660.505	80.006	19.993	103.748	19.814	4.291	0.491
1144.500	661.231	80.006	19.993	103.752	19.813	4.391	0.487
1146.000	661.998	80.006	19.994	103.753	19.811	4.529	0.505
1147.500	662.729	80.006	19.994	103.749	19.808	4.761	0.479
1149.000	663.487	80.007	19.994	103.748	19.814	4.274	0.493
1150.501	664.192	80.008	19.995	103.749	19.810	4.626	0.469
1152.001	664.939	80.007	19.994	103.749	19.815	4.244	0.499
1153.500	665.685	80.007	19.994	103.750	19.812	4.454	0.466
1155.000	666.396	80.008	19.994	103.750	19.814	4.273	0.520
1156.500	667.428	80.007	19.994	103.750	19.812	4.441	0.543
1158.000	667.754	80.008	19.993	103.751	19.811	4.529	0.067
1159.500	668.524	80.008	19.993	103.750	19.811	4.568	0.708
1161.001	669.313	80.009	19.994	103.750	19.809	4.663	0.481
1162.501	670.239	80.008	19.994	103.755	19.809	4.665	0.664
1164.001	671.039	80.007	19.993	103.769	19.810	4.605	0.513
1165.500	671.741	80.008	19.993	103.763	19.811	4.548	0.506
1167.001	672.634	80.009	19.994	103.754	19.811	4.515	0.485
1168.500	672.905	80.007	19.993	103.754	19.813	4.365	0.247
1170.000	674.041	80.007	19.995	103.754	19.808	4.780	0.627
1171.500	674.765	80.006	19.995	103.754	19.812	4.490	0.543
1173.001	675.623	80.007	19.994	103.752	19.812	4.490	0.588
1174.501	676.383	80.007	19.994	103.751	19.810	4.587	0.517
1176.000	677.205	80.006	19.994	103.753	19.806	4.940	0.557
1177.500	677.973	80.006	19.994	103.751	19.810	4.591	0.523
1179.000	678.737	80.007	19.995	103.751	19.809	4.696	0.542
1180.501	679.520	80.008	19.994	103.751	19.810	4.620	0.538
1182.001	680.317	80.008	19.994	103.750	19.809	4.654	0.528
1183.501	681.101	80.010	19.994	103.752	19.811	4.494	0.509
1185.000	681.921	80.009	19.993	103.751	19.812	4.484	0.544
1186.501	682.674	80.009	19.994	103.744	19.812	4.437	0.510
1188.000	683.425	80.009	19.994	103.749	19.806	4.909	0.488
1189.500	684.221	80.010	19.993	103.750	19.809	4.685	0.537
1191.001	684.988	80.009	19.993	103.750	19.807	4.804	0.538
1192.501	685.724	80.009	19.992	103.750	19.810	4.572	0.492
1194.000	686.517	80.008	19.994	103.749	19.813	4.350	0.515
1195.500	687.287	80.008	19.994	103.749	19.809	4.667	0.525
1197.000	688.020	80.006	19.993	103.748	19.812	4.478	0.507
1198.500	688.794	80.008	19.994	103.749	19.809	4.663	0.503
1200.001	689.600	80.007	19.993	103.749	19.811	4.527	0.517
1201.500	690.320	80.008	19.994	103.749	19.813	4.387	0.507
1203.000	691.091	80.008	19.994	103.748	19.809	4.654	0.507
1204.500	691.835	80.006	19.994	103.745	19.811	4.562	0.487
1206.000	692.590	80.006	19.994	103.745	19.809	4.660	0.521
1207.500	693.335	80.007	19.993	103.748	19.813	4.387	0.510
1209.000	694.093	80.006	19.994	103.747	19.812	4.441	0.524
1210.500	694.863	80.006	19.994	103.747	19.813	4.389	0.528
1212.000	695.611	80.006	19.994	103.746	19.809	4.681	0.502
1213.500	696.371	80.007	19.994	103.748	19.811	4.507	0.524
1215.000	697.139	80.006	19.994	103.747	19.809	4.673	0.514
1216.500	697.908	80.007	19.993	103.743	19.812	4.422	0.516
1218.000	698.663	80.008	19.994	103.743	19.813	4.406	0.504
1219.500	699.411	80.006	19.993	103.748	19.810	4.616	0.522
1221.000	700.172	80.007	19.993	103.746	19.815	4.198	0.496
1222.501	700.921	80.007	19.994	103.745	19.814	4.338	0.500
1224.000	701.680	80.006	19.994	103.750	19.813	4.390	0.512
1225.500	702.432	80.006	19.994	103.749	19.815	4.248	0.491
1227.000	703.201	80.005	19.993	103.750	19.812	4.449	0.515
1228.500	703.964	80.006	19.993	103.750	19.814	4.337	0.527
1230.001	704.671	80.006	19.993	103.751	19.813	4.379	0.450
1231.500	705.463	80.008	19.993	103.752	19.813	4.361	0.530
1233.000	706.209	80.005	19.992	103.753	19.814	4.338	0.508
1234.500	706.993	80.007	19.994	103.753	19.815	4.194	0.520
1236.000	707.729	80.006	19.995	103.753	19.817	4.098	0.474
1237.500	708.451	80.007	19.994	103.753	19.815	4.256	0.478
1239.000	709.195	80.008	19.993	103.740	19.811	4.529	0.502
1240.500	709.977	80.008	19.994	103.736	19.813	4.359	0.523
1242.000	710.759	80.008	19.995	103.748	19.811	4.509	0.507
1243.500	711.500	80.009	19.995	103.751	19.810	4.579	0.487
1245.000	712.267	80.009	19.994	103.750	19.809	4.673	0.508
1246.500	713.014	80.008	19.993	103.751	19.813	4.392	0.488
1248.000	713.769	80.008	19.994	103.752	19.809	4.683	0.506
1249.500	714.539	80.008	19.994	103.751	19.813	4.400	0.517
1251.000	715.289	80.009	19.993	103.751	19.809	4.702	0.512
1252.500	716.066	80.006	19.993	103.753	19.811	4.498	0.505
1254.001	716.858	80.007	19.994	103.755	19.814	4.274	0.534
1255.500	717.614	80.007	19.993	103.754	19.810	4.587	0.497
1257.000	718.367	80.008	19.994	103.753	19.810	4.595	0.498
1258.500	719.082	80.007	19.994	103.752	19.812	4.467	0.501
1260.000	719.897	80.008	19.994	103.751	19.811	4.564	0.548
1261.501	720.582	80.009	19.994	103.750	19.811	4.521	0.464
1263.000	721.421	80.007	19.994	103.749	19.813	4.358	0.561
1264.501	722.155	80.009	19.995	103.748	19.811	4.552	0.476
1266.000	722.870	80.008	19.994	103.747	19.812	4.443	0.480
1267.500	723.640	80.009	19.994	103.746	19.812	4.451	0.528
1269.001	724.450	80.010	19.993	103.741	19.808	4.749	0.521
1270.500	725.160	80.008	19.995	103.739	19.808	4.761	0.485
1272.001	725.891	80.007	19.994	103.743	19.812	4.433	0.496
1273.500	726.673	80.008	19.994	103.745	19.808	4.751	0.521
1275.000	727.457	80.008	19.994	103.745	19.813	4.385	0.529
1276.500	728.176	80.006	19.994	103.746	19.812	4.426	0.470
1278.000	728.969	80.008	19.994	103.743	19.809	4.681	0.528
1279.500	729.725	80.005	19.994	103.744	19.812	4.432	0.507
1281.000	730.485	80.006	19.994	103.748	19.811	4.564	0.520
1282.500	731.235	80.007	19.993	103.749	19.814	4.332	0.496
1284.000	731.949	80.006	19.993	103.752	19.810	4.609	0.501
1285.500	732.743	80.007	19.993	103.752	19.808	4.735	0.516
1287.000	733.499	80.006	19.994	103.749	19.811	4.546	0.503
1288.502	734.265	80.008	19.993	103.749	19.809	4.677	0.514
1290.001	735.046	80.006	19.994	103.745	19.808	4.784	0.492
1291.500	735.818	80.007	19.993	103.745	19.813	4.346	0.506
1293.001	736.573	80.006	19.992	103.748	19.808	4.743	0.488
1294.500	737.368	80.006	19.993	103.750	19.808	4.755	0.541
1296.000	738.164	80.006	19.994	103.747	19.809	4.716	0.525
1297.500	738.938	80.006	19.993	103.747	19.809	4.712	0.517
1299.001	739.671	80.007	19.993	103.750	19.811	4.560	0.494
1300.500	740.451	80.007	19.992	103.748	19.808	4.788	0.529
1302.001	741.248	80.006	19.994	103.746	19.808	4.739	0.530
1303.500	742.028	80.006	19.993	103.745	19.807	4.866	0.501
1305.000	742.813	80.006	19.994	103.747	19.809	4.679	0.520
1306.001	743.321	80.007	19.993	103.748	19.810	4.584	0.538