File: 01_Data/PineLap_SidingB/MCC/PineLap_SidingB_MCC_30K_min_211123_R3.txt
Sample ID:	C:\MCC\MCC Cal\Test\PineLap_SidingB_MCC_30K_min_211123_R3.txt
Sample Weight (mg):	4.67
Heating Rate (C/s):	0.5
Combustor Temp (C):	900
N2 Flow Rate (cc/min):	80
O2 Flow Rate (cc/min):	20
Calibration File:	C:\MCC\MCC Cal\Coeff1 JN10440_30_210304.txt.txt
T Correction Coefficients:	0	1.024463	0
Time Shift (s):	14
*
Time (s)	Temperature (C)	N2 flow rate (cc/min)	O2 flow rate (cc/min)	Flow Rate (cc/min)	Oxygen (%)	HRR (W/g)	Heating rate (C/s)
0.000	106.991	80.008	19.996	103.138	20.180	-0.098	0.021
2.000	106.964	80.007	19.995	103.150	20.174	0.333	-0.005
4.000	106.949	80.009	19.996	103.129	20.180	-0.102	-0.012
6.000	106.962	80.009	19.993	103.148	20.175	0.261	0.013
8.000	106.951	80.008	19.995	103.143	20.178	0.028	-0.000
10.000	106.969	80.007	19.997	103.154	20.177	0.098	0.020
12.000	106.940	80.009	19.995	103.187	20.174	0.301	-0.031
14.001	107.015	80.007	19.995	103.200	20.176	0.198	0.043
16.000	107.043	80.007	19.992	103.204	20.174	0.306	0.014
18.000	107.076	80.009	19.993	103.199	20.171	0.533	0.009
20.000	107.133	80.008	19.995	103.199	20.171	0.526	0.039
22.000	107.210	80.008	19.994	103.207	20.172	0.501	0.028
24.000	107.327	80.010	19.992	103.210	20.167	0.823	0.044
26.000	107.372	80.010	19.993	103.209	20.167	0.806	0.036
28.001	107.511	80.009	19.995	103.239	20.165	0.984	0.044
30.000	107.660	80.011	19.993	103.255	20.162	1.133	0.055
32.000	107.751	80.009	19.995	103.260	20.158	1.421	0.084
34.000	107.958	80.010	19.994	103.282	20.159	1.340	0.076
36.000	108.142	80.011	19.995	103.284	20.154	1.711	0.106
38.001	108.355	80.012	19.996	103.291	20.155	1.652	0.084
40.000	108.566	80.011	19.994	103.309	20.151	1.915	0.084
42.000	108.833	80.010	19.995	103.330	20.149	2.078	0.113
44.000	109.130	80.011	19.992	103.325	20.152	1.868	0.144
46.000	109.432	80.012	19.995	103.325	20.149	2.073	0.169
48.000	109.740	80.011	19.994	103.328	20.146	2.249	0.166
50.000	110.142	80.013	19.995	103.332	20.145	2.306	0.223
52.001	110.529	80.012	19.993	103.353	20.143	2.446	0.190
54.001	110.865	80.008	19.994	103.344	20.144	2.408	0.159
56.000	111.340	80.007	19.993	103.360	20.142	2.573	0.225
58.000	111.752	80.009	19.992	103.359	20.139	2.730	0.224
60.000	112.236	80.007	19.991	103.365	20.139	2.756	0.241
62.000	112.744	80.012	19.994	103.367	20.138	2.851	0.256
64.000	113.275	80.006	20.001	103.364	20.135	3.046	0.255
66.000	113.797	80.008	19.995	103.363	20.138	2.851	0.276
68.000	114.361	80.012	19.997	103.368	20.135	3.026	0.252
70.000	114.964	80.007	19.995	103.371	20.134	3.062	0.335
72.000	115.543	80.004	19.999	103.374	20.135	3.016	0.306
74.001	116.168	80.009	19.997	103.369	20.132	3.236	0.307
76.001	116.802	80.008	19.996	103.372	20.132	3.203	0.318
78.001	117.473	80.015	19.997	103.385	20.131	3.289	0.332
80.001	118.175	80.017	19.992	103.394	20.131	3.298	0.376
82.000	118.795	80.008	19.992	103.387	20.136	2.978	0.292
84.000	119.497	80.012	19.994	103.395	20.132	3.266	0.353
86.000	120.190	80.004	19.994	103.379	20.137	2.891	0.344
88.000	120.929	80.007	19.992	103.379	20.136	2.950	0.372
90.000	121.657	80.012	19.991	103.377	20.133	3.172	0.380
92.000	122.387	80.001	19.994	103.385	20.134	3.124	0.370
94.001	123.144	80.008	19.995	103.382	20.136	2.927	0.386
96.000	123.927	80.011	19.998	103.393	20.131	3.278	0.387
98.001	124.715	80.010	19.995	103.386	20.134	3.090	0.396
100.000	125.518	80.009	19.995	103.393	20.137	2.886	0.387
102.001	126.313	80.012	19.996	103.402	20.144	2.371	0.412
104.001	127.140	80.010	19.996	103.398	20.139	2.763	0.422
106.000	127.973	80.015	19.994	103.395	20.137	2.884	0.443
108.000	128.805	80.011	19.994	103.401	20.136	2.948	0.410
110.000	129.669	80.012	19.994	103.395	20.131	3.301	0.412
112.001	130.487	80.013	19.994	103.400	20.139	2.721	0.391
114.001	131.358	80.012	19.994	103.400	20.133	3.174	0.416
116.001	132.282	80.008	19.993	103.403	20.136	2.982	0.434
118.000	133.142	80.011	19.998	103.394	20.129	3.452	0.412
120.000	134.063	80.013	19.992	103.392	20.132	3.206	0.457
122.000	134.977	80.016	19.994	103.398	20.134	3.102	0.450
124.000	135.820	80.013	19.998	103.398	20.131	3.325	0.419
126.000	136.743	80.016	19.997	103.400	20.137	2.921	0.481
128.000	137.665	80.009	19.999	103.389	20.132	3.238	0.475
130.000	138.613	80.011	19.997	103.392	20.136	2.950	0.470
132.000	139.482	80.016	19.991	103.389	20.133	3.147	0.438
134.000	140.399	80.005	19.999	103.396	20.133	3.145	0.415
136.000	141.405	80.011	19.993	103.377	20.138	2.821	0.467
138.000	142.326	80.010	19.994	103.393	20.136	2.963	0.494
140.001	143.275	80.013	19.993	103.390	20.135	2.993	0.506
142.000	144.248	80.004	19.988	103.386	20.133	3.177	0.477
144.000	145.195	80.012	19.994	103.391	20.136	2.986	0.472
146.000	146.133	80.021	19.997	103.397	20.134	3.066	0.487
148.000	147.099	80.009	19.995	103.392	20.139	2.732	0.495
150.000	148.105	80.008	19.998	103.392	20.134	3.124	0.490
152.000	149.028	80.007	19.996	103.383	20.133	3.184	0.463
154.000	150.042	80.011	19.992	103.384	20.136	2.940	0.506
156.000	151.061	80.015	19.993	103.380	20.137	2.871	0.526
158.000	151.954	80.007	19.997	103.396	20.132	3.206	0.477
160.001	152.930	80.002	19.995	103.378	20.140	2.651	0.490
162.000	153.891	80.000	19.997	103.372	20.136	2.984	0.466
164.000	154.858	80.005	19.996	103.371	20.134	3.073	0.476
166.000	155.833	80.012	19.992	103.381	20.137	2.858	0.483
168.000	156.837	80.011	19.994	103.391	20.140	2.667	0.481
170.000	157.784	80.007	19.996	103.383	20.136	2.972	0.508
172.001	158.736	80.007	19.994	103.379	20.135	3.042	0.452
174.000	159.733	80.001	20.001	103.377	20.138	2.836	0.477
176.000	160.727	80.008	19.993	103.365	20.141	2.583	0.489
178.000	161.690	80.009	19.994	103.363	20.140	2.670	0.484
180.000	162.727	80.007	19.995	103.363	20.137	2.887	0.524
182.000	163.695	80.007	20.000	103.360	20.138	2.794	0.483
184.000	164.671	80.007	19.997	103.367	20.135	3.012	0.483
186.000	165.669	80.013	19.996	103.382	20.136	2.987	0.518
188.000	166.610	80.018	19.994	103.391	20.130	3.364	0.466
190.000	167.616	80.017	19.988	103.378	20.131	3.292	0.513
192.000	168.586	80.004	19.997	103.379	20.135	3.032	0.480
194.000	169.634	80.015	19.995	103.377	20.136	2.957	0.499
196.000	170.630	80.014	19.998	103.388	20.138	2.813	0.535
198.000	171.632	80.008	19.994	103.368	20.142	2.561	0.507
200.000	172.652	80.021	19.993	103.362	20.135	3.015	0.511
202.000	173.644	80.008	19.993	103.369	20.138	2.800	0.500
204.000	174.648	80.000	19.996	103.362	20.136	2.964	0.508
206.000	175.665	80.012	19.993	103.364	20.138	2.819	0.505
208.000	176.725	80.019	19.991	103.368	20.137	2.875	0.504
210.000	177.723	80.006	19.993	103.364	20.137	2.856	0.508
212.000	178.735	80.012	20.002	103.364	20.137	2.885	0.478
214.000	179.782	80.010	20.000	103.360	20.139	2.730	0.513
216.000	180.798	80.014	19.992	103.367	20.138	2.828	0.514
218.000	181.870	80.010	19.996	103.363	20.136	2.976	0.572
220.000	182.827	80.002	19.997	103.362	20.135	3.027	0.497
222.000	183.924	80.002	19.994	103.362	20.138	2.817	0.573
224.000	184.884	80.012	19.994	103.360	20.139	2.731	0.532
226.000	185.918	80.012	19.999	103.361	20.137	2.864	0.539
228.000	186.962	80.014	19.998	103.354	20.136	2.964	0.541
230.000	187.999	80.022	19.993	103.354	20.136	2.928	0.519
232.000	188.962	80.007	19.995	103.362	20.141	2.623	0.496
234.000	189.982	79.998	19.995	103.354	20.139	2.771	0.505
236.000	191.013	79.994	19.996	103.341	20.137	2.883	0.526
238.000	192.043	80.016	19.993	103.355	20.138	2.837	0.496
240.000	193.021	80.013	19.994	103.355	20.142	2.570	0.499
242.000	194.023	80.005	19.991	103.351	20.144	2.434	0.491
244.000	195.068	80.021	19.992	103.350	20.139	2.754	0.504
246.000	196.021	80.012	19.992	103.358	20.140	2.699	0.505
248.001	197.028	80.009	19.993	103.354	20.138	2.805	0.492
250.000	197.979	80.010	19.996	103.333	20.142	2.561	0.473
252.000	198.990	80.003	19.995	103.327	20.142	2.523	0.513
254.000	200.073	80.013	19.994	103.348	20.144	2.394	0.537
256.000	201.035	80.012	19.994	103.341	20.140	2.662	0.518
258.000	201.985	80.018	19.994	103.335	20.138	2.847	0.496
260.000	202.971	80.002	19.994	103.337	20.137	2.909	0.512
262.000	203.938	80.011	19.994	103.340	20.134	3.127	0.464
264.000	204.975	80.017	19.993	103.349	20.139	2.739	0.540
266.000	205.967	80.005	19.990	103.368	20.139	2.778	0.519
268.000	206.963	80.012	19.995	103.361	20.141	2.601	0.507
270.000	207.963	80.009	19.992	103.353	20.141	2.620	0.527
272.000	208.900	79.990	19.995	103.357	20.131	3.267	0.499
274.000	209.859	80.014	19.994	103.359	20.131	3.301	0.458
276.000	210.838	79.999	19.992	103.343	20.129	3.413	0.476
278.000	211.842	80.012	19.992	103.356	20.127	3.604	0.500
280.000	212.810	80.009	19.994	103.359	20.132	3.251	0.500
282.000	213.787	80.010	19.992	103.361	20.132	3.202	0.496
284.001	214.720	80.007	19.994	103.362	20.134	3.117	0.477
286.000	215.741	80.008	19.994	103.363	20.127	3.579	0.491
288.000	216.678	80.007	19.994	103.363	20.128	3.479	0.469
290.000	217.697	80.015	19.991	103.341	20.128	3.511	0.505
292.000	218.585	80.011	19.994	103.336	20.127	3.592	0.476
294.000	219.598	80.010	19.996	103.342	20.124	3.751	0.511
296.000	220.613	80.004	19.996	103.333	20.130	3.378	0.487
298.000	221.563	80.008	19.996	103.347	20.133	3.187	0.531
300.000	222.505	80.002	19.997	103.355	20.126	3.655	0.484
302.000	223.525	80.014	19.994	103.358	20.120	4.033	0.487
304.000	224.533	80.017	19.995	103.343	20.122	3.942	0.517
306.000	225.479	80.005	19.995	103.339	20.127	3.559	0.503
308.000	226.451	80.002	19.992	103.348	20.113	4.545	0.454
310.000	227.437	80.009	19.998	103.352	20.116	4.308	0.482
312.000	228.384	80.003	19.996	103.335	20.113	4.555	0.482
314.000	229.489	80.005	19.995	103.337	20.117	4.270	0.557
316.000	230.424	80.004	19.994	103.358	20.111	4.704	0.515
318.000	231.461	80.009	19.995	103.363	20.110	4.768	0.506
320.000	232.397	80.008	19.998	103.358	20.113	4.531	0.473
322.000	233.385	80.019	19.989	103.362	20.110	4.761	0.374
324.000	234.431	80.006	19.993	103.356	20.106	5.009	0.544
326.000	235.396	80.016	19.990	103.343	20.102	5.323	0.466
328.000	236.346	80.014	19.993	103.349	20.095	5.798	0.479
330.000	237.319	80.014	19.991	103.344	20.094	5.837	0.499
332.000	238.285	80.013	19.992	103.349	20.097	5.620	0.507
334.000	239.288	80.028	19.992	103.362	20.091	6.078	0.488
336.000	240.274	80.006	19.996	103.366	20.100	5.433	0.480
338.000	241.216	80.005	19.993	103.358	20.089	6.175	0.516
340.000	242.207	80.011	19.993	103.355	20.086	6.430	0.479
342.000	243.222	80.000	19.994	103.354	20.083	6.584	0.516
344.000	244.189	80.007	19.995	103.360	20.079	6.919	0.486
346.000	245.262	80.015	19.994	103.361	20.080	6.857	0.519
348.000	246.320	80.011	19.994	103.368	20.080	6.817	0.470
350.000	247.218	80.013	19.994	103.364	20.074	7.231	0.558
352.000	248.255	80.013	19.999	103.364	20.072	7.352	0.297
354.000	249.099	80.001	20.004	103.363	20.069	7.583	0.441
356.000	250.233	80.011	19.996	103.361	20.063	7.996	0.501
358.000	251.183	80.010	19.994	103.373	20.066	7.795	0.507
360.000	252.266	80.007	19.995	103.365	20.056	8.512	0.513
362.000	253.251	80.009	19.995	103.363	20.048	9.026	0.513
364.000	254.222	80.011	19.998	103.368	20.047	9.120	0.505
366.000	255.250	80.009	19.995	103.367	20.048	9.062	0.518
368.000	256.245	80.011	19.996	103.364	20.039	9.624	0.487
370.000	257.223	80.010	19.994	103.368	20.037	9.785	0.484
372.000	258.253	80.012	19.994	103.372	20.035	9.921	0.486
374.001	259.232	80.011	19.995	103.365	20.027	10.504	0.538
376.000	260.248	80.011	19.995	103.363	20.026	10.578	0.517
378.000	261.259	80.015	19.991	103.379	20.024	10.676	0.507
380.000	262.210	80.012	19.993	103.377	20.023	10.742	0.474
382.000	263.253	80.011	19.996	103.369	20.017	11.171	0.514
384.000	264.342	80.011	19.996	103.383	20.011	11.594	0.530
386.000	265.310	80.009	19.994	103.375	20.007	11.868	0.512
388.000	266.306	80.014	19.995	103.377	20.002	12.179	0.514
390.000	267.347	80.009	19.994	103.373	19.999	12.409	0.534
392.000	268.367	80.013	19.994	103.371	19.991	12.977	0.514
394.000	269.372	80.008	19.996	103.363	19.988	13.165	0.534
396.000	270.457	80.011	19.994	103.365	19.982	13.606	0.529
398.000	271.452	80.010	19.994	103.370	19.973	14.205	0.524
400.000	272.490	80.012	19.993	103.390	19.972	14.264	0.514
402.000	273.530	80.017	19.995	103.399	19.962	14.947	0.535
404.000	274.543	80.014	19.993	103.401	19.958	15.286	0.508
406.000	275.583	80.010	19.995	103.406	19.952	15.661	0.494
408.000	276.621	80.009	19.996	103.405	19.945	16.137	0.572
410.000	277.647	80.011	19.994	103.432	19.940	16.518	0.494
412.000	278.657	80.009	19.994	103.420	19.934	16.928	0.524
414.000	279.720	80.009	19.995	103.404	19.927	17.389	0.500
416.000	280.748	80.006	19.994	103.404	19.921	17.823	0.523
418.000	281.801	80.011	19.993	103.404	19.915	18.231	0.531
420.000	282.820	80.010	19.993	103.412	19.905	18.886	0.543
422.000	283.794	80.009	19.996	103.406	19.904	19.009	0.502
424.000	284.890	80.007	19.994	103.409	19.895	19.585	0.527
426.000	285.944	80.008	19.994	103.419	19.885	20.320	0.534
428.000	286.946	80.010	19.994	103.420	19.877	20.854	0.519
430.000	287.997	80.007	19.993	103.410	19.874	21.065	0.500
432.000	289.066	80.010	19.994	103.413	19.864	21.781	0.506
434.000	290.090	80.011	19.994	103.413	19.855	22.351	0.507
436.000	291.153	80.013	19.995	103.414	19.851	22.661	0.562
438.000	292.131	80.012	19.993	103.415	19.842	23.289	0.489
440.000	293.169	80.013	19.994	103.404	19.834	23.827	0.501
442.000	294.136	80.012	19.995	103.406	19.828	24.256	0.481
444.000	295.189	80.011	19.995	103.412	19.819	24.860	0.482
446.000	296.194	80.010	19.995	103.432	19.813	25.274	0.507
448.000	297.189	80.011	19.994	103.434	19.802	26.069	0.515
450.000	298.162	80.009	19.996	103.439	19.797	26.375	0.488
452.000	299.162	80.008	19.995	103.440	19.784	27.279	0.479
454.000	300.130	80.012	19.996	103.440	19.769	28.311	0.481
456.000	301.150	80.005	19.996	103.439	19.760	28.951	0.491
458.000	302.133	80.010	19.995	103.437	19.750	29.634	0.478
460.000	303.117	80.013	19.994	103.449	19.743	30.105	0.499
462.000	304.080	80.012	19.994	103.452	19.731	30.943	0.474
464.000	305.052	80.012	19.994	103.447	19.719	31.814	0.495
466.001	306.037	80.012	19.994	103.464	19.715	32.047	0.497
468.000	306.983	80.015	19.994	103.473	19.701	33.031	0.469
470.000	307.984	80.012	19.994	103.465	19.693	33.610	0.463
472.000	308.929	80.010	19.995	103.478	19.676	34.736	0.456
474.000	309.946	80.009	19.995	103.482	19.669	35.239	0.503
476.000	310.910	80.009	19.995	103.485	19.663	35.694	0.499
478.000	311.880	80.009	19.995	103.483	19.644	36.955	0.489
480.000	312.895	80.009	19.995	103.486	19.637	37.495	0.500
482.000	313.860	80.008	19.998	103.483	19.627	38.128	0.479
484.000	314.885	80.007	19.996	103.503	19.619	38.686	0.498
486.000	315.842	80.009	19.995	103.494	19.611	39.229	0.476
488.000	316.830	80.009	19.994	103.502	19.598	40.169	0.487
490.000	317.759	80.010	19.995	103.508	19.586	40.983	0.482
492.000	318.761	80.012	19.995	103.487	19.577	41.601	0.491
494.000	319.741	80.011	19.994	103.496	19.563	42.605	0.499
496.000	320.689	80.012	19.994	103.485	19.558	42.938	0.455
498.000	321.676	80.010	19.993	103.457	19.546	43.733	0.513
500.000	322.654	80.010	19.993	103.474	19.541	44.101	0.497
502.000	323.615	80.012	19.995	103.485	19.531	44.811	0.478
504.000	324.548	80.008	19.995	103.496	19.522	45.429	0.468
506.000	325.587	80.010	19.994	103.522	19.512	46.124	0.497
508.000	326.545	80.009	19.994	103.516	19.503	46.752	0.499
510.000	327.438	80.009	19.995	103.481	19.495	47.281	0.459
512.000	328.431	80.011	19.993	103.483	19.486	47.886	0.459
514.000	329.447	80.010	19.994	103.489	19.476	48.591	0.498
516.000	330.413	80.010	19.994	103.524	19.470	49.023	0.468
518.000	331.430	80.011	19.993	103.518	19.463	49.541	0.511
520.000	332.400	80.011	19.994	103.473	19.448	50.531	0.484
522.000	333.410	80.012	19.994	103.498	19.446	50.709	0.468
524.000	334.413	80.011	19.994	103.488	19.438	51.244	0.516
526.000	335.405	80.011	19.994	103.488	19.429	51.878	0.520
528.000	336.404	80.011	19.994	103.532	19.421	52.397	0.507
530.000	337.385	80.011	19.994	103.518	19.412	53.051	0.527
532.000	338.390	80.011	19.993	103.500	19.408	53.339	0.508
534.000	339.365	80.010	19.994	103.521	19.397	54.086	0.493
536.000	340.372	80.010	19.995	103.525	19.389	54.622	0.494
538.000	341.372	80.012	19.995	103.528	19.380	55.269	0.510
540.000	342.349	80.010	19.994	103.528	19.372	55.819	0.484
542.000	343.334	80.011	19.994	103.522	19.361	56.593	0.482
544.000	344.347	80.011	19.994	103.538	19.354	57.032	0.499
546.000	345.350	80.012	19.994	103.526	19.343	57.845	0.511
548.000	346.352	80.010	19.994	103.541	19.333	58.513	0.494
550.000	347.326	80.011	19.995	103.537	19.321	59.368	0.503
552.000	348.338	80.011	19.994	103.544	19.308	60.240	0.492
554.000	349.362	80.012	19.994	103.546	19.294	61.202	0.522
556.000	350.330	80.011	19.995	103.569	19.279	62.307	0.454
558.000	351.368	80.011	19.996	103.616	19.269	62.989	0.506
560.001	352.350	80.008	19.994	103.583	19.253	64.074	0.492
562.000	353.428	80.010	19.994	103.552	19.238	65.102	0.485
564.000	354.445	80.009	19.994	103.581	19.226	65.976	0.524
566.000	355.392	80.010	19.994	103.592	19.207	67.262	0.492
568.000	356.415	80.012	19.994	103.590	19.191	68.382	0.474
570.001	357.407	80.009	19.994	103.594	19.171	69.733	0.530
572.000	358.398	80.010	19.995	103.594	19.157	70.765	0.514
574.000	359.374	80.012	19.995	103.595	19.141	71.845	0.482
576.000	360.345	80.009	19.995	103.598	19.125	72.983	0.464
578.000	361.369	80.009	19.994	103.606	19.111	73.960	0.540
580.000	362.330	80.009	19.996	103.611	19.095	75.027	0.498
582.000	363.308	80.009	19.996	103.620	19.076	76.376	0.487
584.000	364.281	80.009	19.995	103.623	19.063	77.209	0.497
586.000	365.277	80.009	19.995	103.631	19.053	77.909	0.472
588.000	366.264	80.009	19.995	103.632	19.044	78.554	0.501
590.000	367.253	80.009	19.994	103.624	19.033	79.333	0.501
592.000	368.249	80.010	19.995	103.618	19.029	79.554	0.503
594.000	369.212	80.010	19.995	103.613	19.025	79.853	0.463
596.000	370.215	80.010	19.995	103.600	19.018	80.306	0.482
598.000	371.213	80.011	19.994	103.598	19.018	80.276	0.494
600.000	372.242	80.010	19.994	103.598	19.027	79.685	0.519
602.000	373.236	80.010	19.994	103.598	19.036	79.002	0.517
604.000	374.263	80.011	19.994	103.581	19.049	78.145	0.516
606.000	375.274	80.012	19.994	103.560	19.066	76.932	0.518
608.000	376.254	80.012	19.994	103.544	19.088	75.413	0.501
610.000	377.246	80.012	19.994	103.521	19.113	73.627	0.501
612.000	378.241	80.009	19.995	103.517	19.146	71.376	0.474
614.000	379.305	80.010	19.994	103.501	19.179	69.082	0.499
616.001	380.327	80.011	19.994	103.481	19.215	66.540	0.534
618.000	381.355	80.010	19.993	103.472	19.258	63.587	0.524
620.000	382.376	80.009	19.993	103.449	19.303	60.433	0.517
622.000	383.395	80.012	19.993	103.427	19.348	57.321	0.511
624.000	384.397	80.010	19.994	103.404	19.398	53.921	0.470
626.000	385.442	80.012	19.994	103.392	19.448	50.407	0.488
628.000	386.505	80.013	19.993	103.369	19.503	46.629	0.525
630.000	387.568	80.013	19.994	103.347	19.550	43.396	0.528
632.000	388.540	80.014	19.993	103.324	19.596	40.238	0.520
634.000	389.636	80.013	19.994	103.317	19.647	36.662	0.543
636.001	390.659	80.011	19.993	103.303	19.692	33.599	0.527
638.000	391.667	80.011	19.993	103.284	19.737	30.500	0.512
640.000	392.721	80.010	19.994	103.282	19.776	27.753	0.515
642.000	393.774	80.010	19.995	103.281	19.814	25.167	0.544
644.000	394.823	80.010	19.995	103.280	19.852	22.566	0.530
646.000	395.833	80.009	19.994	103.270	19.878	20.735	0.509
648.000	396.900	80.010	19.995	103.277	19.907	18.776	0.541
650.000	397.932	80.010	19.995	103.248	19.931	17.110	0.523
652.000	398.955	80.010	19.994	103.248	19.950	15.770	0.511
654.000	399.992	80.010	19.995	103.256	19.968	14.556	0.521
656.000	401.015	80.011	19.994	103.249	19.985	13.379	0.523
658.000	401.999	80.010	19.994	103.250	19.993	12.807	0.496
660.000	403.029	80.011	19.995	103.265	20.008	11.809	0.503
662.000	404.088	80.010	19.995	103.254	20.016	11.248	0.536
664.000	405.057	80.010	19.994	103.247	20.020	10.955	0.488
666.000	406.098	80.010	19.995	103.245	20.029	10.350	0.508
668.000	407.111	80.009	19.996	103.249	20.030	10.232	0.476
670.000	408.147	80.010	19.995	103.247	20.035	9.885	0.510
672.000	409.146	80.010	19.995	103.256	20.037	9.795	0.495
674.000	410.195	80.009	19.996	103.253	20.043	9.400	0.506
676.000	411.236	80.010	19.995	103.255	20.040	9.570	0.519
678.000	412.208	80.010	19.996	103.253	20.044	9.322	0.500
680.000	413.254	80.009	19.995	103.247	20.042	9.441	0.523
682.000	414.191	80.009	19.995	103.247	20.044	9.299	0.473
684.000	415.211	80.011	19.996	103.249	20.052	8.740	0.512
686.000	416.203	80.011	19.994	103.251	20.048	9.038	0.497
688.000	417.236	80.010	19.995	103.252	20.053	8.692	0.529
690.000	418.242	80.011	19.994	103.273	20.054	8.583	0.503
692.000	419.231	80.011	19.993	103.250	20.055	8.512	0.493
694.000	420.213	80.012	19.994	103.249	20.053	8.665	0.492
696.000	421.223	80.013	19.995	103.246	20.060	8.216	0.487
698.000	422.227	80.011	19.994	103.244	20.059	8.283	0.487
700.000	423.201	80.011	19.994	103.249	20.059	8.236	0.511
702.000	424.251	80.010	19.994	103.244	20.062	8.070	0.513
704.001	425.220	80.011	19.994	103.244	20.061	8.110	0.504
706.000	426.230	80.011	19.994	103.245	20.058	8.325	0.516
708.000	427.236	80.012	19.994	103.242	20.062	8.059	0.507
710.001	428.229	80.012	19.994	103.240	20.066	7.802	0.503
712.000	429.256	80.013	19.994	103.243	20.069	7.586	0.529
714.000	430.262	80.014	19.995	103.245	20.069	7.584	0.477
716.000	431.245	80.012	19.994	103.244	20.066	7.756	0.494
718.001	432.258	80.011	19.993	103.245	20.071	7.408	0.494
720.000	433.259	80.012	19.994	103.252	20.070	7.538	0.464
722.000	434.291	80.012	19.994	103.254	20.072	7.378	0.527
724.000	435.307	80.011	19.995	103.244	20.070	7.520	0.497
726.000	436.363	80.012	19.994	103.247	20.075	7.172	0.501
728.000	437.329	80.010	19.994	103.248	20.078	6.922	0.476
730.000	438.357	80.010	19.994	103.254	20.082	6.648	0.496
732.000	439.336	80.010	19.994	103.259	20.078	6.968	0.493
734.000	440.319	80.011	19.994	103.252	20.081	6.773	0.479
736.000	441.376	80.011	19.995	103.246	20.082	6.695	0.518
738.000	442.354	80.011	19.994	103.247	20.086	6.416	0.518
740.000	443.379	80.011	19.994	103.247	20.088	6.285	0.524
742.000	444.381	80.010	19.995	103.248	20.081	6.744	0.494
744.000	445.400	80.010	19.994	103.248	20.085	6.436	0.514
746.000	446.385	80.011	19.995	103.246	20.086	6.421	0.526
748.000	447.374	80.011	19.994	103.247	20.088	6.291	0.494
750.000	448.406	80.011	19.994	103.244	20.089	6.175	0.556
752.000	449.391	80.010	19.994	103.245	20.089	6.170	0.490
754.000	450.399	80.011	19.995	103.244	20.092	6.005	0.530
756.000	451.408	80.010	19.995	103.240	20.095	5.775	0.525
758.000	452.338	80.009	19.994	103.244	20.098	5.561	0.452
760.000	453.386	80.009	19.994	103.249	20.093	5.911	0.540
762.000	454.386	80.010	19.995	103.246	20.099	5.481	0.524
764.000	455.405	80.011	19.994	103.245	20.101	5.339	0.517
766.001	456.362	80.009	19.996	103.236	20.100	5.415	0.482
768.000	457.414	80.011	19.994	103.231	20.103	5.256	0.505
770.000	458.385	80.010	19.995	103.243	20.107	4.967	0.503
772.000	459.420	80.012	19.996	103.242	20.106	5.054	0.525
774.000	460.362	80.012	19.995	103.240	20.108	4.912	0.467
776.000	461.379	80.010	19.996	103.242	20.106	5.041	0.523
778.000	462.364	80.010	19.995	103.244	20.108	4.891	0.474
780.000	463.375	80.010	19.994	103.245	20.110	4.761	0.492
782.000	464.376	80.010	19.994	103.244	20.113	4.523	0.478
784.000	465.374	80.011	19.996	103.242	20.118	4.188	0.500
786.000	466.342	80.012	19.994	103.238	20.116	4.360	0.481
788.001	467.363	80.011	19.994	103.244	20.113	4.541	0.492
790.000	468.341	80.011	19.994	103.242	20.113	4.532	0.474
792.000	469.351	80.015	19.994	103.246	20.119	4.126	0.505
794.000	470.347	80.013	19.994	103.244	20.119	4.133	0.511
796.000	471.373	80.011	19.994	103.246	20.120	4.075	0.500
798.000	472.400	80.010	19.994	103.243	20.119	4.128	0.502
800.000	473.358	80.012	19.994	103.231	20.124	3.761	0.494
802.000	474.383	80.010	19.995	103.242	20.122	3.892	0.514
804.000	475.372	80.010	19.994	103.246	20.124	3.778	0.479
806.000	476.369	80.011	19.994	103.245	20.126	3.674	0.476
808.000	477.382	80.010	19.994	103.247	20.125	3.678	0.462
810.000	478.429	80.010	19.994	103.246	20.121	3.967	0.533
812.000	479.406	80.010	19.994	103.251	20.125	3.678	0.485
814.000	480.423	80.008	19.994	103.259	20.125	3.721	0.498
816.000	481.523	80.009	19.993	103.252	20.123	3.874	0.535
818.000	482.529	80.010	19.994	103.249	20.124	3.810	0.528
820.000	483.593	80.009	19.993	103.249	20.127	3.591	0.531
822.000	484.692	80.010	19.994	103.247	20.126	3.646	0.545
824.000	485.750	80.011	19.994	103.250	20.126	3.615	0.535
826.000	486.891	80.009	19.994	103.250	20.125	3.729	0.584
828.000	487.936	80.011	19.994	103.247	20.127	3.540	0.528
830.000	489.043	80.009	19.994	103.249	20.124	3.808	0.570
832.001	490.098	80.010	19.995	103.246	20.130	3.384	0.540
834.000	491.188	80.010	19.995	103.247	20.127	3.545	0.565
836.000	492.343	80.009	19.995	103.243	20.132	3.207	0.545
838.000	493.438	80.010	19.994	103.243	20.129	3.411	0.560
840.000	494.576	80.010	19.995	103.243	20.131	3.301	0.584
842.000	495.689	80.010	19.995	103.241	20.131	3.318	0.559
844.000	496.797	80.009	19.996	103.245	20.133	3.154	0.591
846.000	497.942	80.010	19.995	103.245	20.128	3.528	0.598
848.000	499.030	80.009	19.996	103.245	20.134	3.078	0.525
850.000	500.151	80.011	19.995	103.245	20.134	3.080	0.540
852.000	501.261	80.011	19.994	103.244	20.134	3.067	0.538
854.000	502.352	80.010	19.994	103.243	20.134	3.076	0.525
856.000	503.460	80.012	19.995	103.237	20.134	3.106	0.524
858.000	504.554	80.011	19.995	103.235	20.135	3.023	0.532
860.000	505.622	80.011	19.995	103.235	20.134	3.063	0.524
862.000	506.741	80.010	19.995	103.237	20.137	2.908	0.534
864.000	507.843	80.009	19.995	103.238	20.135	2.993	0.561
866.000	508.918	80.010	19.995	103.236	20.135	3.016	0.556
868.000	510.028	80.009	19.996	103.231	20.135	3.052	0.562
870.000	511.104	80.009	19.995	103.234	20.135	3.029	0.529
872.000	512.175	80.011	19.995	103.236	20.131	3.273	0.538
874.000	513.266	80.011	19.995	103.243	20.135	3.008	0.515
876.000	514.360	80.012	19.994	103.247	20.133	3.125	0.549
878.000	515.444	80.013	19.995	103.248	20.140	2.652	0.527
880.000	516.537	80.011	19.994	103.240	20.134	3.097	0.539
882.000	517.588	80.012	19.994	103.226	20.138	2.802	0.544
884.000	518.637	80.013	19.994	103.234	20.134	3.101	0.543
886.000	519.724	80.010	19.993	103.234	20.133	3.167	0.530
888.000	520.799	80.010	19.993	103.229	20.136	2.948	0.517
890.000	521.831	80.010	19.993	103.231	20.135	3.000	0.490
892.000	522.900	80.009	19.995	103.231	20.137	2.902	0.543
894.000	523.918	80.010	19.995	103.234	20.137	2.860	0.488
896.000	524.987	80.010	19.994	103.238	20.139	2.772	0.518
898.000	526.013	80.010	19.995	103.240	20.139	2.719	0.503
900.000	527.037	80.009	19.994	103.236	20.137	2.861	0.517
902.000	528.102	80.009	19.995	103.232	20.137	2.904	0.520
904.000	529.119	80.010	19.995	103.222	20.138	2.800	0.505
906.000	530.134	80.009	19.994	103.228	20.142	2.563	0.446
908.000	531.222	80.011	19.995	103.240	20.140	2.705	0.544
910.000	532.219	80.010	19.994	103.242	20.140	2.692	0.517
912.000	533.246	80.010	19.994	103.237	20.137	2.860	0.506
914.000	534.250	80.010	19.994	103.222	20.136	2.940	0.476
916.000	535.282	80.010	19.994	103.227	20.138	2.841	0.498
918.000	536.312	80.009	19.993	103.228	20.137	2.888	0.525
920.000	537.317	80.010	19.994	103.230	20.136	2.951	0.503
922.000	538.306	80.011	19.994	103.213	20.136	2.974	0.517
924.000	539.344	80.010	19.994	103.224	20.133	3.146	0.534
926.000	540.339	80.009	19.994	103.228	20.138	2.813	0.505
928.000	541.349	80.010	19.995	103.225	20.138	2.783	0.527
930.000	542.329	80.010	19.995	103.216	20.139	2.756	0.499
932.000	543.353	80.009	19.994	103.217	20.140	2.656	0.506
934.000	544.347	80.009	19.995	103.228	20.142	2.569	0.515
936.000	545.315	80.010	19.994	103.218	20.140	2.700	0.464
938.000	546.339	80.011	19.995	103.221	20.142	2.563	0.519
940.000	547.363	80.010	19.995	103.225	20.141	2.620	0.493
942.000	548.380	80.011	19.995	103.216	20.143	2.499	0.508
944.000	549.386	80.009	19.994	103.216	20.144	2.399	0.523
946.000	550.408	80.009	19.994	103.230	20.142	2.520	0.513
948.000	551.398	80.010	19.994	103.218	20.145	2.344	0.497
950.000	552.420	80.010	19.994	103.235	20.143	2.476	0.526
952.000	553.479	80.009	19.995	103.223	20.144	2.370	0.500
954.000	554.511	80.010	19.995	103.213	20.141	2.584	0.527
956.000	555.514	80.010	19.995	103.210	20.145	2.321	0.525
958.000	556.453	80.011	19.994	103.210	20.144	2.385	0.485
960.000	557.423	80.013	19.995	103.213	20.147	2.221	0.468
962.000	558.417	80.012	19.996	103.206	20.145	2.364	0.476
964.001	559.390	80.012	19.995	103.204	20.143	2.472	0.478
966.000	560.318	80.011	19.994	103.204	20.143	2.438	0.482
968.000	561.246	80.012	19.995	103.203	20.145	2.340	0.466
970.000	562.205	80.012	19.994	103.204	20.143	2.462	0.483
972.000	563.109	80.011	19.996	103.204	20.145	2.365	0.464
974.000	564.067	80.010	19.994	103.206	20.141	2.590	0.462
976.000	564.967	80.010	19.994	103.212	20.141	2.610	0.447
978.000	565.939	80.009	19.993	103.219	20.142	2.567	0.476
980.000	566.873	80.009	19.993	103.234	20.147	2.210	0.458
982.000	567.815	80.009	19.994	103.229	20.145	2.325	0.443
984.000	568.769	80.010	19.994	103.217	20.144	2.372	0.450
986.000	569.738	80.009	19.993	103.215	20.143	2.444	0.503
988.000	570.688	80.010	19.994	103.214	20.142	2.552	0.504
990.000	571.640	80.010	19.994	103.211	20.141	2.590	0.491
992.000	572.602	80.010	19.994	103.210	20.144	2.419	0.482
994.000	573.595	80.011	19.995	103.209	20.146	2.265	0.496
996.000	574.596	80.008	19.994	103.213	20.145	2.342	0.502
998.000	575.567	80.010	19.994	103.212	20.144	2.393	0.472
1000.000	576.559	80.010	19.994	103.218	20.138	2.800	0.505
1002.000	577.528	80.009	19.993	103.210	20.143	2.482	0.504
1004.000	578.494	80.008	19.994	103.213	20.140	2.677	0.478
1006.000	579.472	80.009	19.994	103.219	20.143	2.461	0.497
1008.000	580.447	80.009	19.994	103.216	20.147	2.225	0.496
1010.000	581.473	80.009	19.994	103.216	20.142	2.514	0.520
1012.000	582.535	80.010	19.993	103.239	20.141	2.581	0.537
1014.000	583.509	80.010	19.994	103.214	20.141	2.635	0.494
1016.000	584.576	80.009	19.993	103.227	20.144	2.407	0.534
1018.000	585.655	80.010	19.993	103.224	20.139	2.775	0.553
1020.000	586.675	80.008	19.994	103.220	20.142	2.546	0.521
1022.000	587.762	80.010	19.994	103.241	20.140	2.697	0.540
1024.000	588.849	80.011	19.994	103.233	20.143	2.471	0.533
1026.000	589.937	80.009	19.994	103.233	20.143	2.456	0.545
1028.000	591.030	80.010	19.994	103.227	20.143	2.482	0.540
1030.001	592.152	80.011	19.995	103.215	20.142	2.550	0.545
1032.000	593.261	80.010	19.994	103.217	20.141	2.631	0.551
1034.000	594.397	80.010	19.994	103.225	20.140	2.694	0.541
1036.000	595.524	80.010	19.994	103.224	20.141	2.593	0.572
1038.000	596.656	80.011	19.994	103.213	20.138	2.784	0.545
1040.001	597.786	80.010	19.995	103.209	20.140	2.669	0.565
1042.001	598.914	80.012	19.994	103.213	20.138	2.817	0.576
1044.000	599.989	80.011	19.994	103.221	20.141	2.575	0.552
1046.000	601.101	80.011	19.994	103.220	20.140	2.662	0.543
1048.000	602.232	80.011	19.994	103.208	20.140	2.647	0.519
1050.000	603.362	80.011	19.994	103.211	20.140	2.660	0.566
1052.001	604.460	80.010	19.995	103.213	20.143	2.503	0.543
1054.001	605.528	80.008	19.995	103.216	20.143	2.448	0.536
1056.000	606.649	80.008	19.995	103.225	20.144	2.419	0.533
1058.000	607.749	80.008	19.996	103.230	20.147	2.210	0.525
1060.001	608.836	80.007	19.995	103.221	20.144	2.382	0.526
1062.000	609.923	80.007	19.995	103.213	20.147	2.160	0.555
1064.000	611.052	80.006	19.994	103.222	20.143	2.457	0.534
1066.000	612.107	80.009	19.994	103.214	20.144	2.419	0.554
1068.000	613.197	80.008	19.995	103.209	20.149	2.059	0.516
1070.000	614.300	80.008	19.994	103.209	20.147	2.168	0.537
1072.001	615.409	80.009	19.995	103.211	20.147	2.202	0.569
1074.000	616.484	80.010	19.994	103.214	20.146	2.249	0.540
1076.000	617.528	80.008	19.993	103.210	20.147	2.221	0.515
1078.000	618.603	80.009	19.994	103.211	20.148	2.100	0.527
1080.000	619.659	80.009	19.994	103.214	20.149	2.068	0.529
1082.000	620.726	80.009	19.994	103.218	20.146	2.257	0.520
1084.001	621.789	80.008	19.994	103.211	20.147	2.225	0.531
1086.001	622.841	80.009	19.994	103.212	20.149	2.076	0.531
1088.000	623.966	80.007	19.995	103.216	20.148	2.128	0.577
1090.000	624.987	80.008	19.995	103.215	20.150	2.021	0.563
1092.001	626.031	80.008	19.995	103.212	20.147	2.170	0.543
1094.001	627.040	80.007	19.994	103.209	20.147	2.172	0.506
1096.001	628.089	80.009	19.994	103.216	20.149	2.047	0.533
1098.000	629.101	80.010	19.994	103.216	20.153	1.765	0.512
1100.001	630.132	80.010	19.994	103.208	20.151	1.936	0.502
1102.001	631.178	80.010	19.994	103.207	20.150	1.971	0.514
1104.000	632.191	80.011	19.993	103.207	20.154	1.739	0.520
1106.000	633.260	80.011	19.994	103.215	20.153	1.807	0.522
1108.000	634.235	80.009	19.993	103.219	20.151	1.890	0.484
1110.000	635.305	80.010	19.994	103.207	20.152	1.843	0.529
1112.000	636.338	80.009	19.994	103.209	20.151	1.917	0.527
1114.000	637.309	80.011	19.994	103.205	20.150	1.962	0.463
1116.000	638.366	80.011	19.995	103.207	20.149	2.087	0.508
1118.001	639.369	80.011	19.994	103.209	20.153	1.775	0.514
1120.000	640.376	80.009	19.994	103.209	20.154	1.737	0.482
1122.001	641.367	80.009	19.993	103.205	20.154	1.743	0.492
1124.000	642.374	80.011	19.994	103.206	20.150	2.002	0.475
1126.000	643.444	80.013	19.995	103.205	20.152	1.832	0.528
1128.000	644.387	80.012	19.995	103.211	20.152	1.828	0.486
1130.001	645.371	80.012	19.994	103.211	20.150	2.000	0.496
1132.001	646.393	80.010	19.995	103.210	20.152	1.843	0.501
1134.000	647.401	80.010	19.994	103.206	20.154	1.722	0.479
1136.000	648.423	80.008	19.994	103.206	20.152	1.820	0.506
1138.001	649.406	80.008	19.994	103.205	20.151	1.943	0.503
1140.000	650.407	80.009	19.995	103.206	20.152	1.830	0.532
1142.000	651.443	80.008	19.994	103.203	20.155	1.646	0.534
1144.001	652.396	80.007	19.994	103.208	20.152	1.830	0.487
1146.001	653.405	80.007	19.994	103.202	20.154	1.722	0.500
1148.000	654.411	80.006	19.995	103.201	20.154	1.701	0.505
1150.000	655.424	80.007	19.995	103.213	20.155	1.663	0.483
1152.000	656.450	80.006	19.995	103.205	20.157	1.480	0.500
1154.000	657.418	80.007	19.996	103.208	20.155	1.648	0.521
1156.001	658.427	80.010	19.995	103.207	20.153	1.812	0.512
1158.000	659.385	80.009	19.995	103.208	20.155	1.612	0.473
1160.000	660.411	80.008	19.995	103.208	20.157	1.525	0.502
1162.001	661.426	80.009	19.994	103.202	20.155	1.620	0.516
1164.001	662.427	80.008	19.995	103.206	20.159	1.397	0.488
1166.000	663.410	80.008	19.995	103.204	20.155	1.665	0.545
1168.000	664.411	80.007	19.994	103.195	20.156	1.573	0.465
1170.000	665.427	80.008	19.995	103.203	20.155	1.635	0.495
1172.001	666.416	80.009	19.994	103.191	20.155	1.639	0.517
1174.000	667.405	80.007	19.995	103.187	20.157	1.529	0.508
1176.000	668.389	80.008	19.995	103.201	20.155	1.652	0.472
1178.000	669.434	80.009	19.995	103.205	20.156	1.557	0.502
1180.001	670.475	80.010	19.995	103.204	20.160	1.321	0.497
1182.001	671.468	80.010	19.994	103.199	20.162	1.138	0.538
1184.001	672.485	80.009	19.994	103.201	20.158	1.431	0.504
1186.000	673.502	80.010	19.994	103.201	20.158	1.408	0.537
1188.001	674.533	80.010	19.995	103.204	20.161	1.259	0.494
1190.000	675.579	80.010	19.994	103.201	20.160	1.285	0.531
1192.001	676.646	80.008	19.994	103.198	20.158	1.464	0.535
1194.000	677.596	80.009	19.994	103.205	20.159	1.361	0.483
1196.000	678.648	80.007	19.994	103.201	20.161	1.225	0.511
1198.000	679.638	80.008	19.994	103.194	20.157	1.478	0.511
1200.001	680.601	80.009	19.994	103.206	20.159	1.359	0.492
1202.001	681.667	80.010	19.993	103.192	20.161	1.240	0.513
1204.000	682.654	80.010	19.994	103.184	20.165	0.981	0.506
1206.000	683.642	80.009	19.994	103.194	20.161	1.194	0.485
1208.000	684.644	80.012	19.993	103.200	20.161	1.244	0.515
1210.000	685.625	80.010	19.993	103.196	20.160	1.323	0.502
1212.000	686.657	80.009	19.994	103.199	20.159	1.365	0.515
1214.000	687.619	80.010	19.994	103.204	20.162	1.124	0.471
1216.000	688.631	80.011	19.994	103.190	20.162	1.151	0.478
1218.000	689.642	80.007	19.995	103.193	20.162	1.124	0.539
1220.001	690.610	80.008	19.995	103.196	20.162	1.158	0.477
1222.001	691.612	80.008	19.994	103.203	20.162	1.160	0.498
1224.000	692.597	80.008	19.995	103.202	20.165	0.966	0.499
1226.000	693.624	80.006	19.995	103.186	20.163	1.087	0.508
1228.001	694.639	80.007	19.994	103.186	20.163	1.064	0.519
1230.000	695.665	80.009	19.994	103.196	20.161	1.247	0.530
1232.000	696.639	80.008	19.994	103.189	20.161	1.215	0.488
1234.000	697.634	80.007	19.994	103.180	20.159	1.385	0.521
1236.001	698.605	80.008	19.994	103.186	20.162	1.179	0.481
1238.000	699.613	80.009	19.994	103.186	20.163	1.064	0.485
1240.000	700.593	80.009	19.995	103.180	20.163	1.066	0.473
1242.000	701.573	80.009	19.995	103.173	20.167	0.799	0.522
1244.000	702.506	80.008	19.996	103.184	20.169	0.707	0.488
1246.001	703.468	80.007	19.996	103.181	20.168	0.778	0.450
1248.000	704.427	80.009	19.996	103.182	20.166	0.848	0.466
1250.000	705.451	80.007	19.995	103.167	20.166	0.852	0.486
1252.001	706.414	80.006	19.995	103.172	20.168	0.750	0.494
1254.000	707.373	80.008	19.995	103.170	20.165	0.926	0.514
1256.000	708.338	80.007	19.994	103.177	20.165	0.945	0.509
1258.000	709.319	80.008	19.995	103.175	20.165	0.918	0.500
1260.001	710.327	80.009	19.993	103.186	20.167	0.794	0.501
1262.001	711.301	80.008	19.994	103.188	20.168	0.722	0.512
1264.000	712.269	80.008	19.994	103.192	20.167	0.803	0.509
1266.000	713.246	80.010	19.994	103.173	20.170	0.605	0.469
1268.000	714.212	80.010	19.993	103.177	20.166	0.852	0.459
1270.000	715.242	80.009	19.993	103.181	20.167	0.837	0.501
1272.001	716.230	80.009	19.993	103.176	20.166	0.907	0.504
1274.000	717.230	80.009	19.994	103.182	20.167	0.845	0.497
1276.000	718.228	80.008	19.994	103.192	20.167	0.796	0.483
1278.001	719.247	80.008	19.993	103.186	20.167	0.809	0.507
1280.000	720.266	80.008	19.994	103.190	20.165	0.920	0.513
1282.001	721.261	80.008	19.994	103.176	20.166	0.882	0.498
1284.000	722.262	80.009	19.994	103.181	20.169	0.667	0.484
1286.000	723.281	80.010	19.994	103.184	20.168	0.724	0.499
1288.000	724.298	80.011	19.994	103.191	20.170	0.637	0.524
1290.000	725.262	80.010	19.994	103.182	20.168	0.712	0.489
1292.000	726.310	80.011	19.994	103.180	20.172	0.444	0.537
1294.000	727.265	80.010	19.993	103.173	20.170	0.637	0.512
1296.001	728.308	80.011	19.995	103.172	20.170	0.599	0.517
1298.001	729.346	80.010	19.994	103.181	20.170	0.614	0.519
1300.000	730.339	80.009	19.993	103.180	20.171	0.554	0.522
1302.000	731.307	80.009	19.994	103.183	20.171	0.506	0.511
1304.000	732.349	80.009	19.995	103.191	20.169	0.707	0.546
1306.000	733.326	80.008	19.995	103.180	20.171	0.567	0.502
1308.000	734.324	80.009	19.993	103.177	20.168	0.716	0.511
1310.000	735.317	80.007	19.995	103.179	20.172	0.480	0.480
1312.001	736.325	80.008	19.994	103.173	20.172	0.465	0.516
1314.000	737.339	80.009	19.995	103.180	20.173	0.433	0.494
1316.000	738.361	80.008	19.994	103.176	20.174	0.302	0.498
1318.002	739.379	80.009	19.994	103.168	20.174	0.338	0.515
1320.000	740.372	80.008	19.995	103.171	20.173	0.402	0.489
1322.000	741.359	80.008	19.994	103.166	20.176	0.164	0.503
1324.001	742.388	80.008	19.995	103.171	20.175	0.253	0.495
1326.000	743.362	80.007	19.994	103.176	20.174	0.340	0.514
1326.500	743.622	80.009	19.995	103.181	20.174	0.300	0.499