File: 01_Data/Face_Shield/MCC/Face_Shield_MCC_30K_min_220207_R2.txt
Sample ID:	C:\MCC\MCC Cal\Test\Shield_MCC_30K_min_220207_R2.txt
Sample Weight (mg):	4.72
Heating Rate (C/s):	0.5
Combustor Temp (C):	900
N2 Flow Rate (cc/min):	80
O2 Flow Rate (cc/min):	20
Calibration File:	C:\MCC\MCC Cal\Coeff1 JN10440_30_210304.txt.txt
T Correction Coefficients:	0	1.024463	0
Time Shift (s):	14
*
Time (s)	Temperature (C)	N2 flow rate (cc/min)	O2 flow rate (cc/min)	Flow Rate (cc/min)	Oxygen (%)	HRR (W/g)	Heating rate (C/s)
0.000	112.043	80.006	19.994	103.713	19.991	0.265	0.019
2.000	112.052	80.006	19.994	103.711	19.991	0.222	-0.011
4.000	112.038	80.005	19.995	103.709	19.988	0.419	-0.021
6.000	112.030	80.005	19.995	103.709	19.992	0.181	-0.018
8.000	111.978	80.006	19.993	103.712	19.988	0.448	-0.035
10.000	111.998	80.007	19.993	103.711	19.987	0.503	-0.013
12.000	112.012	80.006	19.994	103.733	19.988	0.465	0.006
14.000	112.041	80.006	19.993	103.748	19.986	0.578	-0.001
16.000	112.025	80.005	19.993	103.760	19.985	0.685	-0.012
18.000	112.074	80.008	19.993	103.790	19.982	0.845	0.005
20.000	112.122	80.006	19.994	103.820	19.975	1.372	0.045
22.000	112.240	80.006	19.993	103.845	19.975	1.367	0.071
24.000	112.341	80.006	19.994	103.853	19.966	1.971	0.060
26.000	112.515	80.004	19.993	103.846	19.970	1.685	0.081
28.000	112.656	80.003	19.995	103.846	19.966	1.946	0.076
30.000	112.800	80.006	19.995	103.847	19.966	1.998	0.053
32.000	113.054	80.005	19.996	103.836	19.966	1.998	0.137
34.000	113.267	80.006	19.994	103.862	19.964	2.114	0.088
36.000	113.478	80.005	19.994	103.868	19.963	2.179	0.128
38.000	113.752	80.004	19.995	103.893	19.957	2.549	0.159
40.000	114.005	80.005	19.995	103.906	19.952	2.954	0.127
42.000	114.327	80.005	19.995	103.910	19.955	2.751	0.161
44.000	114.680	80.008	19.994	103.923	19.952	2.930	0.186
46.000	115.065	80.008	19.993	103.933	19.951	3.022	0.196
48.000	115.451	80.008	19.993	103.920	19.948	3.211	0.193
50.001	115.871	80.005	19.993	103.941	19.948	3.171	0.205
52.000	116.290	80.006	19.994	103.946	19.945	3.439	0.217
54.000	116.684	80.003	19.994	103.944	19.942	3.583	0.205
56.000	117.197	80.005	19.994	103.948	19.943	3.577	0.255
58.000	117.756	80.005	19.994	103.944	19.942	3.583	0.281
60.000	118.277	80.005	19.993	103.949	19.941	3.691	0.271
62.000	118.806	80.007	19.994	103.946	19.937	3.931	0.277
64.000	119.407	80.005	19.994	103.965	19.938	3.878	0.296
66.000	119.960	80.006	19.994	103.967	19.938	3.891	0.299
68.000	120.595	80.005	19.995	103.966	19.936	4.050	0.309
70.000	121.221	80.005	19.994	103.967	19.936	4.027	0.302
72.000	121.885	80.007	19.994	103.958	19.932	4.292	0.322
74.000	122.590	80.006	19.993	103.966	19.934	4.197	0.364
76.000	123.272	80.007	19.992	103.955	19.933	4.214	0.370
78.001	123.995	80.005	19.993	103.975	19.931	4.342	0.377
80.001	124.659	80.006	19.994	103.958	19.934	4.174	0.355
82.000	125.422	80.006	19.995	103.969	19.933	4.249	0.365
84.000	126.204	80.006	19.993	103.982	19.935	4.067	0.404
86.000	126.953	80.005	19.993	103.976	19.936	4.026	0.368
88.000	127.738	80.005	19.993	103.974	19.935	4.086	0.403
90.001	128.521	80.005	19.993	103.960	19.933	4.227	0.403
92.000	129.303	80.005	19.993	103.968	19.931	4.357	0.413
94.000	130.168	80.006	19.993	103.963	19.936	4.014	0.416
96.001	130.984	80.005	19.993	103.980	19.937	3.954	0.430
98.001	131.781	80.007	19.993	103.967	19.936	4.033	0.406
100.001	132.639	80.007	19.994	103.961	19.937	3.982	0.433
102.000	133.488	80.005	19.993	103.956	19.936	4.057	0.446
104.001	134.354	80.005	19.995	103.971	19.934	4.185	0.408
106.000	135.254	80.007	19.996	103.986	19.933	4.240	0.464
108.000	136.104	80.005	19.994	103.974	19.933	4.229	0.453
110.001	137.031	80.005	19.993	103.983	19.938	3.863	0.461
112.001	137.956	80.006	19.993	103.970	19.932	4.298	0.473
114.000	138.811	80.006	19.994	103.961	19.936	4.025	0.456
116.000	139.716	80.006	19.994	103.969	19.934	4.172	0.448
118.000	140.643	80.005	19.993	103.963	19.935	4.082	0.486
120.000	141.544	80.007	19.993	103.953	19.935	4.092	0.459
122.001	142.510	80.008	19.994	103.953	19.934	4.196	0.512
124.000	143.493	80.006	19.994	103.975	19.934	4.197	0.512
126.000	144.382	80.007	19.994	103.954	19.934	4.174	0.455
128.000	145.339	80.006	19.994	103.957	19.934	4.144	0.469
130.000	146.270	80.006	19.993	103.957	19.930	4.468	0.514
132.000	147.210	80.006	19.994	103.948	19.934	4.198	0.475
134.000	148.188	80.007	19.994	103.967	19.934	4.153	0.483
136.000	149.110	80.006	19.995	103.959	19.934	4.168	0.484
138.000	150.106	80.005	19.994	103.953	19.934	4.179	0.502
140.000	151.075	80.005	19.994	103.960	19.937	3.974	0.488
142.000	152.030	80.006	19.993	103.962	19.937	3.968	0.464
144.000	152.974	80.006	19.992	103.956	19.935	4.083	0.467
146.000	153.987	80.006	19.994	103.950	19.936	4.055	0.494
148.000	154.924	80.005	19.994	103.961	19.934	4.151	0.469
150.000	155.937	80.005	19.992	103.956	19.933	4.226	0.485
152.000	156.896	80.004	19.993	103.951	19.935	4.093	0.501
154.000	157.936	80.005	19.993	103.948	19.933	4.222	0.505
156.000	158.913	80.006	19.993	103.949	19.931	4.345	0.516
158.000	159.904	80.006	19.993	103.950	19.934	4.130	0.500
160.000	160.895	80.004	19.993	103.951	19.932	4.317	0.496
162.000	161.874	80.005	19.993	103.952	19.931	4.366	0.490
164.000	162.854	80.006	19.995	103.952	19.930	4.456	0.489
166.000	163.865	80.005	19.994	103.952	19.931	4.394	0.492
168.000	164.871	80.003	19.993	103.950	19.927	4.620	0.474
170.000	165.892	80.005	19.993	103.951	19.928	4.558	0.501
172.000	166.889	80.003	19.992	103.951	19.932	4.298	0.487
174.000	167.843	80.003	19.994	103.952	19.931	4.394	0.459
176.000	168.851	80.004	19.994	103.952	19.931	4.381	0.500
178.000	169.852	80.005	19.992	103.948	19.931	4.380	0.513
180.000	170.846	80.007	19.993	103.948	19.934	4.175	0.485
182.000	171.877	80.007	19.993	103.945	19.934	4.184	0.517
184.000	172.888	80.007	19.992	103.942	19.932	4.290	0.539
186.000	173.860	80.008	19.993	103.943	19.935	4.111	0.512
188.000	174.899	80.006	19.993	103.945	19.932	4.309	0.496
190.000	175.883	80.007	19.994	103.937	19.936	4.028	0.468
192.000	176.870	80.007	19.994	103.943	19.935	4.097	0.494
194.000	177.932	80.006	19.994	103.936	19.939	3.815	0.509
196.000	178.901	80.006	19.995	103.940	19.936	4.041	0.504
198.000	179.892	80.005	19.994	103.943	19.937	3.962	0.492
200.000	180.874	80.007	19.995	103.941	19.938	3.888	0.495
202.000	181.865	80.007	19.995	103.932	19.939	3.850	0.463
204.000	182.911	80.007	19.994	103.929	19.938	3.912	0.516
206.000	183.893	80.007	19.994	103.933	19.937	3.961	0.515
208.000	184.939	80.006	19.993	103.930	19.938	3.890	0.498
210.000	185.905	80.007	19.993	103.922	19.937	3.951	0.506
212.000	186.926	80.008	19.992	103.920	19.938	3.858	0.513
214.000	187.914	80.008	19.993	103.920	19.934	4.163	0.484
216.000	188.894	80.007	19.993	103.924	19.936	4.014	0.478
218.000	189.908	80.005	19.994	103.923	19.939	3.800	0.511
220.000	190.872	80.004	19.993	103.937	19.940	3.781	0.468
222.000	191.871	80.004	19.995	103.934	19.939	3.833	0.513
224.000	192.871	80.003	19.995	103.921	19.938	3.907	0.518
226.000	193.823	80.004	19.996	103.931	19.939	3.823	0.499
228.000	194.772	80.003	19.995	103.933	19.941	3.694	0.475
230.000	195.767	80.004	19.995	103.927	19.938	3.920	0.461
232.000	196.737	80.004	19.994	103.917	19.940	3.765	0.515
234.000	197.721	80.005	19.995	103.927	19.935	4.076	0.500
236.000	198.766	80.006	19.993	103.917	19.940	3.729	0.500
238.000	199.765	80.005	19.993	103.916	19.939	3.808	0.507
240.000	200.679	80.004	19.994	103.916	19.936	4.048	0.499
242.000	201.704	80.005	19.992	103.919	19.935	4.110	0.503
244.000	202.699	80.005	19.994	103.912	19.936	4.046	0.513
246.000	203.688	80.006	19.993	103.913	19.934	4.151	0.498
248.000	204.633	80.005	19.993	103.910	19.935	4.108	0.509
250.000	205.634	80.004	19.993	103.913	19.935	4.063	0.473
252.000	206.678	80.005	19.994	103.914	19.935	4.127	0.530
254.000	207.653	80.005	19.994	103.913	19.937	3.944	0.482
256.000	208.603	80.005	19.993	103.910	19.937	3.931	0.446
258.000	209.614	80.006	19.994	103.907	19.935	4.119	0.528
260.000	210.614	80.007	19.992	103.910	19.936	4.059	0.493
262.000	211.611	80.008	19.993	103.906	19.936	3.998	0.513
264.000	212.599	80.009	19.994	103.906	19.937	3.957	0.486
266.000	213.615	80.006	19.995	103.906	19.937	3.987	0.477
268.000	214.583	80.008	19.993	103.912	19.931	4.349	0.494
270.000	215.571	80.008	19.993	103.906	19.937	3.959	0.475
272.000	216.560	80.007	19.994	103.907	19.937	3.980	0.510
274.000	217.562	80.008	19.993	103.905	19.937	3.959	0.481
276.000	218.565	80.007	19.992	103.906	19.932	4.289	0.514
278.000	219.558	80.006	19.993	103.906	19.933	4.240	0.497
280.000	220.552	80.007	19.994	103.908	19.936	4.019	0.481
282.000	221.533	80.006	19.992	103.910	19.934	4.147	0.515
284.000	222.532	80.008	19.993	103.908	19.935	4.113	0.510
286.000	223.557	80.008	19.994	103.910	19.934	4.155	0.504
288.000	224.543	80.008	19.993	103.910	19.934	4.177	0.498
290.000	225.557	80.008	19.993	103.909	19.935	4.113	0.528
292.000	226.546	80.008	19.994	103.908	19.938	3.882	0.486
294.000	227.567	80.009	19.993	103.910	19.934	4.149	0.528
296.000	228.572	80.008	19.993	103.907	19.932	4.296	0.535
298.000	229.560	80.008	19.993	103.906	19.936	4.057	0.492
300.001	230.611	80.007	19.993	103.907	19.936	4.042	0.522
302.000	231.577	80.005	19.993	103.908	19.938	3.863	0.467
304.000	232.566	80.004	19.995	103.909	19.939	3.814	0.465
306.001	233.604	80.005	19.994	103.909	19.940	3.727	0.484
308.000	234.624	80.006	19.993	103.908	19.939	3.847	0.506
310.000	235.581	80.005	19.994	103.906	19.937	3.964	0.469
312.000	236.575	80.007	19.993	103.905	19.938	3.859	0.484
314.000	237.608	80.007	19.994	103.902	19.937	3.936	0.482
316.000	238.620	80.007	19.994	103.903	19.936	4.043	0.498
318.000	239.628	80.007	19.993	103.901	19.936	4.032	0.509
320.000	240.562	80.006	19.993	103.898	19.936	4.030	0.460
322.000	241.587	80.006	19.994	103.900	19.938	3.911	0.506
324.000	242.560	80.006	19.994	103.901	19.935	4.085	0.506
326.000	243.583	80.007	19.996	103.897	19.936	4.004	0.513
328.000	244.562	80.007	19.994	103.900	19.936	4.030	0.466
330.000	245.504	80.007	19.993	103.902	19.933	4.221	0.492
332.000	246.539	80.006	19.994	103.893	19.935	4.089	0.510
334.000	247.514	80.007	19.994	103.902	19.935	4.098	0.504
336.000	248.545	80.005	19.992	103.901	19.934	4.171	0.529
338.000	249.529	80.006	19.993	103.900	19.934	4.132	0.500
340.000	250.556	80.006	19.993	103.901	19.936	4.051	0.492
342.000	251.525	80.006	19.992	103.904	19.935	4.087	0.482
344.000	252.525	80.006	19.993	103.899	19.941	3.712	0.480
346.000	253.532	80.008	19.993	103.901	19.937	3.932	0.464
348.000	254.534	80.008	19.993	103.889	19.938	3.921	0.479
350.000	255.494	80.007	19.994	103.897	19.937	3.981	0.491
352.000	256.528	80.007	19.992	103.897	19.937	3.937	0.501
354.000	257.525	80.008	19.993	103.903	19.938	3.868	0.475
356.000	258.528	80.007	19.994	103.895	19.935	4.069	0.516
358.000	259.518	80.006	19.993	103.896	19.933	4.258	0.537
360.000	260.474	80.006	19.992	103.900	19.936	3.991	0.468
362.000	261.456	80.007	19.994	103.882	19.935	4.069	0.450
364.000	262.435	80.008	19.993	103.892	19.936	4.024	0.478
366.000	263.430	80.007	19.993	103.898	19.934	4.152	0.505
368.000	264.393	80.006	19.992	103.883	19.936	4.048	0.492
370.000	265.371	80.007	19.993	103.903	19.937	3.964	0.486
372.000	266.340	80.008	19.992	103.891	19.937	3.969	0.473
374.000	267.349	80.008	19.992	103.886	19.937	3.987	0.496
376.000	268.340	80.009	19.993	103.892	19.933	4.235	0.487
378.000	269.321	80.010	19.993	103.886	19.934	4.128	0.489
380.000	270.317	80.008	19.993	103.881	19.934	4.156	0.516
382.000	271.312	80.008	19.992	103.877	19.935	4.105	0.490
384.000	272.318	80.007	19.994	103.893	19.935	4.064	0.476
386.000	273.308	80.006	19.994	103.889	19.932	4.321	0.497
388.000	274.277	80.006	19.994	103.899	19.937	3.976	0.491
390.000	275.233	80.005	19.992	103.886	19.934	4.178	0.453
392.000	276.254	80.008	19.992	103.881	19.938	3.866	0.498
394.000	277.270	80.007	19.994	103.900	19.937	3.971	0.503
396.000	278.266	80.006	19.995	103.879	19.935	4.075	0.500
398.000	279.252	80.005	19.994	103.871	19.930	4.433	0.513
400.000	280.264	80.006	19.993	103.875	19.934	4.150	0.514
402.000	281.254	80.006	19.993	103.885	19.935	4.107	0.507
404.000	282.257	80.008	19.995	103.887	19.935	4.109	0.507
406.000	283.290	80.007	19.995	103.879	19.935	4.060	0.502
408.000	284.255	80.005	19.994	103.887	19.936	4.030	0.501
410.000	285.261	80.005	19.994	103.882	19.933	4.231	0.511
412.000	286.233	80.005	19.994	103.882	19.934	4.186	0.497
414.000	287.217	80.005	19.995	103.884	19.934	4.146	0.497
416.000	288.223	80.006	19.994	103.884	19.934	4.167	0.501
418.000	289.205	80.005	19.996	103.891	19.934	4.153	0.512
420.000	290.192	80.004	19.994	103.875	19.936	4.013	0.495
422.000	291.226	80.005	19.994	103.879	19.934	4.168	0.519
424.000	292.216	80.006	19.994	103.875	19.932	4.306	0.485
426.001	293.207	80.006	19.993	103.873	19.933	4.212	0.469
428.000	294.160	80.006	19.993	103.872	19.935	4.103	0.492
430.000	295.166	80.008	19.993	103.878	19.932	4.319	0.506
432.001	296.131	80.006	19.993	103.882	19.933	4.202	0.471
434.000	297.138	80.007	19.992	103.872	19.935	4.117	0.487
436.000	298.085	80.006	19.993	103.871	19.933	4.238	0.496
438.000	299.077	80.007	19.993	103.872	19.935	4.101	0.501
440.000	300.057	80.008	19.992	103.871	19.936	4.001	0.490
442.000	301.046	80.008	19.993	103.873	19.933	4.233	0.509
444.000	302.009	80.007	19.993	103.869	19.933	4.225	0.475
446.000	302.984	80.007	19.995	103.867	19.933	4.199	0.503
448.000	303.986	80.007	19.994	103.871	19.929	4.519	0.517
450.001	304.939	80.008	19.994	103.890	19.932	4.323	0.481
452.000	305.961	80.008	19.992	103.882	19.932	4.310	0.520
454.000	307.011	80.007	19.995	103.887	19.933	4.228	0.499
456.000	307.935	80.007	19.993	103.868	19.931	4.338	0.478
458.000	308.977	80.008	19.993	103.877	19.930	4.451	0.497
460.000	309.971	80.008	19.992	103.884	19.932	4.329	0.515
462.000	310.986	80.009	19.993	103.868	19.929	4.474	0.487
464.000	311.998	80.009	19.993	103.878	19.927	4.662	0.521
466.000	313.041	80.008	19.994	103.893	19.926	4.721	0.506
468.000	314.094	80.006	19.993	103.874	19.927	4.670	0.528
470.000	315.111	80.006	19.992	103.882	19.926	4.707	0.524
472.000	316.145	80.006	19.992	103.889	19.929	4.511	0.541
474.000	317.180	80.005	19.993	103.886	19.926	4.683	0.497
476.000	318.252	80.007	19.993	103.881	19.926	4.693	0.538
478.000	319.285	80.005	19.994	103.889	19.927	4.636	0.513
480.000	320.296	80.006	19.994	103.880	19.929	4.488	0.522
482.000	321.365	80.006	19.994	103.876	19.927	4.641	0.518
484.001	322.434	80.006	19.994	103.876	19.926	4.743	0.516
486.000	323.499	80.007	19.994	103.892	19.927	4.650	0.526
488.000	324.549	80.006	19.995	103.878	19.927	4.654	0.499
490.000	325.613	80.007	19.994	103.880	19.930	4.417	0.538
492.000	326.696	80.006	19.993	103.868	19.930	4.457	0.543
494.000	327.759	80.006	19.993	103.872	19.928	4.560	0.506
496.000	328.782	80.006	19.993	103.875	19.928	4.562	0.497
498.000	329.912	80.006	19.993	103.870	19.931	4.391	0.533
500.000	330.940	80.006	19.994	103.870	19.931	4.372	0.521
502.000	332.000	80.006	19.994	103.869	19.930	4.451	0.511
504.000	333.077	80.007	19.993	103.872	19.929	4.511	0.512
506.000	334.148	80.006	19.994	103.869	19.931	4.396	0.519
508.000	335.233	80.006	19.994	103.868	19.928	4.543	0.540
510.000	336.298	80.006	19.994	103.869	19.928	4.554	0.542
512.000	337.336	80.006	19.995	103.869	19.927	4.637	0.523
514.000	338.456	80.006	19.995	103.869	19.927	4.658	0.560
516.000	339.466	80.007	19.995	103.870	19.927	4.660	0.545
518.000	340.521	80.008	19.994	103.866	19.931	4.366	0.539
520.000	341.540	80.007	19.994	103.869	19.930	4.436	0.544
522.000	342.575	80.008	19.993	103.867	19.930	4.456	0.498
524.000	343.590	80.008	19.995	103.866	19.932	4.302	0.540
526.000	344.596	80.007	19.994	103.871	19.928	4.539	0.502
528.000	345.650	80.008	19.993	103.866	19.929	4.515	0.512
530.000	346.719	80.008	19.993	103.866	19.929	4.488	0.545
532.000	347.733	80.008	19.994	103.864	19.930	4.405	0.531
534.000	348.736	80.008	19.994	103.866	19.929	4.518	0.512
536.000	349.822	80.008	19.993	103.870	19.929	4.526	0.533
538.000	350.871	80.008	19.993	103.863	19.926	4.703	0.547
540.000	351.854	80.010	19.992	103.864	19.927	4.609	0.504
542.000	352.879	80.009	19.992	103.866	19.926	4.690	0.469
544.001	353.919	80.007	19.992	103.866	19.926	4.735	0.487
546.000	354.982	80.008	19.994	103.867	19.925	4.748	0.500
548.000	355.997	80.007	19.992	103.867	19.924	4.839	0.526
550.000	357.013	80.007	19.992	103.865	19.924	4.822	0.506
552.000	358.039	80.007	19.994	103.863	19.925	4.769	0.526
554.000	359.076	80.008	19.993	103.868	19.927	4.609	0.518
556.000	360.137	80.007	19.993	103.867	19.925	4.769	0.523
558.000	361.110	80.007	19.993	103.869	19.926	4.742	0.507
560.000	362.135	80.006	19.993	103.871	19.926	4.716	0.506
562.000	363.122	80.006	19.993	103.870	19.929	4.511	0.466
564.000	364.215	80.005	19.992	103.871	19.930	4.418	0.540
566.000	365.232	80.006	19.993	103.869	19.927	4.672	0.511
568.000	366.279	80.007	19.992	103.868	19.929	4.469	0.531
570.000	367.297	80.007	19.994	103.865	19.925	4.809	0.503
572.000	368.342	80.005	19.994	103.866	19.923	4.896	0.492
574.000	369.413	80.006	19.994	103.858	19.925	4.785	0.518
576.000	370.404	80.006	19.994	103.850	19.924	4.843	0.504
578.000	371.424	80.007	19.993	103.857	19.928	4.584	0.498
580.000	372.451	80.006	19.994	103.845	19.927	4.653	0.517
582.000	373.512	80.007	19.994	103.854	19.924	4.843	0.522
584.000	374.511	80.005	19.995	103.853	19.926	4.734	0.521
586.000	375.538	80.005	19.995	103.854	19.925	4.744	0.501
588.000	376.555	80.006	19.993	103.846	19.924	4.821	0.510
590.000	377.570	80.005	19.993	103.854	19.928	4.595	0.482
592.000	378.570	80.005	19.993	103.855	19.925	4.751	0.481
594.000	379.622	80.006	19.994	103.847	19.927	4.671	0.507
596.000	380.636	80.006	19.993	103.852	19.919	5.167	0.514
598.000	381.662	80.008	19.994	103.854	19.922	4.957	0.517
600.000	382.653	80.009	19.994	103.847	19.923	4.919	0.468
602.000	383.705	80.007	19.994	103.851	19.924	4.843	0.513
604.000	384.683	80.005	19.994	103.840	19.924	4.834	0.512
606.000	385.694	80.005	19.994	103.835	19.924	4.855	0.495
608.000	386.722	80.005	19.995	103.854	19.928	4.570	0.515
610.000	387.677	80.005	19.994	103.854	19.922	4.962	0.508
612.000	388.677	80.007	19.995	103.839	19.924	4.873	0.492
614.000	389.692	80.005	19.995	103.838	19.923	4.928	0.509
616.000	390.660	80.006	19.994	103.850	19.922	4.955	0.481
618.000	391.687	80.007	19.993	103.855	19.921	5.050	0.511
620.000	392.698	80.009	19.994	103.845	19.922	4.981	0.513
622.000	393.735	80.008	19.994	103.854	19.920	5.120	0.503
624.000	394.728	80.009	19.992	103.842	19.919	5.187	0.479
626.000	395.726	80.009	19.993	103.850	19.918	5.245	0.520
628.000	396.729	80.007	19.993	103.848	19.920	5.097	0.504
630.000	397.737	80.006	19.993	103.849	19.918	5.261	0.489
632.000	398.724	80.007	19.992	103.851	19.919	5.212	0.495
634.000	399.683	80.007	19.993	103.839	19.920	5.102	0.471
636.000	400.685	80.006	19.993	103.830	19.920	5.151	0.475
638.000	401.690	80.006	19.992	103.837	19.919	5.212	0.492
640.000	402.689	80.006	19.994	103.834	19.919	5.216	0.519
642.000	403.701	80.005	19.994	103.851	19.918	5.226	0.503
644.000	404.680	80.006	19.994	103.839	19.919	5.214	0.495
646.000	405.686	80.006	19.993	103.837	19.917	5.353	0.474
648.000	406.711	80.007	19.993	103.832	19.920	5.110	0.520
650.000	407.712	80.006	19.993	103.837	19.919	5.161	0.514
652.000	408.688	80.007	19.992	103.843	19.915	5.493	0.472
654.000	409.711	80.007	19.994	103.849	19.915	5.477	0.498
656.000	410.716	80.008	19.993	103.832	19.914	5.519	0.495
658.000	411.747	80.007	19.993	103.834	19.918	5.257	0.494
660.000	412.729	80.007	19.993	103.848	19.918	5.291	0.490
662.000	413.709	80.006	19.994	103.852	19.914	5.556	0.497
664.000	414.702	80.006	19.994	103.845	19.916	5.419	0.478
666.000	415.677	80.005	19.992	103.834	19.912	5.690	0.464
668.000	416.672	80.005	19.993	103.851	19.915	5.464	0.516
670.000	417.697	80.005	19.995	103.840	19.913	5.570	0.489
672.000	418.709	80.006	19.995	103.844	19.914	5.553	0.519
674.000	419.693	80.005	19.995	103.833	19.916	5.411	0.498
676.000	420.654	80.006	19.994	103.850	19.913	5.572	0.478
678.000	421.659	80.005	19.995	103.846	19.910	5.820	0.474
680.000	422.718	80.007	19.994	103.851	19.910	5.775	0.500
682.000	423.727	80.007	19.994	103.841	19.909	5.858	0.498
684.000	424.710	80.008	19.993	103.844	19.907	6.034	0.507
686.000	425.751	80.008	19.994	103.843	19.911	5.753	0.509
688.000	426.763	80.007	19.993	103.842	19.907	5.995	0.496
690.000	427.754	80.008	19.993	103.844	19.909	5.865	0.463
692.000	428.798	80.006	19.994	103.845	19.906	6.067	0.512
694.000	429.793	80.006	19.993	103.851	19.904	6.219	0.501
696.000	430.802	80.006	19.994	103.865	19.905	6.184	0.528
698.000	431.803	80.006	19.995	103.842	19.902	6.323	0.524
700.000	432.817	80.007	19.994	103.839	19.901	6.393	0.517
702.000	433.864	80.008	19.995	103.844	19.903	6.283	0.514
704.000	434.886	80.009	19.995	103.837	19.899	6.584	0.503
706.000	435.851	80.008	19.995	103.848	19.899	6.588	0.499
708.000	436.904	80.008	19.995	103.843	19.895	6.803	0.515
710.000	437.912	80.008	19.994	103.847	19.894	6.878	0.500
712.000	438.884	80.008	19.994	103.852	19.894	6.935	0.506
714.000	439.916	80.008	19.994	103.847	19.893	6.949	0.527
716.000	440.905	80.008	19.993	103.841	19.888	7.340	0.468
718.000	441.930	80.006	19.993	103.849	19.887	7.355	0.532
720.000	442.915	80.005	19.994	103.848	19.888	7.312	0.522
722.000	443.889	80.006	19.994	103.847	19.882	7.700	0.482
724.000	444.933	80.006	19.993	103.861	19.880	7.838	0.486
726.000	445.966	80.006	19.993	103.858	19.877	8.071	0.516
728.000	446.937	80.006	19.994	103.866	19.875	8.218	0.479
730.001	447.934	80.006	19.994	103.860	19.870	8.579	0.498
732.000	448.954	80.006	19.994	103.864	19.866	8.802	0.497
734.000	450.024	80.006	19.994	103.859	19.858	9.361	0.515
736.000	450.973	80.007	19.993	103.853	19.855	9.611	0.484
738.000	452.032	80.007	19.992	103.864	19.844	10.336	0.512
740.000	453.036	80.006	19.994	103.862	19.842	10.465	0.499
742.000	454.039	80.005	19.994	103.869	19.833	11.076	0.500
744.000	455.030	80.007	19.994	103.871	19.826	11.545	0.482
746.000	456.097	80.006	19.995	103.863	19.813	12.479	0.492
748.000	457.074	80.006	19.994	103.869	19.807	12.884	0.484
750.000	458.067	80.006	19.993	103.873	19.794	13.746	0.504
752.000	459.086	80.005	19.993	103.872	19.783	14.518	0.495
754.000	460.151	80.005	19.993	103.871	19.770	15.415	0.527
756.000	461.120	80.007	19.992	103.871	19.757	16.333	0.488
758.000	462.135	80.006	19.994	103.875	19.742	17.337	0.483
760.000	463.118	80.008	19.994	103.880	19.722	18.753	0.501
762.000	464.135	80.008	19.993	103.888	19.706	19.826	0.503
764.000	465.169	80.007	19.993	103.891	19.682	21.444	0.505
766.000	466.161	80.008	19.994	103.905	19.662	22.825	0.506
768.000	467.189	80.007	19.994	103.904	19.634	24.742	0.510
770.000	468.250	80.008	19.995	103.907	19.613	26.233	0.520
772.000	469.240	80.006	19.995	103.905	19.576	28.756	0.506
774.000	470.239	80.006	19.995	103.907	19.544	30.931	0.489
776.000	471.285	80.008	19.993	103.928	19.502	33.818	0.534
778.000	472.256	80.007	19.994	103.933	19.461	36.698	0.493
780.000	473.285	80.007	19.993	103.941	19.412	40.066	0.503
782.000	474.372	80.007	19.994	103.951	19.353	44.103	0.479
784.000	475.446	80.008	19.993	103.947	19.288	48.518	0.501
786.000	476.417	80.008	19.993	103.958	19.221	53.166	0.526
788.000	477.413	80.008	19.995	103.959	19.131	59.355	0.469
790.000	478.493	80.008	19.994	103.960	19.056	64.565	0.563
792.000	479.444	80.009	19.995	103.953	18.999	68.522	0.535
794.000	480.493	80.007	19.996	103.935	18.965	70.811	0.470
796.000	481.440	80.008	19.994	103.918	18.943	72.373	0.476
798.000	482.457	80.006	19.995	103.953	18.913	74.416	0.323
800.000	483.459	80.005	19.993	104.045	18.881	76.615	0.635
802.000	484.480	80.007	19.993	104.090	18.845	79.127	0.804
804.000	485.425	80.006	19.994	104.079	18.795	82.535	0.085
806.000	486.449	80.005	19.994	104.078	18.742	86.247	0.351
808.001	487.640	80.005	19.993	104.078	18.673	90.995	0.568
810.000	488.629	80.006	19.994	104.090	18.604	95.719	0.561
812.000	489.692	80.004	19.994	104.105	18.528	100.949	0.565
814.000	490.703	80.006	19.993	104.114	18.444	106.798	0.565
816.000	491.743	80.005	19.993	104.138	18.356	112.849	0.476
818.000	492.756	80.006	19.993	104.144	18.265	119.139	0.527
820.000	493.812	80.005	19.993	104.146	18.178	125.216	0.515
822.000	494.899	80.005	19.994	104.162	18.092	131.100	0.537
824.000	495.930	80.005	19.994	104.178	18.001	137.430	0.488
826.000	497.069	80.006	19.993	104.200	17.911	143.677	0.552
828.000	498.073	80.006	19.994	104.214	17.819	149.985	0.502
830.001	499.124	80.005	19.993	104.242	17.729	156.235	0.537
832.000	500.189	80.005	19.994	104.258	17.640	162.407	0.529
834.000	501.305	80.006	19.994	104.263	17.554	168.375	0.552
836.000	502.341	80.004	19.994	104.281	17.468	174.334	0.550
838.000	503.385	80.007	19.995	104.297	17.383	180.176	0.522
840.000	504.431	80.008	19.993	104.315	17.302	185.796	0.542
842.000	505.486	80.005	19.994	104.328	17.225	191.128	0.520
844.000	506.542	80.007	19.993	104.337	17.159	195.675	0.557
846.000	507.581	80.007	19.995	104.364	17.096	199.977	0.486
848.000	508.636	80.009	19.993	104.371	17.039	203.914	0.584
850.000	509.689	80.007	19.994	104.374	16.995	206.972	0.533
852.000	510.747	80.008	19.993	104.380	16.958	209.527	0.554
854.000	511.710	80.008	19.994	104.380	16.935	211.097	0.475
856.000	512.773	80.007	19.994	104.385	16.926	211.694	0.506
858.000	513.855	80.008	19.993	104.390	16.925	211.810	0.534
860.000	514.958	80.008	19.993	104.392	16.946	210.279	0.537
862.000	515.971	80.008	19.994	104.386	16.979	207.963	0.540
864.000	517.096	80.009	19.994	104.383	17.023	204.909	0.548
866.000	518.136	80.009	19.993	104.372	17.088	200.379	0.531
868.001	519.152	80.008	19.995	104.372	17.161	195.348	0.481
870.000	520.198	80.009	19.994	104.367	17.243	189.658	0.505
872.000	521.222	80.008	19.993	104.341	17.349	182.335	0.474
874.001	522.326	80.008	19.995	104.334	17.455	174.984	0.535
876.000	523.375	80.008	19.994	104.314	17.575	166.653	0.533
878.000	524.409	80.008	19.994	104.298	17.705	157.687	0.503
880.000	525.485	80.009	19.994	104.290	17.836	148.677	0.532
882.000	526.523	80.005	19.994	104.277	17.966	139.702	0.526
884.000	527.497	80.007	19.996	104.256	18.100	130.388	0.507
886.000	528.576	80.007	19.995	104.239	18.231	121.358	0.532
888.000	529.577	80.006	19.993	104.206	18.360	112.509	0.499
890.000	530.643	80.005	19.994	104.197	18.483	103.972	0.526
892.000	531.685	80.005	19.995	104.174	18.597	96.156	0.513
894.000	532.717	80.005	19.995	104.148	18.712	88.177	0.512
896.000	533.741	80.005	19.995	104.115	18.809	81.551	0.493
898.000	534.802	80.006	19.996	104.103	18.896	75.552	0.532
900.000	535.859	80.006	19.995	104.084	18.983	69.521	0.494
902.000	536.847	80.005	19.994	104.064	19.057	64.482	0.494
904.000	537.901	80.006	19.994	104.049	19.124	59.861	0.543
906.000	538.925	80.006	19.995	104.026	19.184	55.685	0.522
908.000	539.994	80.005	19.994	104.022	19.242	51.701	0.524
910.000	541.004	80.007	19.994	104.006	19.290	48.441	0.509
912.000	542.027	80.006	19.995	103.996	19.334	45.416	0.502
914.000	543.068	80.006	19.993	103.986	19.380	42.256	0.507
916.000	544.102	80.007	19.994	103.976	19.410	40.145	0.495
918.000	545.107	80.007	19.994	103.970	19.448	37.547	0.487
920.000	546.197	80.006	19.996	103.951	19.478	35.487	0.522
922.000	547.210	80.006	19.995	103.945	19.504	33.679	0.528
924.000	548.241	80.006	19.994	103.932	19.530	31.925	0.521
926.000	549.234	80.008	19.992	103.943	19.550	30.565	0.494
928.000	550.270	80.008	19.994	103.933	19.571	29.083	0.470
930.000	551.298	80.008	19.994	103.925	19.589	27.863	0.480
932.000	552.344	80.008	19.994	103.923	19.605	26.760	0.519
934.000	553.332	80.008	19.994	103.908	19.616	26.031	0.515
936.000	554.386	80.007	19.994	103.910	19.633	24.813	0.521
938.000	555.425	80.008	19.994	103.908	19.646	23.959	0.557
940.000	556.470	80.007	19.993	103.898	19.656	23.270	0.504
942.000	557.457	80.007	19.994	103.906	19.663	22.752	0.500
944.000	558.468	80.008	19.994	103.907	19.675	21.930	0.500
946.000	559.483	80.008	19.993	103.898	19.681	21.509	0.498
948.000	560.506	80.007	19.993	103.892	19.687	21.145	0.516
950.000	561.548	80.009	19.993	103.895	19.696	20.503	0.531
952.000	562.549	80.009	19.992	103.880	19.705	19.865	0.496
954.000	563.568	80.008	19.994	103.875	19.707	19.741	0.504
956.000	564.570	80.009	19.993	103.885	19.712	19.407	0.501
958.000	565.587	80.009	19.994	103.883	19.717	19.036	0.495
960.000	566.575	80.008	19.994	103.874	19.720	18.842	0.490
962.000	567.602	80.007	19.995	103.872	19.726	18.409	0.501
964.000	568.609	80.006	19.994	103.871	19.733	17.989	0.509
966.000	569.591	80.006	19.994	103.870	19.736	17.769	0.476
968.000	570.587	80.006	19.994	103.868	19.745	17.141	0.469
970.000	571.584	80.006	19.993	103.867	19.746	17.037	0.532
972.000	572.591	80.007	19.994	103.867	19.748	16.951	0.478
974.000	573.653	80.006	19.995	103.867	19.751	16.710	0.505
976.000	574.657	80.008	19.994	103.867	19.751	16.693	0.505
978.000	575.742	80.005	19.995	103.865	19.756	16.368	0.540
980.000	576.740	80.007	19.995	103.861	19.756	16.382	0.511
982.000	577.753	80.005	19.995	103.864	19.762	15.981	0.519
984.000	578.778	80.006	19.995	103.856	19.763	15.888	0.502
986.000	579.780	80.005	19.994	103.854	19.768	15.560	0.495
988.000	580.804	80.006	19.996	103.844	19.768	15.558	0.501
990.000	581.829	80.005	19.995	103.843	19.771	15.358	0.488
992.000	582.851	80.005	19.995	103.843	19.776	15.023	0.505
994.000	583.819	80.005	19.995	103.848	19.775	15.061	0.473
996.000	584.867	80.007	19.995	103.852	19.781	14.632	0.499
998.000	585.905	80.004	19.995	103.844	19.781	14.669	0.512
1000.000	586.932	80.005	19.993	103.840	19.784	14.489	0.522
1002.000	587.969	80.007	19.994	103.844	19.785	14.375	0.514
1004.000	588.961	80.008	19.994	103.850	19.784	14.471	0.489
1006.000	589.981	80.007	19.993	103.858	19.784	14.462	0.499
1008.000	591.001	80.007	19.993	103.846	19.789	14.113	0.532
1010.000	592.024	80.008	19.993	103.850	19.793	13.872	0.520
1012.000	593.030	80.008	19.994	103.833	19.794	13.737	0.529
1014.000	594.012	80.006	19.992	103.838	19.795	13.726	0.487
1016.000	595.076	80.006	19.993	103.840	19.796	13.658	0.518
1018.000	596.029	80.006	19.993	103.836	19.797	13.555	0.510
1020.000	597.078	80.005	19.993	103.840	19.801	13.255	0.499
1022.000	598.066	80.006	19.994	103.839	19.799	13.411	0.509
1024.000	599.108	80.007	19.994	103.838	19.801	13.266	0.516
1026.000	600.092	80.007	19.994	103.833	19.803	13.132	0.485
1028.000	601.082	80.007	19.993	103.833	19.807	12.868	0.507
1030.000	602.115	80.008	19.994	103.831	19.809	12.724	0.493
1032.000	603.099	80.008	19.993	103.828	19.810	12.684	0.494
1034.000	604.141	80.008	19.994	103.828	19.811	12.608	0.540
1036.001	605.103	80.008	19.993	103.830	19.813	12.435	0.498
1038.000	606.127	80.010	19.992	103.833	19.814	12.368	0.513
1040.000	607.130	80.009	19.991	103.830	19.819	12.073	0.500
1042.000	608.093	80.009	19.993	103.825	19.821	11.904	0.502
1044.000	609.144	80.008	19.993	103.827	19.822	11.848	0.511
1046.000	610.121	80.007	19.993	103.832	19.820	11.963	0.501
1048.000	611.151	80.006	19.994	103.828	19.824	11.696	0.524
1050.000	612.120	80.006	19.993	103.827	19.828	11.463	0.485
1052.000	613.166	80.006	19.994	103.829	19.825	11.615	0.502
1054.000	614.152	80.006	19.994	103.826	19.832	11.166	0.497
1056.000	615.206	80.007	19.994	103.821	19.832	11.150	0.499
1058.000	616.207	80.006	19.995	103.828	19.832	11.156	0.514
1060.000	617.253	80.006	19.995	103.828	19.834	11.051	0.475
1062.000	618.257	80.006	19.994	103.826	19.836	10.862	0.504
1064.000	619.250	80.007	19.995	103.828	19.836	10.894	0.510
1066.000	620.257	80.007	19.994	103.828	19.840	10.611	0.456
1068.000	621.268	80.007	19.995	103.822	19.841	10.557	0.530
1070.000	622.263	80.006	19.993	103.822	19.845	10.281	0.517
1072.000	623.274	80.006	19.993	103.829	19.848	10.076	0.489
1074.000	624.262	80.005	19.993	103.824	19.845	10.268	0.512
1076.000	625.317	80.006	19.994	103.829	19.845	10.274	0.522
1078.000	626.224	80.005	19.995	103.824	19.847	10.102	0.465
1080.001	627.291	80.005	19.995	103.826	19.849	9.980	0.507
1082.000	628.240	80.006	19.994	103.825	19.855	9.588	0.491
1084.000	629.314	80.005	19.994	103.827	19.853	9.688	0.499
1086.000	630.283	80.005	19.995	103.828	19.857	9.461	0.497
1088.000	631.257	80.005	19.995	103.823	19.860	9.211	0.487
1090.000	632.267	80.005	19.995	103.827	19.862	9.082	0.478
1092.000	633.307	80.008	19.994	103.820	19.860	9.225	0.532
1094.000	634.325	80.008	19.994	103.825	19.867	8.729	0.520
1096.000	635.375	80.009	19.994	103.806	19.864	8.974	0.524
1098.000	636.409	80.009	19.993	103.814	19.868	8.658	0.524
1100.000	637.416	80.008	19.992	103.818	19.868	8.684	0.529
1102.000	638.428	80.007	19.993	103.821	19.867	8.725	0.518
1104.000	639.467	80.008	19.994	103.822	19.872	8.425	0.533
1106.001	640.477	80.007	19.993	103.802	19.869	8.648	0.496
1108.000	641.481	80.006	19.993	103.791	19.870	8.526	0.528
1110.000	642.474	80.009	19.994	103.795	19.869	8.638	0.486
1112.000	643.482	80.008	19.994	103.817	19.876	8.144	0.499
1114.000	644.512	80.009	19.994	103.801	19.873	8.316	0.520
1116.000	645.512	80.009	19.993	103.807	19.876	8.143	0.495
1118.000	646.515	80.010	19.995	103.821	19.877	8.053	0.501
1120.000	647.506	80.011	19.994	103.808	19.879	7.950	0.476
1122.000	648.521	80.009	19.993	103.810	19.876	8.154	0.484
1124.000	649.574	80.008	19.993	103.816	19.877	8.055	0.594
1126.001	650.548	80.009	19.994	103.814	19.877	8.076	0.528
1128.000	651.534	80.007	19.993	103.797	19.879	7.902	0.497
1130.000	652.544	80.007	19.994	103.808	19.878	8.020	0.483
1132.000	653.584	80.007	19.993	103.805	19.882	7.699	0.495
1134.000	654.618	80.007	19.994	103.794	19.883	7.663	0.519
1136.000	655.610	80.006	19.993	103.810	19.880	7.863	0.518
1138.000	656.608	80.006	19.993	103.814	19.882	7.706	0.475
1140.000	657.592	80.007	19.993	103.820	19.882	7.729	0.476
1142.000	658.626	80.006	19.994	103.811	19.883	7.658	0.493
1144.000	659.658	80.006	19.993	103.800	19.883	7.655	0.526
1146.000	660.631	80.006	19.994	103.803	19.883	7.681	0.495
1148.001	661.621	80.006	19.994	103.796	19.884	7.575	0.505
1150.000	662.683	80.007	19.995	103.801	19.887	7.361	0.543
1152.000	663.665	80.005	19.994	103.803	19.890	7.197	0.528
1154.000	664.688	80.005	19.993	103.809	19.895	6.867	0.500
1156.000	665.699	80.006	19.995	103.814	19.893	6.992	0.543
1158.000	666.734	80.008	19.994	103.815	19.890	7.158	0.521
1160.000	667.767	80.006	19.995	103.816	19.892	7.056	0.522
1162.000	668.779	80.006	19.993	103.806	19.894	6.899	0.506
1164.000	669.882	80.004	19.994	103.802	19.895	6.835	0.549
1166.000	670.891	80.005	19.994	103.808	19.897	6.714	0.533
1168.001	671.989	80.004	19.994	103.799	19.892	7.022	0.534
1170.000	673.041	80.007	19.994	103.810	19.895	6.857	0.515
1172.000	674.057	80.007	19.995	103.798	19.896	6.743	0.514
1174.000	675.154	80.008	19.994	103.803	19.894	6.909	0.543
1176.000	676.184	80.007	19.993	103.800	19.893	6.985	0.522
1178.000	677.270	80.007	19.994	103.796	19.896	6.782	0.531
1180.000	678.291	80.008	19.995	103.801	19.897	6.712	0.521
1182.000	679.321	80.008	19.995	103.793	19.895	6.814	0.516
1184.000	680.404	80.008	19.996	103.798	19.895	6.812	0.511
1186.000	681.413	80.008	19.995	103.810	19.896	6.750	0.472
1188.000	682.484	80.007	19.994	103.819	19.897	6.721	0.499
1190.000	683.535	80.007	19.995	103.816	19.894	6.912	0.551
1192.000	684.573	80.008	19.994	103.804	19.896	6.790	0.521
1194.000	685.587	80.007	19.992	103.791	19.895	6.856	0.521
1196.000	686.659	80.007	19.994	103.792	19.895	6.823	0.524
1198.000	687.711	80.009	19.994	103.799	19.895	6.868	0.552
1200.001	688.760	80.009	19.994	103.795	19.892	7.043	0.507
1202.000	689.785	80.008	19.993	103.792	19.895	6.832	0.500
1204.000	690.810	80.009	19.993	103.793	19.895	6.822	0.508
1206.001	691.880	80.009	19.993	103.792	19.893	6.975	0.541
1208.001	692.902	80.009	19.994	103.792	19.894	6.907	0.532
1210.000	693.946	80.007	19.993	103.809	19.892	7.068	0.514
1212.000	695.008	80.007	19.993	103.806	19.897	6.716	0.513
1214.000	696.006	80.006	19.994	103.803	19.895	6.839	0.490
1216.001	697.058	80.006	19.993	103.800	19.892	7.027	0.524
1218.000	698.078	80.006	19.994	103.796	19.895	6.861	0.505
1220.000	699.141	80.006	19.993	103.801	19.891	7.104	0.509
1222.000	700.209	80.006	19.993	103.792	19.895	6.834	0.534
1224.000	701.195	80.007	19.993	103.795	19.892	7.070	0.533
1226.000	702.221	80.006	19.993	103.799	19.895	6.799	0.525
1228.000	703.189	80.005	19.994	103.798	19.893	6.973	0.478
1230.000	704.255	80.007	19.993	103.790	19.893	6.956	0.527
1232.000	705.288	80.008	19.994	103.798	19.893	6.941	0.503
1234.001	706.271	80.007	19.994	103.797	19.893	6.983	0.469
1236.000	707.356	80.008	19.993	103.797	19.893	6.990	0.533
1238.000	708.327	80.007	19.993	103.802	19.891	7.115	0.501
1240.000	709.387	80.006	19.994	103.793	19.893	7.000	0.517
1242.000	710.400	80.006	19.994	103.805	19.889	7.247	0.493
1244.000	711.407	80.005	19.995	103.798	19.890	7.162	0.504
1246.000	712.419	80.006	19.994	103.794	19.890	7.205	0.522
1248.000	713.462	80.007	19.994	103.797	19.887	7.388	0.496
1250.000	714.460	80.007	19.995	103.789	19.889	7.262	0.501
1252.000	715.494	80.007	19.994	103.788	19.889	7.245	0.535
1254.001	716.566	80.009	19.994	103.790	19.886	7.439	0.540
1256.000	717.569	80.008	19.994	103.791	19.890	7.207	0.522
1258.000	718.596	80.007	19.994	103.789	19.889	7.241	0.513
1260.000	719.593	80.008	19.994	103.792	19.889	7.228	0.468
1262.001	720.613	80.009	19.993	103.790	19.891	7.123	0.518
1264.000	721.626	80.008	19.993	103.791	19.886	7.426	0.531
1266.000	722.645	80.006	19.994	103.792	19.886	7.456	0.500
1268.000	723.676	80.006	19.994	103.791	19.885	7.542	0.517
1270.000	724.687	80.007	19.994	103.791	19.889	7.254	0.531
1272.001	725.725	80.006	19.995	103.791	19.888	7.286	0.483
1274.000	726.771	80.007	19.994	103.790	19.887	7.348	0.524
1276.000	727.733	80.006	19.995	103.790	19.888	7.284	0.460
1278.000	728.763	80.008	19.994	103.791	19.888	7.335	0.493
1280.000	729.779	80.008	19.994	103.791	19.890	7.209	0.527
1282.000	730.779	80.008	19.994	103.793	19.889	7.245	0.481
1284.000	731.806	80.008	19.993	103.789	19.891	7.121	0.525
1286.000	732.867	80.008	19.993	103.790	19.888	7.280	0.500
1288.000	733.788	80.009	19.993	103.793	19.886	7.470	0.462
1290.000	734.827	80.008	19.994	103.794	19.888	7.299	0.497
1292.000	735.868	80.007	19.993	103.791	19.885	7.546	0.530
1294.000	736.910	80.008	19.993	103.789	19.884	7.589	0.511
1296.000	737.903	80.006	19.994	103.789	19.886	7.450	0.504
1298.001	738.963	80.006	19.994	103.787	19.888	7.344	0.478
1300.000	739.944	80.006	19.994	103.788	19.888	7.292	0.478
1302.000	740.961	80.007	19.994	103.781	19.887	7.393	0.470
1304.000	742.019	80.006	19.994	103.789	19.886	7.455	0.526
1306.000	743.038	80.006	19.994	103.790	19.888	7.312	0.511
1307.000	743.526	80.007	19.993	103.788	19.889	7.213	0.483