File: 01_Data/Face_Shield/MCC/Face_Shield_MCC_30K_min_220207_R3.txt
Sample ID:	C:\MCC\MCC Cal\Test\Shield_MCC_30K_min_220207_R3.txt
Sample Weight (mg):	4.84
Heating Rate (C/s):	0.5
Combustor Temp (C):	900
N2 Flow Rate (cc/min):	80
O2 Flow Rate (cc/min):	20
Calibration File:	C:\MCC\MCC Cal\Coeff1 JN10440_30_210304.txt.txt
T Correction Coefficients:	0	1.024463	0
Time Shift (s):	14
*
Time (s)	Temperature (C)	N2 flow rate (cc/min)	O2 flow rate (cc/min)	Flow Rate (cc/min)	Oxygen (%)	HRR (W/g)	Heating rate (C/s)
0.000	112.269	80.005	19.995	103.687	20.084	-0.093	-0.029
1.500	112.304	80.006	19.995	103.685	20.083	-0.042	0.033
3.000	112.290	80.006	19.995	103.689	20.082	0.048	-0.011
4.500	112.287	80.006	19.995	103.696	20.085	-0.200	-0.006
6.000	112.275	80.005	19.995	103.697	20.080	0.171	0.002
7.500	112.281	80.005	19.994	103.695	20.083	-0.057	0.010
9.000	112.293	80.006	19.994	103.706	20.081	0.068	-0.009
10.500	112.281	80.007	19.994	103.712	20.078	0.270	-0.007
12.000	112.278	80.007	19.994	103.720	20.077	0.338	-0.006
13.500	112.294	80.005	19.994	103.743	20.073	0.641	0.016
15.000	112.271	80.005	19.993	103.772	20.070	0.808	-0.009
16.500	112.312	80.007	19.994	103.813	20.063	1.310	0.022
18.000	112.393	80.006	19.993	103.829	20.061	1.422	0.033
19.500	112.451	80.006	19.993	103.854	20.058	1.617	0.031
21.000	112.517	80.004	19.994	103.887	20.050	2.148	0.046
22.500	112.617	80.005	19.993	103.896	20.051	2.116	0.071
24.000	112.748	80.004	19.993	103.900	20.046	2.475	0.080
25.500	112.888	80.006	19.994	103.911	20.045	2.541	0.111
27.000	113.038	80.005	19.993	103.914	20.046	2.466	0.128
28.500	113.277	80.004	19.993	103.930	20.042	2.681	0.162
30.000	113.498	80.005	19.995	103.940	20.043	2.657	0.146
31.500	113.717	80.006	19.993	103.931	20.042	2.723	0.137
33.000	113.982	80.007	19.994	103.934	20.037	3.065	0.178
34.501	114.290	80.007	19.994	103.940	20.035	3.175	0.176
36.000	114.537	80.008	19.994	103.946	20.033	3.307	0.149
37.500	114.847	80.006	19.994	103.945	20.035	3.186	0.213
39.000	115.139	80.008	19.994	103.946	20.035	3.186	0.203
40.500	115.519	80.010	19.993	103.946	20.032	3.348	0.279
42.000	115.868	80.007	19.994	103.944	20.036	3.109	0.244
43.500	116.216	80.008	19.994	103.944	20.034	3.228	0.239
45.000	116.611	80.008	19.994	103.935	20.032	3.351	0.262
46.500	117.004	80.006	19.994	103.941	20.029	3.613	0.250
48.000	117.403	80.008	19.994	103.944	20.032	3.348	0.267
49.500	117.800	80.007	19.994	103.943	20.036	3.098	0.265
51.001	118.250	80.009	19.992	103.944	20.032	3.372	0.284
52.500	118.701	80.007	19.992	103.946	20.036	3.140	0.283
54.000	119.111	80.008	19.993	103.946	20.034	3.240	0.279
55.500	119.599	80.006	19.993	103.946	20.038	2.970	0.322
57.000	120.091	80.006	19.993	103.947	20.033	3.297	0.330
58.500	120.547	80.007	19.994	103.951	20.029	3.569	0.299
60.000	121.038	80.008	19.994	103.950	20.033	3.291	0.322
61.500	121.558	80.008	19.994	103.952	20.030	3.503	0.352
63.000	122.086	80.008	19.994	103.950	20.031	3.453	0.358
64.500	122.615	80.010	19.993	103.952	20.027	3.745	0.363
66.001	123.200	80.007	19.993	103.956	20.030	3.505	0.376
67.500	123.726	80.008	19.994	103.958	20.033	3.298	0.347
69.000	124.299	80.008	19.994	103.965	20.035	3.185	0.368
70.500	124.838	80.007	19.994	103.964	20.034	3.259	0.339
72.000	125.393	80.006	19.993	103.969	20.030	3.524	0.374
73.500	126.053	80.006	19.994	103.963	20.031	3.476	0.429
75.000	126.628	80.006	19.994	103.962	20.032	3.358	0.370
76.500	127.178	80.005	19.994	103.966	20.029	3.602	0.365
78.001	127.819	80.004	19.994	103.983	20.030	3.525	0.411
79.500	128.443	80.004	19.995	103.983	20.032	3.351	0.414
81.000	129.099	80.005	19.995	103.980	20.029	3.557	0.431
82.500	129.773	80.005	19.995	103.984	20.030	3.496	0.440
84.000	130.376	80.004	19.995	103.983	20.027	3.718	0.406
85.500	131.017	80.006	19.995	103.983	20.030	3.535	0.425
87.001	131.670	80.004	19.995	103.973	20.029	3.610	0.423
88.501	132.290	80.005	19.994	103.975	20.031	3.439	0.433
90.001	132.959	80.005	19.994	103.984	20.029	3.582	0.433
91.500	133.615	80.006	19.994	103.983	20.030	3.500	0.431
93.000	134.325	80.004	19.994	103.983	20.028	3.647	0.468
94.501	135.037	80.006	19.996	103.982	20.028	3.624	0.454
96.000	135.704	80.005	19.995	103.981	20.030	3.540	0.449
97.500	136.401	80.007	19.995	103.980	20.031	3.444	0.470
99.000	137.090	80.004	19.995	103.980	20.028	3.642	0.471
100.500	137.824	80.005	19.996	103.982	20.030	3.540	0.484
102.000	138.529	80.005	19.995	103.982	20.029	3.553	0.474
103.500	139.274	80.004	19.995	103.983	20.026	3.766	0.534
105.000	139.949	80.006	19.995	103.979	20.028	3.632	0.471
106.501	140.726	80.005	19.994	103.977	20.027	3.727	0.513
108.000	141.414	80.006	19.993	103.980	20.026	3.773	0.494
109.500	142.198	80.005	19.993	103.969	20.026	3.801	0.527
111.000	142.900	80.006	19.995	103.963	20.028	3.635	0.470
112.500	143.671	80.005	19.994	103.977	20.028	3.681	0.511
114.000	144.419	80.006	19.993	103.982	20.026	3.756	0.518
115.500	145.219	80.008	19.993	103.975	20.029	3.583	0.542
117.000	145.951	80.008	19.994	103.968	20.030	3.548	0.507
118.501	146.645	80.007	19.993	103.968	20.031	3.425	0.471
120.000	147.416	80.007	19.993	103.972	20.034	3.261	0.525
121.500	148.149	80.009	19.994	103.961	20.032	3.394	0.490
123.000	148.956	80.007	19.993	103.961	20.035	3.153	0.548
124.500	149.747	80.007	19.994	103.960	20.036	3.140	0.550
126.000	150.456	80.008	19.994	103.960	20.035	3.162	0.475
127.500	151.268	80.007	19.994	103.961	20.038	2.980	0.511
129.000	152.043	80.006	19.993	103.948	20.035	3.168	0.515
130.500	152.790	80.007	19.992	103.948	20.038	2.945	0.508
132.000	153.603	80.007	19.993	103.947	20.041	2.800	0.554
133.500	154.374	80.007	19.993	103.947	20.036	3.100	0.525
135.000	155.122	80.005	19.994	103.949	20.038	2.945	0.511
136.500	155.923	80.006	19.993	103.948	20.039	2.925	0.541
138.000	156.693	80.008	19.993	103.949	20.040	2.824	0.509
139.500	157.434	80.007	19.992	103.952	20.036	3.087	0.495
141.000	158.241	80.007	19.994	103.950	20.037	3.050	0.510
142.500	159.033	80.009	19.993	103.946	20.037	3.030	0.530
144.000	159.747	80.010	19.994	103.948	20.037	3.074	0.473
145.501	160.509	80.009	19.993	103.949	20.036	3.085	0.504
147.000	161.305	80.007	19.993	103.948	20.038	2.949	0.501
148.500	162.069	80.008	19.994	103.947	20.042	2.710	0.497
150.000	162.820	80.008	19.994	103.948	20.043	2.670	0.532
151.500	163.621	80.008	19.992	103.948	20.037	3.046	0.530
153.000	164.351	80.008	19.994	103.941	20.035	3.156	0.494
154.500	165.136	80.006	19.993	103.940	20.034	3.213	0.507
156.000	165.918	80.005	19.994	103.946	20.037	3.064	0.526
157.500	166.650	80.005	19.995	103.941	20.037	3.042	0.475
159.000	167.410	80.005	19.995	103.940	20.038	2.976	0.483
160.500	168.185	80.006	19.996	103.942	20.035	3.151	0.514
162.000	168.908	80.006	19.996	103.940	20.035	3.165	0.490
163.500	169.690	80.005	19.995	103.941	20.038	2.954	0.509
165.000	170.429	80.007	19.995	103.931	20.039	2.901	0.448
166.500	171.180	80.006	19.995	103.932	20.038	2.994	0.505
168.000	171.929	80.006	19.995	103.936	20.039	2.917	0.509
169.500	172.674	80.007	19.994	103.926	20.041	2.788	0.482
171.000	173.438	80.007	19.994	103.927	20.041	2.761	0.483
172.500	174.208	80.005	19.994	103.927	20.041	2.805	0.474
174.000	174.963	80.007	19.994	103.932	20.036	3.134	0.514
175.500	175.632	80.006	19.994	103.929	20.036	3.086	0.443
177.000	176.437	80.006	19.993	103.920	20.038	2.946	0.494
178.500	177.114	80.007	19.993	103.922	20.038	2.959	0.481
180.000	177.880	80.006	19.994	103.915	20.039	2.933	0.500
181.500	178.686	80.006	19.994	103.922	20.036	3.143	0.523
183.000	179.414	80.006	19.994	103.924	20.037	3.069	0.484
184.500	180.158	80.005	19.995	103.910	20.043	2.676	0.501
186.000	180.847	80.005	19.994	103.909	20.038	2.992	0.466
187.500	181.598	80.005	19.995	103.908	20.042	2.697	0.493
189.000	182.348	80.005	19.996	103.910	20.039	2.937	0.505
190.500	183.153	80.005	19.995	103.912	20.038	2.952	0.546
192.000	183.843	80.005	19.995	103.909	20.037	3.058	0.447
193.500	184.589	80.005	19.994	103.912	20.041	2.764	0.474
195.000	185.272	80.005	19.994	103.909	20.043	2.650	0.477
196.500	186.127	80.006	19.994	103.908	20.039	2.909	0.558
198.000	186.873	80.006	19.994	103.915	20.034	3.264	0.486
199.500	187.633	80.006	19.993	103.914	20.038	2.990	0.495
201.000	188.289	80.007	19.994	103.909	20.039	2.919	0.418
202.500	188.976	80.008	19.993	103.909	20.035	3.196	0.469
204.000	189.710	80.007	19.994	103.907	20.038	2.955	0.493
205.500	190.439	80.007	19.993	103.908	20.040	2.825	0.488
207.000	191.193	80.006	19.994	103.909	20.040	2.821	0.524
208.500	191.952	80.006	19.993	103.908	20.042	2.713	0.487
210.000	192.598	80.006	19.993	103.907	20.039	2.931	0.420
211.500	193.323	80.006	19.993	103.908	20.039	2.889	0.478
213.000	194.062	80.007	19.994	103.908	20.040	2.863	0.487
214.500	194.760	80.008	19.993	103.909	20.040	2.821	0.484
216.000	195.509	80.006	19.993	103.910	20.041	2.779	0.491
217.500	196.229	80.007	19.993	103.909	20.042	2.687	0.481
219.000	196.973	80.007	19.992	103.909	20.045	2.483	0.497
220.500	197.686	80.006	19.993	103.909	20.044	2.579	0.451
222.001	198.432	80.007	19.994	103.909	20.040	2.843	0.499
223.500	199.145	80.007	19.994	103.907	20.040	2.823	0.475
225.000	199.940	80.007	19.993	103.905	20.042	2.702	0.520
226.500	200.629	80.009	19.993	103.903	20.040	2.843	0.428
228.000	201.342	80.008	19.993	103.900	20.039	2.937	0.496
229.500	202.072	80.009	19.995	103.903	20.039	2.896	0.514
231.000	202.800	80.010	19.994	103.901	20.037	3.060	0.498
232.500	203.588	80.009	19.993	103.905	20.037	3.069	0.508
234.000	204.313	80.009	19.993	103.905	20.043	2.648	0.500
235.500	205.027	80.007	19.993	103.905	20.039	2.937	0.501
237.000	205.749	80.006	19.994	103.904	20.041	2.790	0.467
238.500	206.452	80.006	19.994	103.904	20.040	2.843	0.452
240.000	207.198	80.006	19.994	103.904	20.043	2.639	0.464
241.500	208.023	80.007	19.993	103.907	20.037	3.051	0.535
243.000	208.704	80.006	19.994	103.904	20.039	2.893	0.411
244.500	209.398	80.007	19.994	103.904	20.041	2.797	0.479
246.000	210.180	80.006	19.995	103.903	20.040	2.817	0.519
247.500	210.950	80.006	19.994	103.894	20.038	2.948	0.513
249.000	211.632	80.007	19.994	103.903	20.041	2.744	0.441
250.500	212.381	80.007	19.994	103.908	20.042	2.689	0.508
252.000	213.135	80.006	19.995	103.908	20.040	2.865	0.486
253.500	213.870	80.006	19.995	103.903	20.042	2.680	0.488
255.000	214.611	80.008	19.994	103.902	20.043	2.676	0.479
256.500	215.364	80.005	19.995	103.903	20.042	2.681	0.486
258.000	216.099	80.007	19.994	103.904	20.046	2.452	0.485
259.500	216.869	80.007	19.995	103.904	20.043	2.637	0.496
261.000	217.670	80.005	19.993	103.905	20.046	2.467	0.525
262.500	218.376	80.006	19.994	103.903	20.045	2.529	0.463
264.000	219.171	80.006	19.995	103.901	20.043	2.613	0.507
265.500	219.835	80.006	19.993	103.902	20.042	2.681	0.469
267.000	220.618	80.004	19.995	103.891	20.042	2.715	0.530
268.500	221.407	80.005	19.995	103.889	20.043	2.674	0.503
270.000	222.170	80.005	19.995	103.897	20.042	2.692	0.540
271.500	222.927	80.004	19.994	103.902	20.044	2.571	0.506
273.000	223.689	80.006	19.994	103.901	20.044	2.588	0.493
274.500	224.459	80.004	19.995	103.901	20.044	2.608	0.521
276.000	225.149	80.006	19.995	103.898	20.043	2.611	0.478
277.500	225.916	80.005	19.995	103.902	20.045	2.499	0.495
279.000	226.656	80.005	19.995	103.902	20.043	2.620	0.494
280.500	227.406	80.005	19.994	103.896	20.042	2.707	0.492
282.000	228.212	80.006	19.996	103.899	20.043	2.652	0.519
283.500	228.951	80.005	19.996	103.905	20.044	2.560	0.511
285.000	229.749	80.006	19.995	103.893	20.042	2.727	0.529
286.500	230.524	80.008	19.995	103.892	20.044	2.587	0.521
288.000	231.277	80.008	19.994	103.893	20.040	2.857	0.518
289.500	232.001	80.008	19.995	103.879	20.042	2.707	0.481
291.000	232.761	80.008	19.994	103.890	20.042	2.692	0.512
292.500	233.524	80.008	19.993	103.890	20.042	2.703	0.517
294.000	234.275	80.006	19.994	103.886	20.039	2.909	0.507
295.500	235.025	80.005	19.995	103.887	20.042	2.721	0.485
297.000	235.772	80.006	19.993	103.886	20.045	2.540	0.496
298.500	236.550	80.007	19.994	103.884	20.042	2.712	0.518
300.000	237.280	80.006	19.992	103.885	20.043	2.666	0.485
301.500	238.025	80.007	19.993	103.890	20.043	2.642	0.485
303.000	238.790	80.007	19.993	103.894	20.042	2.705	0.503
304.500	239.532	80.008	19.995	103.889	20.041	2.804	0.488
306.000	240.264	80.008	19.995	103.886	20.042	2.681	0.486
307.500	241.002	80.008	19.994	103.882	20.042	2.734	0.490
309.000	241.800	80.009	19.993	103.888	20.042	2.725	0.518
310.500	242.553	80.008	19.993	103.873	20.043	2.666	0.510
312.000	243.303	80.008	19.994	103.871	20.042	2.729	0.518
313.500	244.075	80.009	19.994	103.874	20.041	2.773	0.517
315.000	244.829	80.007	19.994	103.873	20.040	2.839	0.495
316.501	245.535	80.009	19.993	103.872	20.043	2.655	0.463
318.000	246.322	80.007	19.994	103.876	20.042	2.725	0.515
319.500	247.108	80.006	19.994	103.878	20.043	2.662	0.504
321.000	247.791	80.007	19.993	103.876	20.046	2.466	0.483
322.500	248.542	80.005	19.994	103.876	20.044	2.573	0.490
324.000	249.340	80.008	19.996	103.880	20.041	2.756	0.517
325.500	250.125	80.006	19.993	103.874	20.044	2.550	0.514
327.000	250.866	80.005	19.994	103.870	20.048	2.330	0.519
328.500	251.669	80.006	19.994	103.878	20.046	2.435	0.527
330.000	252.424	80.005	19.994	103.877	20.045	2.508	0.488
331.500	253.136	80.006	19.993	103.878	20.047	2.358	0.496
333.000	253.918	80.006	19.993	103.882	20.047	2.372	0.512
334.500	254.657	80.006	19.994	103.875	20.047	2.389	0.520
336.000	255.408	80.005	19.992	103.872	20.049	2.240	0.505
337.501	256.151	80.006	19.994	103.870	20.047	2.367	0.495
339.000	256.902	80.005	19.994	103.872	20.046	2.449	0.509
340.500	257.686	80.007	19.994	103.871	20.050	2.148	0.532
342.000	258.442	80.004	19.994	103.882	20.047	2.348	0.502
343.500	259.191	80.004	19.994	103.885	20.051	2.133	0.494
345.000	259.939	80.005	19.994	103.871	20.050	2.183	0.503
346.500	260.702	80.005	19.995	103.872	20.053	2.005	0.502
348.000	261.455	80.004	19.995	103.878	20.051	2.095	0.501
349.500	262.158	80.004	19.995	103.875	20.051	2.084	0.481
351.000	262.949	80.005	19.994	103.872	20.051	2.082	0.497
352.500	263.672	80.005	19.994	103.870	20.049	2.209	0.493
354.000	264.451	80.005	19.995	103.869	20.048	2.313	0.500
355.500	265.193	80.006	19.994	103.868	20.051	2.078	0.481
357.000	265.971	80.006	19.994	103.869	20.051	2.075	0.504
358.500	266.752	80.007	19.994	103.868	20.050	2.172	0.550
360.000	267.464	80.005	19.994	103.868	20.049	2.269	0.489
361.500	268.233	80.006	19.995	103.868	20.051	2.091	0.514
363.000	268.961	80.007	19.994	103.868	20.051	2.124	0.474
364.500	269.721	80.007	19.994	103.868	20.053	1.952	0.512
366.000	270.484	80.005	19.995	103.870	20.050	2.170	0.529
367.500	271.215	80.008	19.994	103.867	20.053	1.981	0.519
369.000	271.999	80.007	19.995	103.866	20.052	2.038	0.533
370.500	272.722	80.007	19.994	103.865	20.050	2.203	0.475
372.000	273.470	80.005	19.994	103.865	20.051	2.122	0.480
373.500	274.206	80.005	19.996	103.864	20.053	1.994	0.503
375.000	274.970	80.006	19.996	103.863	20.052	2.062	0.502
376.500	275.707	80.005	19.995	103.866	20.049	2.225	0.496
378.000	276.492	80.007	19.995	103.868	20.049	2.249	0.520
379.500	277.217	80.007	19.996	103.864	20.050	2.170	0.463
381.000	277.947	80.006	19.994	103.867	20.053	1.957	0.508
382.501	278.705	80.007	19.993	103.869	20.054	1.893	0.506
384.000	279.477	80.007	19.996	103.869	20.054	1.900	0.510
385.500	280.189	80.009	19.994	103.865	20.054	1.884	0.484
387.000	280.916	80.008	19.995	103.865	20.051	2.131	0.499
388.500	281.667	80.009	19.993	103.868	20.051	2.075	0.469
390.000	282.396	80.008	19.993	103.869	20.052	2.021	0.481
391.500	283.157	80.009	19.995	103.870	20.051	2.130	0.501
393.000	283.904	80.008	19.994	103.869	20.050	2.165	0.500
394.501	284.660	80.007	19.993	103.871	20.047	2.345	0.504
396.000	285.381	80.007	19.993	103.865	20.048	2.295	0.496
397.500	286.160	80.009	19.993	103.859	20.049	2.266	0.541
399.000	286.902	80.007	19.993	103.869	20.049	2.271	0.501
400.500	287.646	80.007	19.994	103.870	20.049	2.246	0.484
402.000	288.374	80.006	19.995	103.868	20.050	2.159	0.488
403.500	289.117	80.006	19.994	103.868	20.050	2.187	0.484
405.000	289.863	80.006	19.995	103.870	20.050	2.203	0.473
406.500	290.641	80.006	19.993	103.868	20.047	2.361	0.518
408.000	291.370	80.005	19.994	103.869	20.048	2.313	0.492
409.500	292.124	80.006	19.995	103.871	20.049	2.245	0.505
411.000	292.863	80.005	19.994	103.870	20.051	2.124	0.508
412.500	293.604	80.007	19.994	103.871	20.048	2.275	0.513
414.000	294.377	80.006	19.994	103.871	20.052	2.056	0.492
415.500	295.126	80.006	19.993	103.868	20.052	2.045	0.503
417.000	295.907	80.007	19.993	103.867	20.050	2.144	0.509
418.500	296.646	80.005	19.994	103.868	20.050	2.152	0.485
420.000	297.393	80.006	19.993	103.867	20.052	2.010	0.501
421.500	298.161	80.007	19.994	103.867	20.052	2.056	0.506
423.000	298.932	80.007	19.995	103.869	20.051	2.078	0.491
424.500	299.680	80.007	19.995	103.866	20.048	2.279	0.508
426.000	300.404	80.005	19.992	103.866	20.050	2.143	0.474
427.500	301.178	80.006	19.993	103.864	20.051	2.119	0.505
429.000	301.974	80.006	19.993	103.865	20.052	2.047	0.543
430.500	302.737	80.004	19.994	103.868	20.050	2.179	0.494
432.000	303.477	80.004	19.993	103.867	20.050	2.155	0.502
433.500	304.227	80.006	19.995	103.867	20.051	2.098	0.506
435.000	304.953	80.006	19.994	103.868	20.050	2.181	0.490
436.500	305.733	80.006	19.993	103.869	20.053	1.939	0.516
438.000	306.463	80.005	19.993	103.866	20.048	2.299	0.499
439.500	307.216	80.006	19.994	103.866	20.047	2.370	0.501
441.000	308.022	80.007	19.995	103.869	20.048	2.330	0.510
442.500	308.752	80.007	19.994	103.868	20.048	2.304	0.500
444.000	309.495	80.007	19.995	103.863	20.049	2.244	0.495
445.500	310.244	80.007	19.995	103.864	20.048	2.321	0.504
447.000	311.015	80.007	19.993	103.866	20.044	2.554	0.508
448.500	311.739	80.007	19.994	103.866	20.048	2.339	0.487
450.000	312.557	80.007	19.994	103.867	20.048	2.277	0.535
451.500	313.274	80.007	19.994	103.865	20.048	2.321	0.499
453.000	314.013	80.006	19.994	103.867	20.052	2.051	0.502
454.500	314.792	80.007	19.993	103.870	20.049	2.233	0.514
456.000	315.560	80.005	19.994	103.867	20.047	2.370	0.512
457.500	316.311	80.005	19.994	103.867	20.045	2.493	0.488
459.000	317.072	80.006	19.993	103.870	20.047	2.344	0.485
460.500	317.807	80.007	19.994	103.867	20.051	2.077	0.493
462.000	318.557	80.006	19.996	103.867	20.054	1.889	0.520
463.500	319.297	80.006	19.995	103.869	20.053	1.977	0.500
465.000	320.022	80.006	19.995	103.868	20.048	2.278	0.483
466.500	320.824	80.006	19.993	103.867	20.050	2.179	0.526
468.000	321.589	80.007	19.994	103.867	20.049	2.244	0.529
469.500	322.303	80.009	19.995	103.862	20.044	2.552	0.480
471.000	323.111	80.004	19.995	103.863	20.045	2.480	0.548
472.500	323.835	80.008	19.994	103.858	20.045	2.519	0.486
474.000	324.594	80.007	19.993	103.850	20.047	2.356	0.534
475.500	325.356	80.008	19.994	103.863	20.048	2.308	0.512
477.000	326.132	80.008	19.993	103.865	20.048	2.334	0.512
478.500	326.861	80.008	19.994	103.868	20.048	2.295	0.486
480.001	327.614	80.006	19.994	103.866	20.043	2.640	0.500
481.500	328.328	80.006	19.993	103.865	20.049	2.222	0.482
483.000	329.112	80.006	19.993	103.867	20.047	2.402	0.521
484.500	329.833	80.005	19.993	103.866	20.046	2.413	0.493
486.000	330.627	80.006	19.993	103.864	20.046	2.468	0.531
487.501	331.416	80.006	19.993	103.865	20.049	2.218	0.518
489.000	332.160	80.007	19.993	103.861	20.047	2.387	0.492
490.500	332.902	80.006	19.995	103.862	20.045	2.510	0.504
492.000	333.690	80.005	19.993	103.868	20.049	2.225	0.501
493.500	334.458	80.005	19.994	103.867	20.047	2.343	0.505
495.000	335.202	80.006	19.993	103.868	20.048	2.280	0.495
496.500	336.000	80.005	19.994	103.866	20.044	2.548	0.521
498.000	336.715	80.005	19.994	103.863	20.047	2.387	0.494
499.500	337.485	80.005	19.994	103.865	20.044	2.552	0.511
501.000	338.279	80.007	19.995	103.863	20.047	2.378	0.530
502.500	339.046	80.008	19.994	103.861	20.048	2.302	0.505
504.000	339.782	80.006	19.992	103.866	20.045	2.499	0.487
505.500	340.525	80.007	19.994	103.867	20.048	2.284	0.511
507.000	341.293	80.007	19.994	103.867	20.048	2.315	0.535
508.500	342.057	80.006	19.992	103.860	20.047	2.352	0.511
510.000	342.808	80.005	19.994	103.858	20.046	2.431	0.495
511.500	343.550	80.005	19.994	103.863	20.047	2.392	0.502
513.000	344.339	80.004	19.994	103.859	20.043	2.627	0.515
514.500	345.093	80.006	19.993	103.863	20.047	2.392	0.506
516.000	345.846	80.005	19.996	103.867	20.048	2.339	0.523
517.500	346.579	80.007	19.994	103.869	20.047	2.359	0.489
519.000	347.352	80.005	19.993	103.861	20.046	2.460	0.519
520.500	348.149	80.005	19.993	103.853	20.048	2.298	0.503
522.000	348.882	80.006	19.994	103.864	20.048	2.311	0.496
523.500	349.658	80.006	19.994	103.865	20.044	2.589	0.505
525.000	350.405	80.006	19.994	103.856	20.050	2.179	0.495
526.500	351.158	80.007	19.994	103.858	20.046	2.460	0.498
528.000	351.918	80.007	19.995	103.860	20.045	2.508	0.488
529.500	352.702	80.006	19.994	103.849	20.047	2.398	0.527
531.000	353.470	80.007	19.994	103.855	20.047	2.379	0.507
532.500	354.221	80.007	19.994	103.856	20.044	2.595	0.496
534.000	354.974	80.006	19.995	103.860	20.044	2.576	0.522
535.500	355.730	80.006	19.993	103.865	20.046	2.432	0.506
537.000	356.469	80.006	19.994	103.856	20.045	2.519	0.500
538.500	357.219	80.006	19.994	103.844	20.044	2.598	0.522
540.000	358.000	80.006	19.994	103.860	20.043	2.616	0.494
541.500	358.745	80.006	19.994	103.858	20.041	2.809	0.504
543.000	359.496	80.007	19.994	103.841	20.040	2.834	0.504
544.500	360.221	80.006	19.995	103.852	20.043	2.629	0.491
546.000	360.990	80.006	19.994	103.856	20.047	2.374	0.496
547.500	361.772	80.007	19.993	103.853	20.042	2.708	0.517
549.000	362.479	80.007	19.994	103.851	20.045	2.498	0.473
550.500	363.262	80.006	19.993	103.853	20.045	2.535	0.510
552.000	364.020	80.006	19.993	103.848	20.045	2.538	0.523
553.500	364.746	80.008	19.995	103.850	20.045	2.485	0.479
555.000	365.501	80.006	19.994	103.847	20.042	2.676	0.508
556.500	366.210	80.007	19.993	103.847	20.044	2.592	0.471
558.000	367.052	80.009	19.992	103.845	20.045	2.494	0.561
559.500	367.821	80.007	19.994	103.849	20.041	2.742	0.524
561.000	368.565	80.008	19.995	103.850	20.047	2.368	0.500
562.500	369.340	80.005	19.994	103.842	20.044	2.603	0.520
564.000	370.083	80.005	19.994	103.827	20.045	2.474	0.492
565.500	370.836	80.005	19.994	103.834	20.048	2.335	0.505
567.000	371.579	80.005	19.994	103.841	20.044	2.551	0.498
568.500	372.341	80.005	19.994	103.835	20.048	2.329	0.501
570.000	373.121	80.004	19.994	103.838	20.044	2.542	0.524
571.500	373.925	80.003	19.994	103.849	20.045	2.519	0.535
573.000	374.709	80.005	19.994	103.843	20.046	2.454	0.530
574.500	375.410	80.007	19.993	103.836	20.044	2.572	0.490
576.000	376.187	80.007	19.993	103.847	20.044	2.548	0.528
577.500	376.989	80.006	19.994	103.844	20.043	2.641	0.550
579.000	377.727	80.007	19.993	103.838	20.042	2.715	0.499
580.500	378.507	80.006	19.993	103.845	20.046	2.426	0.487
582.000	379.225	80.007	19.994	103.846	20.047	2.377	0.496
583.500	380.016	80.005	19.995	103.848	20.045	2.489	0.536
585.000	380.733	80.006	19.994	103.841	20.044	2.603	0.500
586.500	381.495	80.006	19.993	103.841	20.042	2.685	0.509
588.000	382.259	80.006	19.994	103.839	20.044	2.559	0.508
589.500	383.009	80.006	19.994	103.836	20.045	2.506	0.506
591.000	383.783	80.006	19.993	103.836	20.047	2.364	0.530
592.500	384.503	80.006	19.994	103.839	20.044	2.561	0.475
594.000	385.235	80.006	19.993	103.846	20.045	2.487	0.501
595.500	386.025	80.005	19.994	103.838	20.047	2.381	0.523
597.000	386.808	80.005	19.994	103.837	20.044	2.605	0.522
598.500	387.561	80.005	19.994	103.847	20.043	2.631	0.503
600.000	388.289	80.004	19.994	103.845	20.043	2.641	0.479
601.500	389.038	80.003	19.994	103.844	20.040	2.873	0.505
603.000	389.838	80.006	19.994	103.841	20.042	2.726	0.523
604.500	390.550	80.006	19.993	103.842	20.044	2.593	0.499
606.000	391.367	80.007	19.993	103.838	20.040	2.854	0.518
607.500	392.101	80.008	19.993	103.849	20.041	2.808	0.501
609.000	392.879	80.007	19.993	103.855	20.039	2.918	0.508
610.501	393.637	80.008	19.992	103.845	20.038	2.961	0.499
612.000	394.429	80.007	19.992	103.835	20.040	2.843	0.536
613.500	395.167	80.009	19.994	103.841	20.037	3.019	0.501
615.000	395.929	80.007	19.993	103.838	20.036	3.122	0.511
616.500	396.687	80.007	19.994	103.834	20.036	3.098	0.512
618.000	397.404	80.009	19.993	103.841	20.035	3.157	0.490
619.500	398.204	80.008	19.994	103.832	20.038	2.951	0.529
621.000	398.953	80.008	19.994	103.839	20.035	3.157	0.490
622.500	399.676	80.006	19.994	103.850	20.036	3.091	0.485
624.000	400.440	80.006	19.994	103.834	20.037	3.034	0.494
625.500	401.201	80.007	19.994	103.830	20.035	3.182	0.516
627.000	401.976	80.008	19.993	103.837	20.034	3.218	0.505
628.500	402.723	80.006	19.993	103.839	20.037	3.047	0.514
630.000	403.474	80.008	19.996	103.833	20.037	3.063	0.530
631.500	404.251	80.008	19.994	103.844	20.038	2.998	0.514
633.000	404.980	80.007	19.995	103.838	20.036	3.122	0.498
634.500	405.757	80.008	19.994	103.833	20.036	3.087	0.502
636.000	406.494	80.010	19.994	103.829	20.037	3.062	0.510
637.500	407.247	80.009	19.994	103.830	20.038	2.961	0.516
639.000	407.976	80.009	19.994	103.841	20.032	3.359	0.480
640.500	408.744	80.008	19.994	103.839	20.034	3.260	0.514
642.000	409.523	80.008	19.994	103.840	20.031	3.422	0.515
643.500	410.296	80.008	19.995	103.844	20.036	3.128	0.514
645.000	411.064	80.006	19.993	103.839	20.032	3.354	0.520
646.500	411.802	80.006	19.994	103.838	20.034	3.275	0.495
648.000	412.549	80.005	19.994	103.838	20.030	3.506	0.482
649.500	413.327	80.005	19.993	103.847	20.032	3.379	0.543
651.000	414.064	80.006	19.993	103.844	20.030	3.495	0.489
652.500	414.830	80.004	19.995	103.844	20.035	3.207	0.523
654.000	415.548	80.006	19.994	103.842	20.032	3.378	0.490
655.500	416.278	80.005	19.994	103.844	20.030	3.501	0.482
657.000	417.095	80.005	19.994	103.856	20.032	3.349	0.542
658.500	417.889	80.005	19.995	103.847	20.031	3.477	0.514
660.000	418.574	80.006	19.994	103.836	20.030	3.537	0.457
661.500	419.387	80.006	19.995	103.848	20.033	3.336	0.533
663.000	420.173	80.005	19.995	103.855	20.031	3.470	0.529
664.500	420.920	80.005	19.994	103.852	20.030	3.508	0.506
666.000	421.718	80.006	19.994	103.852	20.029	3.568	0.528
667.500	422.439	80.007	19.994	103.856	20.034	3.277	0.464
669.000	423.185	80.007	19.993	103.854	20.031	3.431	0.476
670.500	423.992	80.006	19.993	103.844	20.032	3.354	0.522
672.000	424.743	80.006	19.993	103.853	20.028	3.666	0.489
673.500	425.505	80.005	19.994	103.855	20.030	3.510	0.511
675.000	426.238	80.007	19.994	103.850	20.032	3.396	0.507
676.500	427.004	80.007	19.995	103.847	20.030	3.530	0.493
678.000	427.790	80.006	19.994	103.842	20.027	3.715	0.502
679.500	428.568	80.005	19.993	103.850	20.024	3.884	0.529
681.000	429.333	80.007	19.993	103.853	20.029	3.548	0.518
682.500	430.055	80.007	19.994	103.854	20.025	3.844	0.502
684.000	430.866	80.007	19.994	103.847	20.028	3.625	0.511
685.500	431.619	80.006	19.994	103.837	20.025	3.818	0.512
687.000	432.391	80.007	19.993	103.842	20.026	3.757	0.522
688.500	433.136	80.007	19.993	103.838	20.027	3.735	0.512
690.000	433.960	80.007	19.994	103.836	20.022	4.058	0.539
691.500	434.707	80.009	19.994	103.839	20.025	3.853	0.500
693.000	435.448	80.008	19.993	103.840	20.023	4.000	0.499
694.500	436.225	80.007	19.993	103.837	20.020	4.161	0.503
696.000	437.000	80.007	19.994	103.832	20.020	4.156	0.501
697.500	437.761	80.008	19.993	103.839	20.019	4.265	0.521
699.000	438.532	80.008	19.994	103.834	20.017	4.380	0.507
700.500	439.301	80.008	19.994	103.827	20.018	4.329	0.521
702.000	440.074	80.008	19.994	103.837	20.013	4.626	0.494
703.500	440.818	80.008	19.994	103.853	20.017	4.391	0.493
705.000	441.572	80.007	19.992	103.841	20.013	4.679	0.504
706.500	442.369	80.007	19.994	103.835	20.012	4.718	0.539
708.000	443.109	80.008	19.994	103.851	20.009	4.946	0.483
709.500	443.853	80.008	19.993	103.853	20.006	5.120	0.512
711.000	444.631	80.008	19.993	103.855	20.002	5.390	0.535
712.500	445.334	80.007	19.995	103.848	20.001	5.432	0.463
714.000	446.129	80.008	19.994	103.844	20.000	5.546	0.527
715.500	446.876	80.010	19.993	103.846	19.998	5.682	0.485
717.000	447.689	80.009	19.994	103.849	19.990	6.215	0.543
718.500	448.445	80.009	19.993	103.860	19.985	6.499	0.495
720.000	449.191	80.009	19.993	103.863	19.984	6.584	0.507
721.500	449.942	80.007	19.994	103.854	19.978	6.964	0.515
723.000	450.672	80.007	19.994	103.851	19.977	7.078	0.503
724.500	451.439	80.008	19.993	103.849	19.970	7.507	0.534
726.000	452.219	80.007	19.994	103.862	19.963	7.986	0.511
727.500	452.941	80.005	19.993	103.866	19.957	8.376	0.494
729.000	453.715	80.005	19.993	103.866	19.953	8.679	0.515
730.500	454.471	80.006	19.994	103.868	19.947	9.097	0.502
732.000	455.235	80.005	19.994	103.868	19.939	9.589	0.494
733.500	456.004	80.006	19.992	103.864	19.930	10.212	0.505
735.000	456.755	80.006	19.994	103.866	19.922	10.713	0.508
736.500	457.511	80.006	19.993	103.863	19.912	11.397	0.508
738.000	458.288	80.005	19.993	103.867	19.900	12.221	0.517
739.500	459.043	80.005	19.993	103.869	19.890	12.867	0.488
741.000	459.799	80.007	19.994	103.868	19.874	13.936	0.487
742.500	460.576	80.005	19.994	103.866	19.860	14.896	0.509
744.000	461.298	80.006	19.995	103.864	19.848	15.721	0.499
745.500	462.081	80.006	19.994	103.867	19.829	16.949	0.519
747.000	462.843	80.005	19.994	103.873	19.809	18.331	0.536
748.500	463.610	80.006	19.995	103.870	19.789	19.647	0.497
750.000	464.388	80.006	19.995	103.866	19.764	21.303	0.504
751.500	465.136	80.004	19.994	103.880	19.742	22.790	0.500
753.000	465.854	80.006	19.996	103.894	19.722	24.158	0.483
754.500	466.671	80.005	19.994	103.898	19.696	25.891	0.534
756.000	467.389	80.006	19.995	103.897	19.667	27.826	0.492
757.500	468.187	80.006	19.995	103.888	19.636	29.875	0.539
759.000	468.952	80.005	19.995	103.897	19.611	31.553	0.503
760.500	469.663	80.004	19.995	103.903	19.579	33.751	0.479
762.000	470.411	80.006	19.995	103.904	19.546	35.972	0.496
763.500	471.160	80.005	19.993	103.906	19.512	38.266	0.511
765.000	471.903	80.006	19.993	103.911	19.481	40.309	0.509
766.500	472.681	80.006	19.995	103.910	19.461	41.682	0.537
768.000	473.455	80.008	19.994	103.905	19.448	42.554	0.506
769.500	474.252	80.008	19.993	103.902	19.430	43.765	0.551
771.000	475.026	80.006	19.994	103.906	19.416	44.709	0.512
772.500	475.773	80.007	19.993	103.926	19.398	45.902	0.495
774.000	476.545	80.007	19.994	103.966	19.376	47.356	0.538
775.500	477.306	80.007	19.993	103.989	19.352	48.998	0.509
777.000	478.053	80.006	19.994	104.002	19.315	51.455	0.491
778.500	478.800	80.007	19.994	104.003	19.279	53.876	0.492
780.000	479.602	80.007	19.993	104.001	19.236	56.722	0.509
781.500	480.329	80.006	19.993	104.013	19.187	59.994	0.476
783.000	481.104	80.008	19.994	104.022	19.126	64.090	0.506
784.500	481.857	80.006	19.994	104.026	19.061	68.514	0.512
786.000	482.613	80.007	19.993	104.042	18.985	73.620	0.506
787.500	483.373	80.006	19.993	104.046	18.918	78.165	0.486
789.000	484.190	80.007	19.993	104.033	18.865	81.758	0.544
790.500	484.885	80.007	19.994	104.000	18.832	83.953	0.490
792.000	485.623	80.006	19.994	103.977	18.805	85.777	0.479
793.500	486.396	80.007	19.993	103.969	18.781	87.363	0.512
795.000	487.185	80.007	19.993	103.999	18.743	89.939	0.512
796.500	487.910	80.007	19.992	104.065	18.707	92.317	0.483
798.000	488.750	80.007	19.992	104.131	18.655	95.799	0.566
799.500	489.504	80.009	19.993	104.169	18.598	99.686	0.496
801.000	490.266	80.008	19.992	104.181	18.538	103.688	0.500
802.500	491.042	80.007	19.993	104.174	18.470	108.318	0.517
804.000	491.795	80.009	19.993	104.163	18.395	113.380	0.503
805.500	492.646	80.008	19.994	104.155	18.328	117.888	0.549
807.000	493.420	80.006	19.994	104.155	18.255	122.833	0.527
808.500	494.195	80.005	19.994	104.146	18.187	127.398	0.551
810.000	494.943	80.006	19.995	104.149	18.121	131.868	0.503
811.500	495.804	80.005	19.994	104.164	18.056	136.218	0.545
813.000	496.522	80.006	19.994	104.174	17.986	140.919	0.488
814.500	497.313	80.007	19.995	104.198	17.922	145.226	0.513
816.000	498.116	80.005	19.995	104.224	17.858	149.588	0.534
817.500	498.904	80.006	19.996	104.244	17.791	154.123	0.507
819.000	499.705	80.006	19.995	104.254	17.730	158.239	0.546
820.500	500.448	80.007	19.994	104.263	17.663	162.710	0.508
822.000	501.226	80.006	19.995	104.279	17.600	167.025	0.505
823.500	502.015	80.006	19.996	104.293	17.533	171.460	0.523
825.000	502.784	80.005	19.993	104.294	17.471	175.676	0.493
826.500	503.564	80.007	19.994	104.299	17.417	179.328	0.502
828.000	504.345	80.006	19.995	104.316	17.357	183.342	0.506
829.500	505.121	80.007	19.994	104.332	17.307	186.730	0.524
831.000	505.964	80.006	19.993	104.336	17.260	189.880	0.569
832.500	506.708	80.008	19.993	104.352	17.218	192.743	0.520
834.000	507.525	80.007	19.995	104.352	17.179	195.357	0.531
835.500	508.298	80.007	19.994	104.354	17.142	197.881	0.510
837.000	509.055	80.006	19.994	104.371	17.109	200.065	0.513
838.501	509.843	80.006	19.993	104.372	17.085	201.671	0.518
840.000	510.637	80.005	19.995	104.379	17.066	202.998	0.535
841.500	511.412	80.003	19.996	104.376	17.053	203.814	0.528
843.000	512.181	80.005	19.994	104.379	17.045	204.348	0.502
844.500	512.959	80.005	19.994	104.385	17.045	204.343	0.524
846.000	513.765	80.005	19.995	104.388	17.048	204.123	0.525
847.500	514.598	80.006	19.995	104.390	17.065	202.969	0.564
849.000	515.414	80.005	19.995	104.389	17.086	201.554	0.524
850.500	516.187	80.004	19.995	104.379	17.116	199.525	0.510
852.000	516.950	80.006	19.995	104.381	17.155	196.914	0.522
853.500	517.734	80.007	19.994	104.375	17.196	194.063	0.529
855.000	518.554	80.007	19.995	104.375	17.248	190.599	0.529
856.500	519.325	80.007	19.993	104.366	17.308	186.542	0.507
858.000	520.088	80.007	19.993	104.353	17.371	182.313	0.520
859.500	520.897	80.008	19.993	104.341	17.442	177.466	0.530
861.000	521.680	80.008	19.993	104.335	17.517	172.437	0.515
862.500	522.427	80.006	19.993	104.335	17.604	166.562	0.519
864.000	523.203	80.005	19.993	104.322	17.693	160.526	0.519
865.500	524.017	80.007	19.993	104.302	17.786	154.284	0.546
867.000	524.810	80.008	19.993	104.298	17.880	147.939	0.518
868.500	525.571	80.007	19.993	104.295	17.980	141.169	0.524
870.000	526.352	80.008	19.992	104.277	18.078	134.598	0.506
871.500	527.145	80.008	19.994	104.253	18.180	127.703	0.513
873.000	527.899	80.009	19.994	104.240	18.279	121.081	0.530
874.500	528.674	80.009	19.994	104.221	18.378	114.406	0.505
876.000	529.457	80.008	19.993	104.207	18.473	107.984	0.538
877.500	530.251	80.009	19.993	104.185	18.568	101.598	0.528
879.000	530.990	80.010	19.994	104.174	18.658	95.520	0.496
880.500	531.827	80.009	19.993	104.156	18.743	89.824	0.564
882.000	532.594	80.008	19.994	104.136	18.820	84.648	0.498
883.500	533.397	80.009	19.994	104.133	18.902	79.175	0.505
885.000	534.223	80.010	19.993	104.114	18.974	74.297	0.569
886.500	534.941	80.008	19.994	104.093	19.030	70.574	0.498
888.000	535.806	80.008	19.994	104.069	19.096	66.107	0.586
889.500	536.517	80.009	19.994	104.060	19.157	62.047	0.536
891.000	537.342	80.006	19.993	104.044	19.209	58.540	0.502
892.500	538.028	80.007	19.994	104.031	19.268	54.567	0.451
894.000	538.825	80.007	19.994	104.028	19.314	51.484	0.475
895.500	539.644	80.007	19.994	104.021	19.358	48.526	0.540
897.000	540.170	80.006	19.993	104.003	19.393	46.230	0.443
898.500	541.131	80.006	19.993	103.989	19.430	43.743	0.562
900.000	541.572	80.007	19.994	103.982	19.463	41.511	0.390
901.500	542.752	80.007	19.994	103.976	19.493	39.509	0.974
903.000	542.912	80.005	19.994	103.971	19.524	37.384	0.471
904.500	544.103	80.008	19.993	103.954	19.548	35.788	0.843
906.000	545.261	80.006	19.994	103.948	19.573	34.092	0.785
907.500	545.648	80.005	19.994	103.950	19.597	32.536	0.372
909.001	546.391	80.005	19.994	103.946	19.615	31.305	0.484
910.500	547.272	80.007	19.995	103.944	19.635	29.997	0.541
912.000	547.902	80.006	19.993	103.926	19.652	28.835	0.547
913.500	548.741	80.006	19.994	103.910	19.670	27.633	0.581
915.000	549.517	80.006	19.994	103.910	19.684	26.662	0.525
916.500	550.256	80.006	19.994	103.910	19.700	25.623	0.511
918.000	551.043	80.006	19.994	103.907	19.711	24.897	0.506
919.500	551.797	80.005	19.994	103.908	19.723	24.094	0.544
921.000	552.564	80.005	19.994	103.907	19.735	23.293	0.552
922.500	553.314	80.005	19.994	103.908	19.747	22.480	0.515
924.000	554.112	80.005	19.994	103.905	19.758	21.712	0.552
925.500	554.858	80.005	19.994	103.898	19.768	21.057	0.466
927.000	555.609	80.004	19.994	103.894	19.776	20.527	0.498
928.500	556.363	80.005	19.995	103.896	19.780	20.227	0.496
930.000	557.158	80.005	19.994	103.905	19.790	19.549	0.520
931.500	557.872	80.006	19.994	103.901	19.799	18.963	0.497
933.000	558.616	80.007	19.994	103.880	19.802	18.758	0.489
934.500	559.355	80.006	19.994	103.869	19.811	18.176	0.474
936.000	560.105	80.006	19.995	103.874	19.814	18.008	0.483
937.500	560.888	80.007	19.995	103.880	19.821	17.523	0.523
939.000	561.671	80.006	19.996	103.879	19.828	17.052	0.532
940.500	562.391	80.007	19.995	103.873	19.832	16.800	0.467
942.000	563.182	80.007	19.996	103.870	19.839	16.318	0.470
943.500	563.875	80.006	19.995	103.871	19.842	16.084	0.490
945.000	564.670	80.007	19.995	103.875	19.847	15.776	0.505
946.500	565.431	80.007	19.994	103.872	19.850	15.553	0.508
948.000	566.167	80.006	19.995	103.868	19.853	15.395	0.501
949.500	566.955	80.006	19.994	103.863	19.859	14.983	0.504
951.000	567.706	80.006	19.994	103.858	19.860	14.891	0.485
952.500	568.475	80.008	19.993	103.860	19.862	14.759	0.496
954.000	569.253	80.008	19.993	103.861	19.862	14.748	0.516
955.500	570.033	80.008	19.994	103.859	19.866	14.469	0.528
957.000	570.775	80.008	19.993	103.864	19.868	14.373	0.502
958.500	571.549	80.008	19.994	103.866	19.868	14.368	0.507
960.000	572.326	80.008	19.994	103.865	19.869	14.267	0.518
961.500	573.108	80.009	19.993	103.862	19.873	14.046	0.529
963.000	573.893	80.009	19.993	103.863	19.876	13.789	0.516
964.500	574.729	80.009	19.992	103.863	19.879	13.594	0.519
966.000	575.533	80.009	19.994	103.865	19.885	13.205	0.539
967.500	576.295	80.008	19.994	103.864	19.885	13.251	0.499
969.000	577.055	80.007	19.994	103.858	19.887	13.102	0.496
970.500	577.842	80.007	19.994	103.865	19.888	13.045	0.538
972.000	578.590	80.006	19.993	103.860	19.891	12.799	0.497
973.500	579.384	80.007	19.993	103.847	19.894	12.642	0.525
975.000	580.167	80.007	19.993	103.845	19.894	12.617	0.520
976.500	580.902	80.005	19.993	103.854	19.896	12.497	0.499
978.000	581.725	80.005	19.994	103.856	19.897	12.414	0.583
979.500	582.457	80.007	19.994	103.856	19.901	12.174	0.500
981.000	583.252	80.005	19.994	103.855	19.900	12.193	0.534
982.500	584.044	80.006	19.994	103.850	19.899	12.250	0.542
984.000	584.781	80.006	19.994	103.861	19.902	12.085	0.519
985.500	585.498	80.007	19.992	103.864	19.906	11.798	0.453
987.000	586.330	80.007	19.993	103.857	19.904	11.952	0.543
988.500	587.087	80.007	19.994	103.844	19.904	11.955	0.512
990.000	587.870	80.006	19.993	103.846	19.906	11.809	0.511
991.500	588.624	80.006	19.994	103.839	19.911	11.474	0.492
993.000	589.383	80.006	19.994	103.836	19.909	11.618	0.516
994.500	590.142	80.005	19.993	103.834	19.908	11.662	0.512
996.000	590.881	80.006	19.993	103.834	19.908	11.674	0.483
997.500	591.673	80.006	19.993	103.840	19.907	11.723	0.521
999.000	592.417	80.006	19.994	103.846	19.909	11.618	0.485
1000.500	593.208	80.006	19.995	103.832	19.911	11.458	0.541
1002.000	594.006	80.006	19.994	103.828	19.914	11.264	0.521
1003.500	594.757	80.004	19.997	103.830	19.917	11.096	0.500
1005.000	595.540	80.005	19.995	103.834	19.917	11.090	0.515
1006.500	596.330	80.006	19.993	103.828	19.916	11.125	0.537
1008.000	597.086	80.005	19.995	103.830	19.919	10.916	0.507
1009.500	597.852	80.005	19.994	103.830	19.916	11.144	0.506
1011.000	598.619	80.006	19.995	103.828	19.917	11.055	0.497
1012.500	599.359	80.006	19.994	103.829	19.921	10.829	0.478
1014.000	600.131	80.006	19.994	103.828	19.923	10.684	0.528
1015.500	600.921	80.006	19.994	103.822	19.921	10.787	0.523
1017.000	601.683	80.007	19.993	103.824	19.923	10.656	0.516
1018.500	602.420	80.008	19.994	103.828	19.923	10.657	0.518
1020.000	603.236	80.008	19.993	103.827	19.925	10.544	0.556
1021.500	604.005	80.007	19.994	103.831	19.926	10.465	0.518
1023.000	604.702	80.008	19.994	103.831	19.927	10.403	0.467
1024.500	605.491	80.008	19.993	103.828	19.928	10.355	0.536
1026.000	606.289	80.006	19.995	103.834	19.929	10.272	0.525
1027.500	607.018	80.006	19.994	103.826	19.932	10.101	0.483
1029.000	607.749	80.006	19.994	103.824	19.933	9.991	0.507
1030.500	608.554	80.006	19.994	103.826	19.937	9.743	0.527
1032.001	609.332	80.005	19.994	103.826	19.936	9.813	0.491
1033.500	610.061	80.006	19.995	103.827	19.936	9.782	0.478
1035.000	610.832	80.005	19.995	103.826	19.938	9.690	0.505
1036.500	611.629	80.005	19.994	103.826	19.940	9.563	0.505
1038.000	612.385	80.007	19.994	103.827	19.940	9.515	0.504
1039.500	613.127	80.007	19.994	103.827	19.944	9.261	0.504
1041.000	613.927	80.006	19.994	103.825	19.940	9.542	0.531
1042.500	614.702	80.007	19.994	103.821	19.945	9.175	0.519
1044.000	615.481	80.007	19.993	103.822	19.944	9.265	0.529
1045.500	616.235	80.006	19.994	103.823	19.946	9.158	0.492
1047.000	616.988	80.007	19.994	103.818	19.949	8.930	0.494
1048.500	617.792	80.008	19.991	103.816	19.948	9.004	0.551
1050.000	618.548	80.007	19.993	103.825	19.952	8.712	0.521
1051.500	619.309	80.007	19.993	103.827	19.955	8.541	0.492
1053.000	620.054	80.006	19.995	103.827	19.955	8.539	0.496
1054.500	620.847	80.005	19.995	103.829	19.956	8.442	0.523
1056.000	621.593	80.005	19.994	103.823	19.960	8.178	0.496
1057.500	622.361	80.005	19.995	103.824	19.958	8.330	0.522
1059.000	623.139	80.006	19.994	103.830	19.960	8.176	0.536
1060.500	623.902	80.006	19.994	103.829	19.960	8.170	0.501
1062.000	624.662	80.005	19.995	103.823	19.963	7.985	0.493
1063.501	625.473	80.004	19.997	103.821	19.961	8.161	0.527
1065.000	626.238	80.006	19.995	103.825	19.960	8.165	0.500
1066.500	626.995	80.006	19.994	103.809	19.963	8.006	0.510
1068.000	627.745	80.007	19.994	103.815	19.963	8.000	0.489
1069.500	628.518	80.008	19.995	103.825	19.965	7.891	0.506
1071.000	629.270	80.007	19.994	103.823	19.968	7.663	0.500
1072.500	630.046	80.006	19.994	103.818	19.970	7.551	0.509
1074.000	630.801	80.006	19.994	103.821	19.970	7.521	0.495
1075.501	631.518	80.005	19.995	103.810	19.972	7.398	0.484
1077.000	632.314	80.008	19.994	103.804	19.972	7.371	0.525
1078.500	633.070	80.007	19.994	103.822	19.973	7.326	0.505
1080.000	633.792	80.007	19.994	103.819	19.973	7.353	0.501
1081.500	634.562	80.007	19.994	103.807	19.975	7.201	0.522
1083.000	635.337	80.006	19.992	103.806	19.972	7.364	0.514
1084.500	636.119	80.006	19.994	103.806	19.974	7.235	0.521
1086.000	636.870	80.005	19.994	103.803	19.974	7.274	0.502
1087.500	637.613	80.007	19.994	103.799	19.974	7.283	0.497
1089.000	638.340	80.006	19.994	103.811	19.977	7.075	0.477
1090.500	639.141	80.006	19.994	103.818	19.977	7.025	0.536
1092.000	639.857	80.006	19.995	103.816	19.980	6.866	0.479
1093.500	640.652	80.007	19.995	103.819	19.978	6.992	0.536
1095.000	641.362	80.006	19.995	103.809	19.980	6.830	0.490
1096.501	642.132	80.006	19.994	103.814	19.982	6.728	0.523
1098.000	642.881	80.008	19.995	103.810	19.981	6.763	0.493
1099.500	643.637	80.009	19.993	103.802	19.981	6.796	0.501
1101.000	644.385	80.007	19.995	103.795	19.979	6.915	0.496
1102.500	645.152	80.008	19.995	103.804	19.983	6.650	0.493
1104.000	645.931	80.009	19.996	103.818	19.981	6.794	0.499
1105.500	646.683	80.007	19.995	103.821	19.984	6.601	0.507
1107.000	647.452	80.007	19.994	103.805	19.984	6.557	0.501
1108.500	648.169	80.007	19.994	103.796	19.985	6.534	0.483
1110.000	648.951	80.007	19.993	103.799	19.989	6.238	0.512
1111.501	649.720	80.007	19.994	103.798	19.990	6.218	0.508
1113.000	650.484	80.006	19.994	103.803	19.988	6.303	0.494
1114.501	651.230	80.007	19.995	103.812	19.989	6.253	0.516
1116.000	651.998	80.006	19.994	103.818	19.990	6.173	0.511
1117.500	652.752	80.007	19.993	103.818	19.992	6.056	0.511
1119.000	653.525	80.007	19.994	103.809	19.992	6.061	0.517
1120.500	654.261	80.008	19.994	103.801	19.988	6.297	0.492
1122.000	655.080	80.006	19.995	103.796	19.992	6.073	0.534
1123.500	655.884	80.007	19.995	103.805	19.994	5.923	0.536
1125.000	656.639	80.008	19.996	103.803	19.992	6.046	0.500
1126.500	657.376	80.009	19.993	103.806	19.993	5.990	0.484
1128.000	658.166	80.008	19.994	103.811	19.991	6.131	0.514
1129.500	658.922	80.009	19.995	103.821	19.987	6.407	0.528
1131.000	659.668	80.008	19.995	103.802	19.988	6.334	0.478
1132.500	660.398	80.008	19.994	103.802	19.989	6.277	0.496
1134.000	661.180	80.008	19.995	103.801	19.989	6.267	0.529
1135.500	661.961	80.007	19.994	103.799	19.992	6.025	0.530
1137.000	662.740	80.007	19.994	103.790	19.994	5.920	0.514
1138.501	663.432	80.005	19.994	103.786	19.991	6.144	0.467
1140.000	664.232	80.007	19.993	103.796	19.992	6.027	0.526
1141.500	664.931	80.006	19.993	103.807	19.992	6.046	0.439
1143.000	665.712	80.006	19.993	103.799	19.993	6.002	0.514
1144.500	666.503	80.007	19.993	103.792	19.993	5.988	0.490
1146.000	667.245	80.007	19.993	103.794	19.993	5.987	0.463
1147.500	667.976	80.007	19.994	103.792	19.996	5.800	0.498
1149.000	668.737	80.007	19.993	103.791	19.994	5.918	0.524
1150.500	669.526	80.007	19.994	103.788	19.996	5.800	0.492
1152.000	670.225	80.006	19.995	103.784	19.995	5.864	0.511
1153.501	670.961	80.007	19.993	103.770	19.997	5.691	0.511
1155.000	671.779	80.008	19.994	103.787	19.999	5.576	0.516
1156.500	672.522	80.007	19.994	103.797	19.997	5.699	0.554
1158.000	673.326	80.007	19.994	103.806	19.995	5.847	0.577
1159.500	674.099	80.007	19.993	103.813	19.998	5.636	0.538
1161.000	674.862	80.008	19.993	103.805	19.995	5.825	0.518
1162.500	675.595	80.006	19.993	103.800	19.997	5.699	0.514
1164.000	676.363	80.006	19.993	103.796	19.998	5.636	0.504
1165.500	677.114	80.006	19.994	103.792	19.996	5.785	0.484
1167.000	677.872	80.008	19.994	103.792	19.994	5.888	0.518
1168.500	678.657	80.006	19.994	103.791	19.995	5.824	0.542
1170.000	679.460	80.006	19.994	103.792	19.993	6.014	0.511
1171.500	680.117	80.005	19.995	103.796	19.995	5.832	0.431
1173.000	680.856	80.006	19.993	103.795	19.995	5.862	0.506
1174.500	681.615	80.007	19.994	103.794	19.996	5.809	0.491
1176.000	682.363	80.006	19.995	103.793	19.994	5.899	0.505
1177.500	683.136	80.007	19.994	103.795	19.995	5.831	0.527
1179.001	683.876	80.007	19.994	103.799	19.997	5.689	0.509
1180.500	684.640	80.008	19.994	103.794	19.996	5.761	0.525
1182.001	685.406	80.007	19.995	103.803	19.997	5.702	0.520
1183.501	686.019	80.008	19.994	103.807	19.995	5.873	0.465
1185.000	686.959	80.007	19.993	103.798	19.994	5.937	0.590
1186.500	687.754	80.008	19.994	103.796	19.994	5.929	0.508
1188.001	688.508	80.009	19.994	103.792	19.994	5.887	0.530
1189.500	689.246	80.006	19.994	103.793	19.996	5.753	0.513
1191.001	690.005	80.007	19.995	103.791	19.994	5.937	0.491
1192.500	690.779	80.008	19.994	103.789	19.994	5.885	0.492
1194.000	691.576	80.006	19.994	103.787	19.990	6.159	0.522
1195.500	692.330	80.008	19.995	103.787	19.995	5.865	0.519
1197.000	693.125	80.006	19.994	103.785	19.995	5.869	0.533
1198.500	693.852	80.007	19.994	103.782	19.991	6.120	0.493
1200.000	694.632	80.006	19.996	103.786	19.998	5.669	0.520
1201.501	695.459	80.007	19.995	103.786	19.994	5.942	0.549
1203.000	696.190	80.009	19.995	103.786	19.995	5.847	0.498
1204.500	696.955	80.010	19.994	103.787	19.995	5.883	0.505
1206.000	697.754	80.009	19.994	103.792	19.992	6.080	0.531
1207.502	698.481	80.009	19.994	103.788	19.994	5.929	0.510
1209.001	699.284	80.009	19.994	103.786	19.991	6.144	0.559
1210.500	700.022	80.008	19.995	103.786	19.990	6.170	0.491
1212.000	700.802	80.008	19.993	103.784	19.992	6.036	0.511
1213.501	701.549	80.008	19.995	103.784	19.992	6.056	0.491
1215.001	702.314	80.009	19.993	103.785	19.991	6.095	0.513
1216.500	703.109	80.008	19.994	103.785	19.995	5.878	0.535
1218.001	703.834	80.007	19.994	103.786	19.992	6.034	0.492
1219.500	704.614	80.006	19.995	103.785	19.988	6.317	0.505
1221.000	705.369	80.006	19.996	103.786	19.987	6.390	0.516
1222.500	706.100	80.005	19.996	103.787	19.988	6.348	0.476
1224.000	706.833	80.007	19.995	103.782	19.987	6.353	0.501
1225.500	707.672	80.005	19.995	103.786	19.990	6.163	0.545
1227.000	708.417	80.006	19.996	103.788	19.990	6.159	0.491
1228.500	709.152	80.006	19.995	103.790	19.989	6.263	0.475
1230.000	709.921	80.006	19.995	103.789	19.992	6.076	0.522
1231.500	710.628	80.006	19.994	103.788	19.990	6.212	0.476
1233.000	711.432	80.005	19.994	103.788	19.989	6.229	0.516
1234.500	712.129	80.007	19.994	103.785	19.989	6.247	0.453
1236.001	712.906	80.005	19.993	103.788	19.992	6.052	0.528
1237.500	713.582	80.006	19.994	103.789	19.991	6.118	0.471
1239.000	714.403	80.007	19.993	103.789	19.988	6.317	0.540
1240.500	715.175	80.009	19.993	103.792	19.991	6.107	0.517
1242.000	715.911	80.007	19.995	103.792	19.990	6.181	0.513
1243.500	716.709	80.007	19.994	103.790	19.990	6.199	0.510
1245.000	717.449	80.006	19.994	103.791	19.992	6.040	0.510
1246.500	718.171	80.006	19.993	103.786	19.990	6.159	0.490
1248.000	718.925	80.005	19.994	103.783	19.988	6.320	0.486
1249.500	719.681	80.005	19.994	103.787	19.991	6.136	0.496
1251.000	720.473	80.006	19.993	103.786	19.987	6.360	0.524
1252.500	721.182	80.006	19.994	103.788	19.986	6.445	0.465
1254.000	721.938	80.005	19.994	103.778	19.988	6.327	0.499
1255.500	722.702	80.007	19.993	103.781	19.986	6.461	0.496
1257.000	723.443	80.007	19.993	103.790	19.985	6.496	0.504
1258.500	724.216	80.006	19.995	103.784	19.985	6.527	0.507
1260.000	724.961	80.008	19.994	103.779	19.987	6.413	0.480
1261.500	725.766	80.008	19.994	103.785	19.984	6.583	0.529
1263.000	726.497	80.007	19.994	103.785	19.982	6.721	0.505
1264.500	727.287	80.009	19.994	103.786	19.981	6.760	0.516
1266.000	728.014	80.008	19.994	103.787	19.986	6.483	0.510
1267.500	728.791	80.008	19.993	103.786	19.986	6.441	0.516
1269.000	729.554	80.007	19.994	103.785	19.987	6.408	0.519
1270.500	730.298	80.009	19.993	103.778	19.985	6.502	0.477
1272.000	731.037	80.008	19.994	103.770	19.987	6.379	0.471
1273.500	731.813	80.008	19.993	103.775	19.987	6.377	0.525
1275.000	732.592	80.008	19.994	103.782	19.987	6.392	0.534
1276.500	733.306	80.008	19.993	103.783	19.985	6.502	0.488
1278.000	734.083	80.007	19.995	103.786	19.987	6.360	0.507
1279.500	734.904	80.008	19.994	103.784	19.988	6.329	0.544
1281.000	735.577	80.008	19.994	103.782	19.983	6.672	0.477
1282.500	736.361	80.008	19.995	103.783	19.984	6.558	0.545
1284.000	737.094	80.008	19.994	103.782	19.984	6.589	0.486
1285.500	737.872	80.009	19.995	103.784	19.984	6.602	0.514
1287.000	738.666	80.008	19.995	103.786	19.985	6.545	0.517
1288.500	739.408	80.008	19.994	103.780	19.984	6.583	0.498
1290.000	740.220	80.008	19.994	103.773	19.985	6.499	0.519
1291.500	740.961	80.010	19.993	103.774	19.984	6.586	0.505
1293.001	741.711	80.007	19.993	103.781	19.982	6.734	0.470
1294.501	742.491	80.010	19.994	103.773	19.984	6.557	0.512
1296.000	743.237	80.008	19.993	103.777	19.983	6.681	0.499
1296.500	743.473	80.008	19.993	103.782	19.984	6.595	0.504