File: 01_Data/Face_Shield/MCC/Face_Shield_MCC_30K_min_220207_R1.txt
Sample ID:	C:\MCC\MCC Cal\Test\Shield_MCC_30K_min_220207_R1.txt
Sample Weight (mg):	4.17
Heating Rate (C/s):	0.5
Combustor Temp (C):	900
N2 Flow Rate (cc/min):	80
O2 Flow Rate (cc/min):	20
Calibration File:	C:\MCC\MCC Cal\Coeff1 JN10440_30_210304.txt.txt
T Correction Coefficients:	0	1.024463	0
Time Shift (s):	14
*
Time (s)	Temperature (C)	N2 flow rate (cc/min)	O2 flow rate (cc/min)	Flow Rate (cc/min)	Oxygen (%)	HRR (W/g)	Heating rate (C/s)
0.000	112.229	80.003	19.994	103.680	20.113	0.428	-0.019
2.000	112.245	80.004	19.994	103.673	20.113	0.415	0.006
4.000	112.240	80.006	19.993	103.673	20.110	0.593	0.018
6.000	112.217	80.008	19.993	103.675	20.112	0.457	-0.010
8.000	112.175	80.006	19.993	103.673	20.113	0.419	-0.040
10.000	112.182	80.005	19.993	103.673	20.111	0.549	-0.012
12.000	112.183	80.007	19.993	103.675	20.111	0.579	0.015
14.000	112.191	80.005	19.991	103.677	20.111	0.560	-0.009
16.000	112.162	80.004	19.995	103.680	20.107	0.863	-0.004
18.000	112.169	80.002	19.994	103.698	20.112	0.501	-0.027
20.000	112.149	80.002	19.992	103.716	20.107	0.818	-0.016
22.000	112.177	80.003	19.994	103.742	20.104	1.093	0.010
24.000	112.219	80.002	19.994	103.794	20.096	1.723	0.028
26.000	112.294	80.003	19.994	103.834	20.089	2.259	0.016
28.000	112.417	80.003	19.994	103.866	20.083	2.715	0.048
30.000	112.568	80.003	19.994	103.871	20.079	3.043	0.106
32.000	112.748	80.003	19.992	103.813	20.079	3.016	0.106
34.000	112.982	80.003	19.992	103.921	20.082	2.830	0.126
36.001	113.214	80.004	19.992	103.904	20.077	3.171	0.106
38.000	113.488	80.004	19.993	103.874	20.072	3.570	0.106
40.000	113.798	80.004	19.993	103.880	20.076	3.261	0.138
42.001	114.123	80.004	19.993	103.877	20.074	3.395	0.155
44.000	114.454	80.005	19.993	103.874	20.071	3.687	0.166
46.000	114.878	80.004	19.993	103.871	20.074	3.405	0.209
48.001	115.241	80.004	19.993	103.872	20.066	4.062	0.219
50.001	115.622	80.003	19.993	103.872	20.065	4.085	0.229
52.000	116.027	80.003	19.994	103.870	20.070	3.761	0.202
54.000	116.460	80.004	19.994	103.869	20.064	4.227	0.209
56.000	116.946	80.004	19.995	103.870	20.066	4.007	0.247
58.000	117.382	80.004	19.993	103.871	20.066	4.063	0.237
60.000	117.869	80.004	19.994	103.867	20.068	3.905	0.248
62.000	118.317	80.006	19.995	103.869	20.063	4.240	0.222
64.000	118.845	80.005	19.994	103.874	20.063	4.283	0.230
66.000	119.329	80.007	19.994	103.895	20.064	4.223	0.234
68.000	119.878	80.006	19.993	103.892	20.058	4.688	0.289
70.000	120.450	80.006	19.993	103.901	20.061	4.464	0.281
72.001	121.031	80.006	19.994	103.901	20.062	4.326	0.274
74.001	121.619	80.003	19.994	103.896	20.057	4.722	0.307
76.000	122.229	80.004	19.995	103.907	20.062	4.324	0.313
78.000	122.879	80.006	19.994	103.907	20.057	4.728	0.335
80.000	123.503	80.004	19.994	103.908	20.059	4.585	0.328
82.000	124.069	80.003	19.993	103.909	20.053	5.017	0.278
84.000	124.745	80.003	19.996	103.914	20.058	4.680	0.312
86.000	125.442	80.005	19.994	103.919	20.055	4.895	0.323
88.000	126.117	80.005	19.994	103.935	20.056	4.804	0.329
90.000	126.816	80.005	19.993	103.945	20.050	5.269	0.385
92.000	127.517	80.006	19.993	103.938	20.050	5.311	0.341
94.000	128.280	80.006	19.995	103.918	20.052	5.096	0.396
96.000	129.029	80.001	19.997	103.917	20.050	5.258	0.381
98.000	129.795	80.005	19.994	103.912	20.051	5.236	0.384
100.000	130.567	80.006	19.994	103.932	20.048	5.408	0.359
102.000	131.334	80.002	19.993	103.921	20.050	5.274	0.375
104.000	132.084	80.004	19.993	103.927	20.050	5.287	0.386
106.001	132.943	80.004	19.991	103.928	20.047	5.543	0.420
108.001	133.702	80.002	19.994	103.916	20.051	5.247	0.393
110.000	134.573	80.003	19.992	103.929	20.051	5.207	0.422
112.001	135.348	80.004	19.993	103.923	20.049	5.346	0.394
114.000	136.234	80.005	19.993	103.918	20.050	5.262	0.424
116.001	137.064	80.004	19.992	103.920	20.049	5.358	0.423
118.000	137.899	80.005	19.994	103.924	20.048	5.418	0.420
120.000	138.770	80.005	19.993	103.919	20.051	5.218	0.436
122.000	139.648	80.006	19.992	103.927	20.048	5.456	0.453
124.000	140.496	80.005	19.993	103.935	20.047	5.538	0.418
126.000	141.400	80.005	19.994	103.922	20.047	5.485	0.468
128.001	142.321	80.005	19.993	103.920	20.047	5.562	0.454
130.000	143.162	80.005	19.994	103.932	20.046	5.591	0.433
132.000	144.107	80.004	19.994	103.920	20.044	5.783	0.442
134.000	145.007	80.004	19.994	103.921	20.044	5.755	0.478
136.000	145.939	80.005	19.995	103.933	20.046	5.594	0.492
138.000	146.832	80.004	19.993	103.948	20.044	5.753	0.459
140.000	147.751	80.004	19.994	103.934	20.050	5.288	0.462
142.000	148.683	80.003	19.994	103.936	20.046	5.576	0.458
144.000	149.591	80.004	19.994	103.939	20.046	5.604	0.466
146.000	150.569	80.005	19.993	103.945	20.045	5.651	0.446
148.000	151.480	80.004	19.993	103.933	20.047	5.486	0.480
150.000	152.406	80.004	19.994	103.923	20.046	5.587	0.450
152.000	153.366	80.004	19.993	103.926	20.047	5.531	0.482
154.000	154.318	80.003	19.994	103.944	20.050	5.320	0.482
156.001	155.308	80.004	19.996	103.932	20.047	5.497	0.514
158.001	156.212	80.002	19.993	103.929	20.045	5.650	0.474
160.000	157.170	80.004	19.994	103.939	20.043	5.866	0.465
162.000	158.187	80.005	19.994	103.923	20.045	5.665	0.482
164.000	159.108	80.004	19.994	103.930	20.044	5.761	0.466
166.001	160.124	80.004	19.994	103.932	20.042	5.914	0.501
168.000	161.156	80.003	19.993	103.923	20.047	5.556	0.516
170.000	162.114	80.003	19.994	103.928	20.047	5.560	0.484
172.000	163.067	80.005	19.994	103.924	20.046	5.586	0.493
174.000	164.068	80.008	19.992	103.928	20.046	5.586	0.489
176.000	165.056	80.007	19.992	103.922	20.045	5.658	0.489
178.000	166.058	80.005	19.993	103.907	20.045	5.679	0.503
180.001	167.023	80.006	19.993	103.912	20.048	5.464	0.466
182.000	168.027	80.004	19.995	103.906	20.046	5.596	0.484
184.000	169.050	80.003	19.995	103.914	20.049	5.344	0.517
186.000	170.050	80.005	19.991	103.911	20.049	5.398	0.490
188.000	171.047	80.001	19.995	103.904	20.049	5.336	0.517
190.000	172.012	80.003	19.995	103.906	20.045	5.690	0.497
192.000	173.004	80.003	19.994	103.905	20.049	5.372	0.494
194.000	174.022	80.003	19.997	103.904	20.047	5.530	0.495
196.000	175.043	80.006	19.994	103.899	20.044	5.792	0.495
198.000	176.048	80.006	19.994	103.911	20.047	5.532	0.508
200.000	177.031	80.007	19.994	103.906	20.051	5.208	0.494
202.000	178.024	80.005	19.995	103.910	20.050	5.310	0.500
204.000	178.985	80.008	19.992	103.908	20.048	5.423	0.474
206.000	180.004	80.006	19.993	103.903	20.049	5.383	0.504
208.000	180.986	80.010	19.990	103.907	20.049	5.336	0.485
210.000	181.968	80.006	19.994	103.911	20.051	5.238	0.504
212.000	182.974	80.005	19.993	103.908	20.050	5.308	0.467
214.000	183.990	80.001	19.994	103.901	20.051	5.191	0.502
216.000	184.965	80.003	19.993	103.902	20.049	5.369	0.479
218.000	185.964	80.002	19.994	103.904	20.049	5.330	0.509
220.000	186.958	79.997	19.994	103.911	20.048	5.468	0.494
222.000	187.950	80.005	19.994	103.902	20.049	5.368	0.504
224.000	188.910	80.003	19.993	103.909	20.048	5.407	0.486
226.000	189.873	80.004	19.994	103.895	20.050	5.294	0.487
228.000	190.879	80.005	19.995	103.899	20.048	5.414	0.490
230.000	191.876	80.004	19.993	103.910	20.047	5.537	0.499
232.000	192.784	80.011	19.988	103.911	20.044	5.772	0.429
234.000	193.830	80.004	19.998	103.897	20.044	5.789	0.483
236.000	194.780	80.004	19.992	103.883	20.043	5.819	0.502
238.000	195.724	80.009	19.991	103.877	20.046	5.629	0.449
240.000	196.671	80.005	19.996	103.885	20.046	5.589	0.458
242.000	197.640	80.002	19.994	103.882	20.045	5.689	0.478
244.000	198.647	80.007	19.994	103.887	20.044	5.744	0.489
246.000	199.576	80.001	19.994	103.884	20.042	5.940	0.441
248.000	200.597	80.003	19.993	103.890	20.042	5.947	0.522
250.000	201.593	80.007	19.990	103.886	20.045	5.714	0.533
252.000	202.597	80.001	19.995	103.893	20.042	5.876	0.495
254.000	203.590	80.007	19.992	103.879	20.043	5.847	0.489
256.000	204.574	80.014	19.996	103.884	20.042	5.874	0.475
258.000	205.580	80.004	19.996	103.886	20.042	5.911	0.503
260.000	206.547	80.009	19.993	103.893	20.042	5.910	0.446
262.000	207.569	80.007	19.995	103.872	20.043	5.805	0.459
264.000	208.635	80.007	19.990	103.892	20.040	6.100	0.535
266.000	209.596	80.011	19.991	103.884	20.045	5.681	0.481
268.000	210.612	80.006	19.996	103.887	20.043	5.796	0.482
270.000	211.604	80.013	19.994	103.887	20.044	5.739	0.497
272.000	212.600	80.002	19.998	103.882	20.038	6.210	0.462
274.000	213.637	80.008	19.994	103.874	20.041	5.947	0.483
276.000	214.638	80.005	19.990	103.883	20.050	5.260	0.506
278.000	215.612	79.993	19.993	103.805	20.060	4.500	0.473
280.000	216.508	80.009	19.999	103.688	20.072	3.530	0.420
282.000	217.309	80.006	19.999	103.536	20.091	2.116	0.366
284.000	217.931	80.003	19.994	103.490	20.098	1.566	0.280
286.000	218.383	80.008	19.993	103.472	20.105	0.987	0.188
288.000	218.735	80.012	19.989	103.469	20.117	0.064	0.162
290.000	218.954	80.007	20.000	103.463	20.118	0.019	0.099
292.000	219.057	80.006	19.995	103.447	20.115	0.206	0.025
294.000	219.080	79.990	19.996	103.447	20.121	-0.204	-0.030
296.000	219.005	80.003	19.994	103.450	20.122	-0.306	-0.034
298.000	218.805	80.003	19.991	103.442	20.117	0.091	-0.098
300.000	218.530	80.005	19.994	103.445	20.121	-0.214	-0.138
302.000	218.192	80.013	19.994	103.450	20.127	-0.690	-0.176
304.000	217.716	80.010	19.992	103.453	20.118	-0.021	-0.218
306.000	217.256	79.998	19.994	103.442	20.120	-0.142	-0.235
308.000	216.712	80.006	19.995	103.438	20.125	-0.539	-0.301
310.000	216.107	80.002	19.995	103.445	20.127	-0.705	-0.363
312.000	215.432	79.981	19.995	103.438	20.125	-0.503	-0.317
314.000	214.789	80.007	19.992	103.431	20.126	-0.584	-0.317
316.000	214.009	80.003	19.998	103.446	20.126	-0.609	-0.376
318.000	213.295	80.009	19.992	103.441	20.130	-0.955	-0.367
320.000	212.472	80.008	19.992	103.437	20.128	-0.775	-0.363
322.000	211.639	80.012	19.992	103.438	20.130	-0.893	-0.412
324.000	210.802	80.005	19.992	103.438	20.130	-0.910	-0.454
326.000	209.932	80.005	19.993	103.436	20.134	-1.261	-0.438
328.000	209.023	79.984	19.994	103.440	20.129	-0.857	-0.439
330.000	208.153	80.000	19.991	103.442	20.134	-1.261	-0.469
332.000	207.174	80.012	19.993	103.443	20.132	-1.046	-0.452
334.000	206.239	80.002	19.994	103.430	20.133	-1.189	-0.471
336.000	205.280	80.011	19.995	103.439	20.134	-1.225	-0.506
338.000	204.328	80.000	19.996	103.448	20.131	-1.038	-0.474
340.000	203.404	80.018	19.993	103.444	20.136	-1.422	-0.506
342.000	202.419	80.015	19.993	103.444	20.133	-1.129	-0.482
344.000	201.359	80.013	19.994	103.462	20.129	-0.869	-0.563
346.000	200.359	80.011	19.994	103.455	20.131	-1.023	-0.523
348.000	199.410	80.006	19.994	103.465	20.133	-1.172	-0.508
350.000	198.398	80.002	19.994	103.481	20.128	-0.790	-0.511
352.000	197.411	80.011	19.992	103.404	20.127	-0.694	-0.501
354.000	196.417	80.011	19.992	103.519	20.132	-1.049	-0.515
356.000	195.429	80.000	19.995	103.487	20.129	-0.856	-0.511
358.000	194.429	79.995	19.993	103.474	20.131	-0.987	-0.465
360.000	193.448	80.007	19.993	103.474	20.131	-1.006	-0.504
362.000	192.447	80.008	19.993	103.479	20.131	-1.011	-0.497
364.000	191.465	80.005	19.994	103.479	20.127	-0.726	-0.476
366.000	190.459	80.012	19.992	103.474	20.126	-0.652	-0.515
368.000	189.511	80.005	19.994	103.483	20.125	-0.554	-0.499
370.000	188.545	80.014	19.993	103.483	20.124	-0.429	-0.460
372.000	187.626	80.007	19.994	103.483	20.125	-0.565	-0.447
374.000	186.666	80.011	19.993	103.485	20.123	-0.416	-0.483
376.000	185.709	80.003	19.998	103.484	20.120	-0.174	-0.477
378.000	184.721	80.004	19.996	103.494	20.122	-0.293	-0.470
380.000	183.744	80.001	19.997	103.478	20.125	-0.539	-0.458
382.000	182.828	79.998	19.995	103.480	20.121	-0.263	-0.479
384.000	181.860	79.984	19.996	103.499	20.124	-0.433	-0.483
386.000	180.968	80.013	19.993	103.497	20.118	0.036	-0.455
388.000	180.089	80.012	19.997	103.502	20.118	0.011	-0.477
390.000	179.177	79.979	19.997	103.509	20.114	0.346	-0.501
392.000	178.283	79.997	19.996	103.517	20.119	-0.108	-0.439
394.000	177.418	80.025	19.993	103.518	20.113	0.410	-0.469
396.000	176.556	80.004	19.994	103.521	20.116	0.144	-0.451
398.000	175.745	80.002	19.994	103.514	20.114	0.329	-0.440
400.000	174.897	80.011	19.991	103.519	20.119	-0.064	-0.408
402.000	174.000	80.009	19.992	103.516	20.110	0.599	-0.433
404.000	173.178	80.001	19.993	103.504	20.115	0.246	-0.442
406.000	172.383	80.010	19.994	103.511	20.113	0.370	-0.429
408.000	171.565	80.006	19.993	103.514	20.111	0.576	-0.443
410.000	170.801	80.006	19.993	103.514	20.112	0.444	-0.393
412.000	169.997	79.995	19.994	103.522	20.108	0.769	-0.437
414.000	169.222	80.007	19.994	103.521	20.111	0.546	-0.381
416.000	168.434	80.002	19.993	103.522	20.113	0.414	-0.383
418.000	167.691	80.010	19.993	103.527	20.112	0.474	-0.355
420.000	166.975	80.008	19.993	103.533	20.108	0.750	-0.360
422.000	166.220	80.009	19.993	103.535	20.109	0.699	-0.350
424.000	165.490	80.014	19.992	103.532	20.108	0.795	-0.375
426.000	164.744	80.006	19.994	103.529	20.105	1.041	-0.369
428.000	164.004	80.012	19.992	103.535	20.103	1.175	-0.367
430.000	163.329	80.011	19.992	103.542	20.107	0.873	-0.333
432.000	162.679	80.016	19.992	103.533	20.107	0.872	-0.343
434.000	161.960	80.011	19.993	103.544	20.110	0.614	-0.350
436.000	161.278	80.006	19.993	103.557	20.108	0.821	-0.367
438.000	160.602	80.005	19.993	103.557	20.105	1.021	-0.342
440.000	159.914	79.987	19.996	103.547	20.088	2.326	-0.342
442.000	159.299	80.002	19.993	103.602	20.043	5.888	-0.295
444.000	158.808	79.997	19.994	104.349	19.991	9.938	-0.229
446.000	158.659	80.014	19.992	104.781	19.951	13.117	-0.045
448.000	158.854	79.995	19.995	104.818	19.921	15.457	0.115
450.000	159.415	80.003	19.993	104.789	19.904	16.762	0.317
452.000	160.276	79.999	19.995	104.753	19.894	17.538	0.445
454.000	161.468	80.004	19.995	104.724	19.889	17.899	0.590
456.000	162.849	80.006	19.994	104.695	19.890	17.859	0.736
458.000	164.538	80.003	19.994	104.679	19.890	17.824	0.857
460.000	166.438	80.010	19.995	104.643	19.890	17.828	0.954
462.000	168.470	80.004	19.994	104.622	19.897	17.289	1.040
464.000	170.747	80.007	19.993	104.596	19.901	16.926	1.126
466.000	173.169	80.004	19.994	104.562	19.904	16.675	1.207
468.000	175.707	80.006	19.993	104.538	19.910	16.258	1.264
470.000	178.354	80.003	19.994	104.504	19.916	15.752	1.357
472.000	181.094	80.002	19.996	104.459	19.923	15.235	1.365
474.000	183.984	80.004	19.996	104.417	19.931	14.606	1.422
476.000	186.948	80.005	19.995	104.386	19.935	14.257	1.518
478.000	189.911	80.006	19.997	104.364	19.942	13.737	1.471
480.000	192.959	80.004	19.995	104.342	19.943	13.638	1.501
482.000	196.009	80.004	19.994	104.317	19.946	13.416	1.543
484.000	199.113	80.000	19.994	104.298	19.949	13.179	1.583
486.000	202.165	80.009	19.994	104.288	19.958	12.484	1.532
488.000	205.338	80.006	19.992	104.259	19.956	12.622	1.585
490.000	208.483	80.001	19.993	104.263	19.961	12.251	1.571
492.000	211.651	80.002	19.994	104.240	19.965	11.916	1.586
494.000	214.764	80.006	19.995	104.221	19.968	11.722	1.581
496.000	217.896	80.002	19.994	104.197	19.972	11.393	1.582
498.000	220.944	80.001	19.994	104.191	19.975	11.123	1.543
500.000	224.075	80.003	19.993	104.182	19.978	10.878	1.529
502.000	227.098	80.007	19.993	104.166	19.984	10.471	1.498
504.000	230.189	80.006	19.994	104.149	19.984	10.459	1.528
506.000	233.234	80.007	19.992	104.143	19.984	10.435	1.547
508.000	236.226	80.004	19.994	104.143	19.984	10.474	1.513
510.000	239.216	80.004	19.994	104.136	19.990	10.003	1.462
512.000	242.181	80.008	19.994	104.120	19.987	10.205	1.489
514.000	245.105	80.006	19.995	104.128	19.984	10.469	1.473
516.000	248.056	80.008	19.993	104.116	19.986	10.307	1.452
518.000	251.021	80.006	19.992	104.103	19.993	9.745	1.500
520.000	253.922	80.012	19.992	104.102	19.991	9.911	1.438
522.000	256.776	80.003	19.995	104.091	19.991	9.879	1.440
524.000	259.642	80.004	19.994	104.082	19.994	9.691	1.444
526.000	262.416	80.004	19.994	104.080	19.995	9.582	1.401
528.000	265.216	80.004	19.994	104.066	19.993	9.767	1.431
530.000	268.004	80.002	19.994	104.070	19.993	9.755	1.403
532.000	270.768	80.005	19.993	104.064	19.995	9.541	1.386
534.000	273.502	80.005	19.993	104.062	19.994	9.686	1.367
536.000	276.184	80.007	19.993	104.067	19.994	9.620	1.341
538.000	278.887	80.002	19.993	104.055	19.996	9.468	1.352
540.000	281.535	80.005	19.993	104.041	19.998	9.314	1.326
542.000	284.183	80.004	19.994	104.032	20.000	9.146	1.328
544.000	286.726	80.015	19.993	104.030	19.996	9.471	1.310
546.000	289.358	80.007	19.993	104.033	20.001	9.127	1.303
548.000	291.907	80.007	19.995	104.032	19.998	9.309	1.315
550.000	294.474	80.008	19.994	104.017	20.002	9.049	1.274
552.000	296.923	80.003	19.994	103.995	20.006	8.744	1.236
554.000	299.427	80.004	19.994	103.989	20.000	9.214	1.198
556.000	301.821	80.003	19.996	103.990	20.008	8.580	1.194
558.000	304.188	80.004	19.993	103.981	20.006	8.674	1.184
560.000	306.535	80.005	19.994	103.964	20.009	8.490	1.203
562.000	308.775	80.004	19.994	103.973	20.008	8.594	1.143
564.000	311.085	80.007	19.993	103.965	20.008	8.543	1.173
566.000	313.320	80.005	19.994	103.958	20.011	8.338	1.143
568.000	315.506	80.005	19.994	103.953	20.014	8.083	1.069
570.000	317.687	80.005	19.994	103.949	20.015	8.042	1.091
572.000	319.765	80.006	19.995	103.946	20.015	8.022	1.047
574.000	321.883	80.005	19.995	103.942	20.009	8.489	1.061
576.000	323.913	80.003	19.995	103.941	20.011	8.348	1.033
578.000	325.972	80.003	19.995	103.944	20.014	8.060	1.030
580.000	327.972	80.004	19.995	103.943	20.015	8.046	0.988
582.000	329.986	80.004	19.993	103.936	20.012	8.247	0.997
584.000	331.988	80.006	19.994	103.930	20.017	7.881	1.036
586.000	333.940	80.007	19.993	103.933	20.013	8.145	0.969
588.000	335.842	80.006	19.993	103.927	20.013	8.136	0.967
590.000	337.792	80.006	19.994	103.935	20.009	8.477	0.963
592.000	339.675	80.008	19.995	103.943	20.012	8.237	0.972
594.000	341.576	80.007	19.993	103.938	20.012	8.223	0.961
596.000	343.395	80.006	19.994	103.936	20.008	8.568	0.927
598.000	345.235	80.009	19.994	103.924	20.011	8.336	0.939
600.000	347.094	80.005	19.993	103.922	20.011	8.359	0.906
602.000	348.896	80.006	19.994	103.927	20.011	8.319	0.885
604.000	350.722	80.005	19.994	103.913	20.013	8.197	0.909
606.000	352.537	80.004	19.992	103.913	20.013	8.187	0.890
608.000	354.394	80.003	19.994	103.913	20.012	8.212	0.907
610.000	356.157	80.003	19.993	103.911	20.014	8.114	0.860
612.000	357.941	80.005	19.993	103.911	20.013	8.131	0.909
614.000	359.721	80.006	19.994	103.914	20.014	8.062	0.878
616.000	361.499	80.005	19.995	103.916	20.011	8.346	0.883
618.000	363.215	80.004	19.994	103.917	20.012	8.248	0.872
620.000	364.973	80.005	19.994	103.910	20.014	8.086	0.881
622.000	366.678	80.006	19.992	103.909	20.008	8.584	0.855
624.000	368.394	80.007	19.992	103.900	20.009	8.461	0.885
626.000	370.055	80.007	19.993	103.899	20.011	8.305	0.846
628.000	371.775	80.005	19.993	103.903	20.014	8.101	0.856
630.000	373.422	80.005	19.993	103.909	20.013	8.180	0.799
632.000	375.157	80.003	19.993	103.907	20.017	7.821	0.866
634.000	376.787	80.004	19.994	103.881	20.014	8.077	0.805
636.000	378.387	80.005	19.994	103.876	20.015	7.998	0.793
638.000	380.039	80.004	19.994	103.874	20.015	7.970	0.804
640.000	381.687	80.003	19.995	103.880	20.015	7.996	0.803
642.000	383.321	80.004	19.994	103.869	20.012	8.247	0.817
644.000	384.853	80.006	19.994	103.870	20.014	8.121	0.775
646.000	386.485	80.006	19.994	103.871	20.010	8.394	0.796
648.000	388.008	80.006	19.994	103.868	20.012	8.262	0.784
650.000	389.571	80.006	19.993	103.874	20.010	8.360	0.796
652.000	391.062	80.005	19.993	103.868	20.012	8.245	0.779
654.000	392.533	80.006	19.994	103.868	20.013	8.144	0.724
656.000	394.065	80.006	19.994	103.868	20.013	8.199	0.748
658.000	395.541	80.005	19.994	103.869	20.010	8.411	0.743
660.000	396.994	80.007	19.994	103.867	20.012	8.211	0.716
662.000	398.436	80.006	19.994	103.868	20.015	8.027	0.748
664.000	399.904	80.005	19.994	103.861	20.013	8.181	0.771
666.000	401.274	80.005	19.994	103.859	20.011	8.323	0.701
668.000	402.740	80.006	19.994	103.850	20.012	8.271	0.727
670.000	404.099	80.005	19.996	103.850	20.014	8.089	0.693
672.000	405.497	80.006	19.994	103.840	20.012	8.230	0.694
674.000	406.839	80.007	19.994	103.843	20.011	8.299	0.688
676.000	408.215	80.008	19.996	103.844	20.012	8.224	0.655
678.000	409.561	80.006	19.994	103.862	20.009	8.496	0.641
680.000	410.896	80.009	19.993	103.842	20.009	8.483	0.667
682.000	412.221	80.007	19.993	103.843	20.013	8.142	0.634
684.000	413.522	80.006	19.993	103.841	20.008	8.581	0.650
686.000	414.789	80.005	19.994	103.851	20.007	8.622	0.630
688.000	416.046	80.004	19.993	103.845	20.006	8.704	0.631
690.000	417.297	80.004	19.993	103.832	20.004	8.837	0.625
692.000	418.592	80.005	19.993	103.832	20.004	8.839	0.625
694.000	419.841	80.003	19.994	103.838	20.006	8.682	0.648
696.000	421.107	80.006	19.993	103.836	20.001	9.058	0.622
698.000	422.294	80.004	19.994	103.834	20.002	9.040	0.585
700.000	423.521	80.004	19.993	103.838	20.003	8.970	0.618
702.000	424.720	80.006	19.994	103.840	20.002	9.051	0.606
704.000	425.878	80.005	19.993	103.834	20.001	9.072	0.586
706.000	427.067	80.006	19.994	103.825	20.001	9.098	0.573
708.000	428.236	80.005	19.993	103.827	20.000	9.139	0.605
710.000	429.433	80.005	19.992	103.827	19.995	9.595	0.557
712.000	430.557	80.005	19.993	103.828	19.997	9.411	0.557
714.000	431.721	80.005	19.993	103.829	19.997	9.426	0.589
716.000	432.857	80.005	19.994	103.827	19.998	9.301	0.574
718.000	434.081	80.006	19.993	103.830	19.993	9.678	0.608
720.000	435.215	80.005	19.992	103.830	19.995	9.528	0.563
722.000	436.327	80.006	19.994	103.830	19.995	9.582	0.565
724.000	437.414	80.004	19.994	103.828	19.995	9.533	0.550
726.000	438.507	80.005	19.993	103.831	19.995	9.563	0.550
728.000	439.651	80.005	19.994	103.830	19.993	9.678	0.569
730.000	440.784	80.007	19.993	103.829	19.993	9.748	0.581
732.000	441.881	80.006	19.992	103.829	19.991	9.886	0.546
734.000	442.951	80.006	19.994	103.830	19.992	9.761	0.539
736.000	444.053	80.006	19.995	103.829	19.988	10.098	0.557
738.000	445.135	80.006	19.995	103.829	19.985	10.349	0.524
740.000	446.248	80.005	19.995	103.830	19.979	10.777	0.564
742.000	447.294	80.006	19.994	103.833	19.974	11.167	0.568
744.000	448.389	80.006	19.994	103.829	19.971	11.438	0.543
746.000	449.462	80.006	19.994	103.831	19.967	11.719	0.549
748.000	450.543	80.006	19.994	103.831	19.968	11.636	0.535
750.000	451.574	80.005	19.993	103.827	19.964	11.947	0.533
752.000	452.582	80.005	19.993	103.831	19.958	12.455	0.496
754.000	453.651	80.006	19.994	103.834	19.952	12.866	0.546
756.000	454.669	80.006	19.994	103.836	19.944	13.549	0.513
758.000	455.747	80.006	19.994	103.836	19.937	14.064	0.543
760.000	456.767	80.007	19.994	103.833	19.927	14.857	0.532
762.000	457.820	80.007	19.994	103.836	19.918	15.550	0.534
764.000	458.889	80.007	19.994	103.838	19.909	16.250	0.547
766.000	459.919	80.006	19.994	103.836	19.896	17.222	0.501
768.000	460.935	80.006	19.994	103.831	19.882	18.311	0.496
770.000	461.976	80.004	19.994	103.835	19.870	19.272	0.481
772.000	462.990	80.004	19.994	103.833	19.854	20.504	0.496
774.000	463.967	80.005	19.994	103.848	19.833	22.150	0.447
776.000	465.019	80.005	19.995	103.841	19.815	23.570	0.509
778.000	466.021	80.006	19.994	103.836	19.794	25.178	0.489
780.000	467.031	80.007	19.994	103.858	19.770	27.055	0.528
782.000	468.060	80.005	19.994	103.863	19.743	29.157	0.508
784.000	469.064	80.005	19.994	103.867	19.713	31.454	0.498
786.000	470.094	80.006	19.993	103.869	19.681	33.939	0.504
788.000	471.108	80.006	19.993	103.872	19.646	36.668	0.488
790.000	472.131	80.006	19.993	103.882	19.600	40.249	0.503
792.000	473.149	80.006	19.994	103.896	19.556	43.721	0.507
794.000	474.204	80.007	19.993	103.892	19.515	46.858	0.531
796.000	475.231	80.006	19.995	103.875	19.478	49.732	0.503
798.000	476.226	80.005	19.994	103.884	19.433	53.269	0.487
800.000	477.260	80.006	19.994	103.897	19.377	57.641	0.506
802.000	478.277	80.006	19.994	103.936	19.327	61.565	0.485
804.000	479.300	80.005	19.994	103.927	19.288	64.579	0.533
806.000	480.329	80.006	19.993	103.911	19.262	66.627	0.538
808.000	481.358	80.005	19.993	103.906	19.236	68.616	0.525
810.000	482.378	80.007	19.995	103.922	19.206	70.989	0.517
812.000	483.371	80.005	19.994	103.969	19.177	73.201	0.476
814.000	484.391	80.005	19.994	104.004	19.143	75.893	0.483
816.000	485.390	80.007	19.994	104.006	19.100	79.271	0.546
818.000	486.442	80.009	19.993	104.018	19.049	83.250	0.518
820.000	487.489	80.008	19.993	104.026	18.995	87.477	0.525
822.000	488.499	80.007	19.993	104.028	18.932	92.383	0.536
824.000	489.470	80.007	19.994	104.025	18.862	97.838	0.476
826.000	490.502	80.007	19.994	104.033	18.786	103.782	0.532
828.000	491.509	80.007	19.995	104.062	18.704	110.188	0.486
830.000	492.481	80.007	19.995	104.068	18.618	116.877	0.484
832.000	493.543	80.008	19.995	104.073	18.532	123.615	0.513
834.000	494.645	80.006	19.995	104.076	18.450	130.003	0.557
836.000	495.617	80.008	19.995	104.085	18.367	136.523	0.493
838.000	496.618	80.006	19.995	104.113	18.282	143.136	0.477
840.000	497.671	80.007	19.995	104.134	18.199	149.662	0.505
842.000	498.713	80.009	19.994	104.139	18.123	155.560	0.485
844.000	499.724	80.008	19.994	104.156	18.034	162.558	0.518
846.000	500.748	80.009	19.994	104.183	17.953	168.881	0.500
848.000	501.806	80.007	19.994	104.202	17.876	174.910	0.515
850.000	502.835	80.007	19.994	104.208	17.799	180.935	0.526
852.000	503.851	80.006	19.994	104.219	17.728	186.459	0.527
854.000	504.875	80.005	19.994	104.225	17.658	191.939	0.501
856.000	505.864	80.007	19.996	104.248	17.589	197.387	0.505
858.000	506.877	80.004	19.994	104.263	17.530	201.974	0.494
860.000	507.943	80.004	19.995	104.264	17.472	206.527	0.541
862.000	509.008	80.004	19.996	104.284	17.425	210.180	0.543
864.000	510.051	80.004	19.995	104.289	17.384	213.323	0.513
866.000	511.052	80.005	19.994	104.297	17.352	215.846	0.502
868.000	512.089	80.005	19.994	104.302	17.325	217.957	0.543
870.000	513.095	80.006	19.995	104.312	17.320	218.374	0.482
872.000	514.164	80.006	19.994	104.307	17.318	218.468	0.496
874.000	515.249	80.006	19.993	104.306	17.334	217.251	0.536
876.001	516.303	80.006	19.993	104.301	17.362	215.035	0.513
878.000	517.361	80.007	19.993	104.306	17.404	211.753	0.504
880.000	518.355	80.006	19.994	104.302	17.460	207.324	0.509
882.000	519.408	80.004	19.995	104.300	17.528	201.959	0.516
884.000	520.462	80.006	19.993	104.292	17.615	195.191	0.516
886.000	521.479	80.005	19.995	104.276	17.707	187.936	0.520
888.000	522.533	80.004	19.994	104.268	17.812	179.736	0.495
890.000	523.613	80.005	19.993	104.262	17.924	170.974	0.527
892.000	524.674	80.004	19.994	104.247	18.040	161.897	0.545
894.000	525.680	80.006	19.992	104.225	18.162	152.366	0.508
896.000	526.720	80.006	19.994	104.210	18.283	142.931	0.512
898.000	527.790	80.006	19.993	104.185	18.406	133.323	0.540
900.000	528.860	80.007	19.993	104.161	18.522	124.254	0.515
902.000	529.930	80.006	19.993	104.143	18.637	115.269	0.524
904.000	530.958	80.008	19.994	104.125	18.753	106.244	0.493
906.000	532.036	80.008	19.994	104.102	18.856	98.226	0.526
908.000	533.038	80.006	19.993	104.093	18.949	90.925	0.516
910.000	534.097	80.006	19.994	104.071	19.038	84.025	0.521
912.000	535.168	80.006	19.993	104.045	19.122	77.505	0.488
914.000	536.199	80.005	19.995	104.027	19.193	71.951	0.521
916.000	537.225	80.008	19.995	104.026	19.260	66.734	0.504
918.000	538.253	80.007	19.994	104.001	19.322	61.894	0.475
920.000	539.304	80.007	19.993	103.978	19.376	57.726	0.492
922.000	540.304	80.008	19.995	103.969	19.427	53.716	0.554
924.000	541.382	80.008	19.994	103.954	19.467	50.594	0.526
926.000	542.376	80.008	19.994	103.946	19.512	47.139	0.506
928.000	543.391	80.009	19.994	103.941	19.542	44.744	0.484
930.000	544.401	80.008	19.994	103.927	19.576	42.171	0.476
932.000	545.412	80.009	19.994	103.912	19.593	40.813	0.548
934.000	546.495	80.006	19.994	103.908	19.632	37.769	0.504
936.000	547.471	80.007	19.992	103.911	19.654	36.084	0.565
938.000	548.512	80.006	19.995	103.900	19.670	34.852	0.512
940.000	549.639	80.005	19.995	103.902	19.690	33.250	0.501
942.000	550.538	80.006	19.994	103.889	19.706	31.997	0.491
944.000	551.698	80.006	19.993	103.883	19.722	30.747	0.471
946.000	552.110	80.006	19.993	103.887	19.735	29.786	0.727
948.000	553.810	80.005	19.992	103.872	19.748	28.787	0.427
950.000	554.715	80.005	19.994	103.873	19.758	27.994	0.588
952.000	555.551	80.005	19.993	103.873	19.766	27.327	0.509
954.000	556.607	80.005	19.994	103.872	19.782	26.072	0.422
956.000	557.655	80.005	19.994	103.870	19.786	25.768	0.489
958.000	558.709	80.004	19.994	103.864	19.797	24.928	0.552
960.000	559.679	80.003	19.996	103.857	19.810	23.915	0.507
962.000	560.728	80.004	19.996	103.856	19.815	23.508	0.481
964.000	561.726	80.003	19.995	103.859	19.823	22.926	0.513
966.000	562.754	80.004	19.996	103.861	19.826	22.689	0.512
968.000	563.814	80.005	19.995	103.850	19.833	22.152	0.507
970.000	564.773	80.005	19.994	103.835	19.835	22.017	0.516
972.000	565.791	80.006	19.993	103.842	19.840	21.608	0.506
974.000	566.799	80.005	19.994	103.836	19.845	21.207	0.521
976.000	567.840	80.006	19.995	103.839	19.847	21.052	0.506
978.000	568.882	80.007	19.994	103.834	19.853	20.559	0.541
980.000	569.830	80.007	19.994	103.841	19.859	20.120	0.527
982.000	570.822	80.007	19.994	103.841	19.860	20.048	0.488
984.000	571.899	80.006	19.994	103.834	19.861	19.982	0.498
986.000	572.866	80.006	19.993	103.832	19.863	19.837	0.502
988.000	573.919	80.006	19.995	103.833	19.862	19.852	0.545
990.000	574.948	80.005	19.993	103.831	19.865	19.624	0.499
992.000	576.013	80.007	19.994	103.829	19.869	19.381	0.537
994.000	577.042	80.006	19.994	103.831	19.869	19.356	0.540
996.000	578.005	80.006	19.993	103.832	19.870	19.290	0.479
998.000	578.995	80.007	19.994	103.830	19.872	19.091	0.489
1000.000	579.978	80.005	19.994	103.832	19.878	18.674	0.486
1002.000	580.991	80.006	19.994	103.829	19.875	18.882	0.469
1004.000	581.958	80.006	19.993	103.832	19.878	18.651	0.493
1006.000	583.005	80.007	19.993	103.830	19.881	18.382	0.527
1008.000	583.990	80.007	19.992	103.831	19.881	18.441	0.494
1010.000	585.023	80.008	19.993	103.823	19.884	18.203	0.505
1012.000	586.020	80.008	19.993	103.812	19.888	17.839	0.484
1014.001	587.066	80.006	19.993	103.825	19.886	18.049	0.518
1016.000	588.092	80.006	19.993	103.831	19.887	17.912	0.487
1018.000	589.083	80.006	19.993	103.831	19.889	17.772	0.508
1020.000	590.097	80.006	19.994	103.828	19.888	17.844	0.497
1022.000	591.124	80.006	19.993	103.831	19.894	17.427	0.516
1024.000	592.124	80.005	19.994	103.828	19.891	17.623	0.489
1026.000	593.160	80.004	19.995	103.825	19.895	17.287	0.496
1028.000	594.203	80.005	19.995	103.823	19.898	17.086	0.513
1030.001	595.256	80.005	19.995	103.829	19.897	17.186	0.520
1032.000	596.270	80.005	19.994	103.820	19.896	17.211	0.503
1034.000	597.316	80.005	19.995	103.818	19.900	16.965	0.522
1036.000	598.362	80.005	19.995	103.812	19.903	16.717	0.527
1038.000	599.328	80.005	19.995	103.828	19.903	16.724	0.512
1040.000	600.373	80.006	19.995	103.818	19.901	16.876	0.518
1042.000	601.396	80.006	19.994	103.808	19.901	16.861	0.481
1044.000	602.413	80.005	19.995	103.807	19.905	16.561	0.507
1046.000	603.459	80.005	19.996	103.820	19.903	16.730	0.531
1048.000	604.488	80.005	19.994	103.806	19.904	16.591	0.498
1050.000	605.533	80.004	19.995	103.806	19.905	16.580	0.494
1052.000	606.513	80.004	19.994	103.805	19.909	16.231	0.485
1054.000	607.533	80.004	19.994	103.804	19.907	16.400	0.534
1056.001	608.585	80.004	19.995	103.812	19.908	16.287	0.514
1058.000	609.626	80.005	19.996	103.804	19.911	16.111	0.541
1060.000	610.623	80.005	19.997	103.797	19.911	16.069	0.532
1062.000	611.605	80.005	19.995	103.790	19.913	15.955	0.518
1064.000	612.652	80.005	19.994	103.798	19.913	15.890	0.540
1066.000	613.662	80.006	19.995	103.795	19.913	15.930	0.519
1068.001	614.705	80.006	19.994	103.793	19.913	15.913	0.546
1070.000	615.744	80.006	19.994	103.792	19.916	15.662	0.512
1072.000	616.777	80.006	19.994	103.795	19.919	15.470	0.533
1074.000	617.754	80.007	19.994	103.795	19.918	15.496	0.488
1076.000	618.768	80.005	19.993	103.792	19.917	15.589	0.502
1078.000	619.786	80.007	19.994	103.806	19.917	15.597	0.503
1080.000	620.793	80.006	19.993	103.794	19.921	15.291	0.488
1082.000	621.818	80.006	19.994	103.798	19.925	15.026	0.503
1084.000	622.865	80.006	19.994	103.798	19.919	15.458	0.540
1086.000	623.864	80.005	19.994	103.794	19.923	15.174	0.519
1088.000	624.892	80.005	19.993	103.799	19.924	15.064	0.500
1090.000	625.842	80.006	19.993	103.800	19.927	14.815	0.488
1092.000	626.831	80.007	19.993	103.799	19.929	14.655	0.505
1094.001	627.875	80.006	19.993	103.795	19.925	14.953	0.483
1096.001	628.927	80.007	19.994	103.797	19.931	14.525	0.533
1098.001	629.913	80.007	19.993	103.798	19.928	14.757	0.512
1100.000	630.907	80.007	19.994	103.791	19.929	14.712	0.494
1102.000	631.909	80.007	19.994	103.792	19.930	14.568	0.502
1104.000	632.921	80.006	19.994	103.794	19.933	14.397	0.499
1106.000	633.966	80.006	19.993	103.790	19.937	14.054	0.524
1108.000	634.981	80.006	19.993	103.789	19.940	13.844	0.491
1110.000	636.002	80.005	19.993	103.789	19.939	13.892	0.521
1112.000	637.027	80.005	19.993	103.792	19.941	13.770	0.501
1114.000	638.031	80.006	19.994	103.791	19.938	14.001	0.520
1116.000	639.073	80.004	19.993	103.787	19.941	13.739	0.524
1118.000	640.079	80.006	19.994	103.791	19.945	13.460	0.512
1120.000	641.113	80.005	19.994	103.795	19.944	13.507	0.514
1122.000	642.101	80.005	19.994	103.784	19.947	13.284	0.507
1124.000	643.134	80.004	19.995	103.791	19.948	13.192	0.520
1126.000	644.090	80.005	19.994	103.788	19.948	13.177	0.496
1128.001	645.064	80.005	19.993	103.787	19.946	13.333	0.475
1130.000	646.078	80.006	19.995	103.790	19.950	13.028	0.533
1132.000	647.059	80.005	19.994	103.792	19.949	13.097	0.513
1134.000	648.085	80.004	19.994	103.792	19.952	12.896	0.527
1136.000	649.048	80.004	19.994	103.793	19.952	12.866	0.476
1138.000	650.123	80.004	19.994	103.795	19.952	12.892	0.510
1140.001	651.068	80.003	19.994	103.793	19.951	12.950	0.490
1142.001	652.079	80.004	19.993	103.796	19.954	12.720	0.512
1144.001	653.076	80.005	19.994	103.792	19.954	12.743	0.501
1146.000	654.067	80.006	19.993	103.794	19.956	12.617	0.508
1148.000	655.080	80.005	19.994	103.791	19.952	12.893	0.493
1150.000	656.060	80.005	19.994	103.793	19.954	12.710	0.478
1152.000	657.026	80.004	19.994	103.794	19.955	12.666	0.498
1154.000	657.993	80.005	19.994	103.795	19.954	12.721	0.503
1156.000	659.007	80.004	19.995	103.794	19.956	12.584	0.508
1158.000	659.952	80.005	19.994	103.789	19.952	12.880	0.513
1160.000	660.987	80.006	19.993	103.788	19.952	12.927	0.511
1162.000	661.898	80.006	19.994	103.791	19.954	12.708	0.462
1164.000	662.928	80.006	19.993	103.791	19.953	12.845	0.489
1166.000	663.863	80.006	19.994	103.786	19.951	12.974	0.508
1168.000	664.915	80.006	19.993	103.781	19.953	12.780	0.498
1170.001	665.796	80.006	19.993	103.787	19.956	12.603	0.573
1172.000	666.321	80.006	19.993	103.784	19.958	12.437	0.145
1174.000	667.788	80.008	19.993	103.787	19.958	12.422	0.602
1176.000	668.760	80.007	19.993	103.789	19.957	12.486	0.302
1178.000	669.803	80.008	19.994	103.786	19.958	12.431	0.461
1180.000	670.821	80.007	19.994	103.781	19.959	12.380	0.501
1182.000	671.889	80.006	19.993	103.784	19.958	12.404	0.504
1184.000	672.917	80.006	19.994	103.781	19.957	12.465	0.236
1186.000	673.815	80.005	19.995	103.785	19.957	12.482	0.481
1188.001	674.828	80.006	19.994	103.784	19.955	12.683	0.550
1190.001	675.860	80.004	19.993	103.786	19.957	12.480	0.516
1192.000	676.852	80.005	19.993	103.787	19.960	12.235	0.482
1194.000	677.808	80.005	19.994	103.788	19.962	12.115	0.537
1196.000	678.828	80.005	19.994	103.785	19.957	12.515	0.511
1198.000	679.790	80.007	19.993	103.791	19.956	12.583	0.498
1200.000	680.806	80.005	19.994	103.793	19.952	12.860	0.480
1202.000	681.759	80.005	19.993	103.786	19.955	12.653	0.486
1204.001	682.766	80.006	19.993	103.789	19.956	12.573	0.512
1206.000	683.676	80.006	19.994	103.793	19.956	12.545	0.476
1208.000	684.697	80.005	19.994	103.790	19.956	12.611	0.516
1210.000	685.674	80.006	19.993	103.788	19.950	13.017	0.489
1212.000	686.622	80.006	19.993	103.781	19.954	12.756	0.504
1214.001	687.579	80.004	19.995	103.769	19.954	12.775	0.478
1216.000	688.575	80.005	19.995	103.785	19.956	12.606	0.492
1218.000	689.551	80.005	19.994	103.794	19.953	12.810	0.465
1220.000	690.601	80.004	19.994	103.793	19.955	12.630	0.540
1222.000	691.587	80.005	19.994	103.789	19.956	12.556	0.497
1224.000	692.591	80.004	19.994	103.793	19.950	13.057	0.506
1226.001	693.594	80.006	19.993	103.793	19.951	12.959	0.477
1228.000	694.610	80.005	19.994	103.785	19.948	13.235	0.539
1230.000	695.647	80.007	19.994	103.777	19.951	12.978	0.532
1232.001	696.684	80.007	19.995	103.772	19.949	13.120	0.504
1234.000	697.700	80.008	19.993	103.782	19.952	12.867	0.506
1236.000	698.754	80.007	19.993	103.788	19.946	13.318	0.517
1238.000	699.722	80.007	19.994	103.778	19.950	13.043	0.504
1240.000	700.766	80.007	19.994	103.778	19.944	13.538	0.531
1242.000	701.774	80.005	19.994	103.785	19.947	13.283	0.498
1244.001	702.828	80.007	19.995	103.780	19.946	13.351	0.531
1246.000	703.805	80.006	19.996	103.779	19.950	13.018	0.534
1248.000	704.864	80.006	19.996	103.781	19.948	13.220	0.533
1250.000	705.819	80.007	19.993	103.772	19.948	13.217	0.483
1252.000	706.831	80.007	19.994	103.787	19.944	13.491	0.533
1254.000	707.811	80.009	19.994	103.786	19.947	13.247	0.545
1256.000	708.828	80.009	19.994	103.782	19.946	13.370	0.515
1258.000	709.856	80.008	19.993	103.777	19.945	13.459	0.520
1260.000	710.884	80.008	19.994	103.786	19.944	13.550	0.525
1262.000	711.870	80.007	19.993	103.781	19.940	13.784	0.509
1264.000	712.884	80.008	19.994	103.778	19.945	13.467	0.530
1266.000	713.821	80.007	19.992	103.782	19.947	13.315	0.497
1268.000	714.843	80.007	19.993	103.785	19.944	13.532	0.471
1270.000	715.893	80.007	19.994	103.776	19.944	13.510	0.519
1272.000	716.925	80.006	19.993	103.778	19.945	13.469	0.513
1274.000	717.896	80.006	19.993	103.770	19.945	13.448	0.459
1276.000	718.897	80.004	19.996	103.781	19.943	13.616	0.490
1278.000	719.895	80.005	19.994	103.775	19.945	13.403	0.499
1280.000	720.957	80.006	19.993	103.767	19.942	13.662	0.513
1282.000	721.957	80.006	19.994	103.777	19.944	13.516	0.481
1284.000	722.997	80.006	19.994	103.774	19.942	13.668	0.524
1286.000	724.047	80.006	19.993	103.787	19.939	13.906	0.487
1288.000	725.054	80.004	19.994	103.793	19.943	13.625	0.506
1290.000	726.109	80.006	19.993	103.786	19.943	13.617	0.558
1292.000	727.124	80.007	19.994	103.787	19.943	13.603	0.548
1294.000	728.155	80.006	19.993	103.776	19.943	13.591	0.506
1296.000	729.183	80.005	19.994	103.784	19.939	13.879	0.525
1298.000	730.194	80.004	19.993	103.775	19.941	13.752	0.501
1300.000	731.240	80.005	19.994	103.764	19.941	13.709	0.536
1302.001	732.280	80.006	19.993	103.778	19.942	13.645	0.524
1304.000	733.266	80.005	19.994	103.769	19.941	13.709	0.502
1306.000	734.326	80.005	19.995	103.765	19.941	13.707	0.545
1308.000	735.316	80.005	19.994	103.766	19.940	13.849	0.503
1310.001	736.266	80.006	19.994	103.756	19.943	13.578	0.448
1312.000	737.327	80.007	19.994	103.758	19.940	13.783	0.520
1314.000	738.321	80.006	19.995	103.758	19.940	13.842	0.500
1316.000	739.272	80.007	19.994	103.753	19.941	13.776	0.494
1318.000	740.269	80.006	19.994	103.754	19.938	13.974	0.458
1320.000	741.284	80.007	19.995	103.753	19.939	13.903	0.473
1322.000	742.202	80.008	19.995	103.768	19.936	14.137	0.448
1324.000	743.221	80.006	19.995	103.759	19.940	13.803	0.482
1325.000	743.696	80.006	19.993	103.764	19.941	13.749	0.470